t_ms,ax,ay,az,gx,gy,gz,temp,ang_deg
12,-8.234302,-3.619144,4.096512,-0.066126,0.343154,-0.08262,31.59,65.5134024201791
22,-8.266603,-3.628117,4.036692,-0.055741,0.351858,-0.075289,31.59,65.9085043859822
32,-8.301898,-3.632903,4.007978,-0.042455,0.352622,-0.067959,31.6,66.1409130102593
42,-8.289336,-3.652046,3.966104,-0.027947,0.344528,-0.058643,31.6,66.3538873704887
52,-8.315059,-3.659822,3.928416,-0.013439,0.329715,-0.048411,31.54,66.6156708858252
62,-8.333005,-3.667001,3.893123,0.002291,0.309403,-0.035583,31.54,66.8474855347644
72,-8.365308,-3.677768,3.848855,0.017715,0.285121,-0.022907,31.57,67.159711027885
82,-8.385648,-3.694518,3.835097,0.034056,0.256105,-0.00901,31.57,67.2896304240031
92,-8.407183,-3.698706,3.81715,0.049022,0.223729,0.003971,31.58,67.4325831274344
102,-8.408977,-3.711866,3.811767,0.06353,0.190285,0.015882,31.58,67.4765589939644
112,-8.447861,-3.71725,3.802195,0.076664,0.153633,0.026267,31.56,67.6103191501229
122,-8.485548,-3.72383,3.806383,0.087965,0.117133,0.034208,31.56,67.6691033907425
132,-8.511271,-3.726223,3.815954,0.09728,0.080176,0.039554,31.57,67.6717457870967
142,-8.532208,-3.737589,3.841677,0.104763,0.043371,0.041692,31.57,67.5877245019086
152,-8.569296,-3.734598,3.856632,0.109498,0.007941,0.039248,31.56,67.5802206583174
162,-8.582456,-3.74058,3.884149,0.111788,-0.025809,0.033598,31.56,67.4675925882105
172,-8.617152,-3.745964,3.952345,0.110567,-0.055894,0.022755,31.55,67.1866883600223
182,-8.610572,-3.745964,3.988237,0.097891,-0.104611,-0.007789,31.55,66.9877421922833
192,-8.608777,-3.74716,4.024727,0.086437,-0.123242,-0.02642,31.57,66.7967989850855
202,-8.605188,-3.739982,4.057031,0.072082,-0.137903,-0.047037,31.57,66.6167914321446
212,-8.592029,-3.738187,4.093522,0.055741,-0.148898,-0.069944,31.57,66.4006817759582
222,-8.577671,-3.742374,4.116253,0.035583,-0.156534,-0.091783,31.56,66.2581670509655
232,-8.563314,-3.743571,4.134798,0.014966,-0.161116,-0.114537,31.56,66.1343777186405
242,-8.534599,-3.742973,4.147958,-0.006872,-0.162032,-0.136834,31.57,66.0064586251913
252,-8.504689,-3.746562,4.17069,-0.030238,-0.159741,-0.156992,31.57,65.8303195294521
262,-8.478967,-3.755535,4.17069,-0.053603,-0.156687,-0.175471,31.55,65.7844006068233
272,-8.439486,-3.745365,4.171886,-0.075289,-0.150426,-0.190743,31.55,65.6849545915588
282,-8.404191,-3.746562,4.171288,-0.094226,-0.142179,-0.202655,31.58,65.6138747893834
292,-8.359326,-3.749553,4.158128,-0.112094,-0.134085,-0.211207,31.58,65.5887023802284
302,-8.326425,-3.756732,4.143172,-0.126755,-0.124617,-0.216552,31.6,65.6026159309329
312,-8.305488,-3.766901,4.122834,-0.138514,-0.114843,-0.216857,31.6,65.6734512681739
322,-8.266603,-3.773481,4.095914,-0.144775,-0.105985,-0.211207,31.57,65.7370987617339
332,-8.230114,-3.781258,4.073183,-0.14676,-0.097738,-0.202349,31.57,65.7856837664743
342,-8.203195,-3.790231,4.019942,-0.14447,-0.089797,-0.188757,31.59,66.0178096735076
352,-8.13799,-3.799803,3.99721,-0.136528,-0.077733,-0.147219,31.59,66.0083214523396
362,-8.112864,-3.811168,3.97747,-0.10736,-0.073762,-0.121715,31.61,66.0710875802018
372,-8.102098,-3.809972,3.966104,-0.087201,-0.070555,-0.092699,31.58,66.1075443053003
382,-8.088339,-3.808775,3.946362,-0.063988,-0.067959,-0.061392,31.58,66.1825991562659
392,-8.088339,-3.818945,3.9338,-0.037874,-0.065057,-0.027489,31.59,66.2602553554909
402,-8.17149,-3.80399,3.844069,-0.009927,-0.062156,0.004887,31.59,66.9028191451148
412,-8.397013,-3.753741,3.857828,0.033292,-0.061239,0.018631,31.54,67.245494782036
422,-8.17448,-3.782454,3.954139,0.072388,-0.092393,0.012981,31.54,66.2985678372621
432,-8.076375,-3.807579,3.984648,0.098502,-0.105985,0.036652,31.54,65.950537530293
442,-8.065607,-3.809972,3.990032,0.123547,-0.101556,0.071471,31.54,65.9008812815383
452,-8.090134,-3.80399,4.023531,0.14508,-0.094226,0.105985,31.56,65.7690233201187
462,-8.103294,-3.795017,4.059424,0.163254,-0.086437,0.13607,31.56,65.5975519116697
472,-8.141579,-3.789035,4.079762,0.177915,-0.07758,0.162185,31.58,65.567145671279
482,-8.199606,-3.768098,4.111467,0.189063,-0.068722,0.181274,31.58,65.5052299490532
492,-8.274381,-3.768098,4.152145,0.194561,-0.062919,0.192423,31.57,65.4546455713358
502,-8.292925,-3.751348,4.2006,0.195477,-0.059559,0.195477,31.57,65.2263798499305
512,-8.297711,-3.74716,4.266403,0.192881,-0.054062,0.193186,31.53,64.8922067238919
522,-8.323434,-3.726223,4.295117,0.185398,-0.043066,0.18387,31.53,64.7802944069556
532,-8.341978,-3.72383,4.313661,0.158672,-0.009621,0.174402,31.57,64.7236993792848
542,-8.36471,-3.729812,4.345366,0.140194,0.009468,0.161116,31.57,64.6176394940105
552,-8.382656,-3.714259,4.363312,0.118355,0.02978,0.145539,31.57,64.5505364145446
562,-8.396414,-3.703491,4.369893,0.09499,0.050091,0.127213,31.58,64.5369730033531
572,-8.413164,-3.705286,4.378866,0.071013,0.071166,0.107512,31.58,64.5302179771499
582,-8.41436,-3.701697,4.376472,0.047647,0.092852,0.086285,31.58,64.5415310159275
592,-8.42812,-3.694518,4.368696,0.023366,0.113774,0.066126,31.58,64.6045026551186
602,-8.462815,-3.689135,4.365705,0.000305,0.133016,0.043677,31.59,64.690966852238
612,-8.496913,-3.686741,4.341179,-0.020159,0.144164,0.017868,31.59,64.8877448247275
622,-8.444869,-3.678366,4.298108,-0.038026,0.152258,-0.010079,31.55,64.9854131692873
632,-8.393424,-3.677768,4.269393,-0.05116,0.170737,-0.030391,31.55,65.0193393430076
642,-8.395219,-3.669394,4.228117,-0.059101,0.194561,-0.044746,31.59,65.2276769200914
652,-8.402995,-3.655036,4.192225,-0.062308,0.220675,-0.056658,31.59,65.4162841750797
662,-8.397013,-3.652644,4.161119,-0.062156,0.246942,-0.067959,31.59,65.5621552570864
672,-8.405388,-3.653242,4.157529,-0.06017,0.27214,-0.07758,31.59,65.5994141167303
682,-8.416155,-3.668795,4.134798,-0.058032,0.290008,-0.085979,31.58,65.7550039825896
692,-8.423334,-3.668795,4.082754,-0.057421,0.302531,-0.093768,31.58,66.0408373807548
702,-8.427522,-3.676572,4.052843,-0.052993,0.314596,-0.106749,31.57,66.2127829114998
712,-8.421539,-3.677171,4.019344,-0.049022,0.314748,-0.111636,31.59,66.3758072860372
722,-8.417352,-3.675974,3.97747,-0.043982,0.312916,-0.115912,31.59,66.5855174438265
732,-8.433504,-3.677768,3.956532,-0.039859,0.306807,-0.11805,31.6,66.730723354174
742,-8.429914,-3.686144,3.925426,-0.033903,0.296728,-0.119119,31.6,66.8945418585095
752,-8.429317,-3.685545,3.884748,-0.027031,0.282678,-0.118355,31.53,67.1074347788109
762,-8.433504,-3.695116,3.855436,-0.021075,0.26649,-0.117439,31.53,67.2795630280988
772,-8.428718,-3.681956,3.836891,-0.014661,0.245873,-0.114995,31.56,67.3564579459865
782,-8.421539,-3.697509,3.80399,-0.008399,0.222966,-0.110108,31.56,67.5305097823286
792,-8.414959,-3.697509,3.786044,-0.001833,0.197768,-0.104305,31.55,67.6128226466364
802,-8.411968,-3.702295,3.766303,0.003971,0.171195,-0.096517,31.55,67.7163344597087
812,-8.412566,-3.699902,3.738786,0.010232,0.14279,-0.087201,31.55,67.8624614208832
822,-8.411968,-3.693322,3.727419,0.017104,0.112552,-0.076205,31.55,67.9163522295317
832,-8.412566,-3.699304,3.705286,0.022297,0.082314,-0.065363,31.6,68.0413640403943
842,-8.423933,-3.702295,3.70409,0.029169,0.051465,-0.053451,31.6,68.0728474959156
852,-8.417352,-3.694518,3.699902,0.035277,0.020311,-0.039248,31.55,68.0755484732731
862,-8.469396,-3.712464,3.702893,0.039554,-0.01573,-0.027947,31.55,68.1774303764968
872,-8.432905,-3.715455,3.711866,0.043219,-0.103236,-0.012675,31.54,68.0603467752963
882,-8.420941,-3.716652,3.734,0.049175,-0.140041,0.000153,31.54,67.9193703737612
892,-8.438289,-3.712464,3.755535,0.051313,-0.175013,0.013592,31.54,67.8352047733735
902,-8.442476,-3.716652,3.773481,0.051771,-0.209374,0.025045,31.57,67.7516293146869
912,-8.455039,-3.717848,3.8004,0.051924,-0.240986,0.035277,31.57,67.6347235148287
922,-8.467602,-3.720241,3.839882,0.05116,-0.270308,0.044135,31.59,67.4529571075226
932,-8.459227,-3.703491,3.867399,0.049938,-0.298408,0.050244,31.59,67.27592087656
942,-8.469995,-3.713063,3.912863,0.048411,-0.322231,0.053909,31.58,67.0668565984494
952,-8.46461,-3.716054,3.942175,0.045662,-0.341779,0.054367,31.58,66.9046669177533
962,-8.471789,-3.709473,3.995416,0.042455,-0.357203,0.053909,31.55,66.6349124815845
972,-8.462815,-3.715455,4.041477,0.037874,-0.368963,0.050396,31.55,66.3816417353354
982,-8.456235,-3.722634,4.074977,0.034056,-0.375071,0.045662,31.59,66.2003616984351
992,-8.444869,-3.715455,4.126423,0.028253,-0.376446,0.03879,31.59,65.9030986143631
1002,-8.419147,-3.716652,4.162913,0.022755,-0.37217,0.031612,31.59,65.660755097158
1012,-8.386245,-3.725027,4.196413,0.017868,-0.363923,0.022755,31.59,65.4249697191649
1022,-8.359925,-3.719045,4.228716,0.011301,-0.351247,0.013897,31.57,65.1953837831025
1032,-8.342576,-3.729812,4.293921,0.005956,-0.33338,0.005803,31.57,64.8322259950672
1042,-8.273185,-3.701099,4.30409,0.000611,-0.311236,-0.009774,31.59,64.5973668508692
1052,-8.256434,-3.71067,4.326822,-0.009621,-0.259007,-0.015272,31.54,64.4522490966615
1062,-8.221739,-3.723232,4.355535,-0.014966,-0.227853,-0.0197,31.54,64.238897666243
1072,-8.205587,-3.724428,4.369893,-0.018173,-0.193797,-0.023824,31.59,64.129568906083
1082,-8.178668,-3.725027,4.386642,-0.022602,-0.157451,-0.025809,31.59,63.982584620312
1092,-8.160124,-3.726821,4.402196,-0.027489,-0.120035,-0.028558,31.57,63.8618783102106
1102,-8.153543,-3.720839,4.393821,-0.030849,-0.080329,-0.029016,31.57,63.8836150577375
1112,-8.139186,-3.714857,4.401597,-0.033598,-0.039706,-0.027947,31.59,63.8041742115682
1122,-8.136793,-3.726821,4.391428,-0.036957,0.000764,-0.026267,31.59,63.8637167324247
1132,-8.145168,-3.734,4.386044,-0.039859,0.041539,-0.025504,31.56,63.9183051169771
1142,-8.146365,-3.72383,4.382454,-0.043524,0.080329,-0.024435,31.56,63.9288879734665
1152,-8.17448,-3.736991,4.369295,-0.047189,0.118355,-0.023976,31.57,64.0748663787726
1162,-8.195418,-3.738187,4.337589,-0.049938,0.154091,-0.022602,31.57,64.2872509867584
1172,-8.214561,-3.738786,4.319045,-0.053603,0.187077,-0.021533,31.57,64.4268222855886
1182,-8.229516,-3.753741,4.290929,-0.057116,0.215788,-0.021838,31.57,64.6209074771169
1192,-8.252247,-3.74058,4.261019,-0.059559,0.241139,-0.021228,31.56,64.8129397006106
1202,-8.258827,-3.749553,4.232305,-0.06185,0.262672,-0.020006,31.56,64.985312394107
1212,-8.303694,-3.759125,4.150351,-0.063072,0.278555,-0.019853,31.53,65.518595064242
1222,-8.321639,-3.757928,4.115655,-0.065515,0.296117,-0.015882,31.59,65.7368306771543
1232,-8.35813,-3.759125,4.051647,-0.063072,0.297186,-0.012981,31.59,66.1498293271751
1242,-8.660224,-3.690331,3.719643,-0.047342,0.300088,-0.021228,31.61,68.4395269472624
1252,-8.42812,-3.688536,4.022933,-0.00672,0.299629,-0.059407,31.61,66.3812421222739
1262,-8.346166,-3.756732,3.982853,0.001833,0.279318,-0.062614,31.55,66.4833912624994
1272,-8.330013,-3.769892,3.958925,0.006414,0.267406,-0.049938,31.55,66.5882005966009
1282,-8.364112,-3.765106,3.945167,0.010232,0.252745,-0.038179,31.59,66.7270209124745
1292,-8.370691,-3.766901,3.916452,0.015424,0.236405,-0.025504,31.59,66.8937449575532
1302,-8.375478,-3.766303,3.920042,0.019548,0.21701,-0.014661,31.59,66.8840758444823
1312,-8.379665,-3.76391,3.908676,0.024435,0.197462,-0.004276,31.59,66.9504654325775
1322,-8.396414,-3.777669,3.896114,0.028863,0.177456,0.003971,31.59,67.0636472273007
1332,-8.418548,-3.758526,3.908078,0.032223,0.157298,0.011912,31.59,67.0281844131013
1342,-8.410173,-3.758526,3.896712,0.036041,0.137445,0.017715,31.6,67.0710341533458
1352,-8.426923,-3.758526,3.915854,0.03879,0.117744,0.021838,31.6,67.0043229356208
1362,-8.427522,-3.754339,3.911667,0.041692,0.099266,0.023671,31.57,67.0237745769919
1372,-8.443673,-3.75733,3.921836,0.043219,0.082772,0.024282,31.57,67.0059236451341
1382,-8.456235,-3.746562,3.949354,0.044746,0.067806,0.022602,31.56,66.8774323525299
1392,-8.455039,-3.737589,3.952943,0.043524,0.040164,0.014203,31.56,66.8480482378583
1402,-8.459825,-3.734,3.962514,0.041539,0.027031,0.007941,31.54,66.8044855760286
1412,-8.464012,-3.724428,3.964309,0.038943,0.015119,0.00168,31.58,66.7950252590697
1422,-8.456833,-3.714259,3.974478,0.035125,0.004123,-0.005345,31.58,66.7178262194829
1432,-8.452048,-3.718446,3.979264,0.030696,-0.006261,-0.011606,31.55,66.6867033201731
1442,-8.451449,-3.719045,3.981657,0.026573,-0.016799,-0.017562,31.55,66.6734889203921
1452,-8.44128,-3.7005,3.986442,0.021075,-0.026114,-0.022449,31.57,66.6105351955388
1462,-8.42453,-3.697509,3.988835,0.01405,-0.036041,-0.026725,31.57,66.560467579917
1472,-8.429914,-3.7005,3.990032,0.007483,-0.045509,-0.029169,31.55,66.5681251826111
1482,-8.43111,-3.696911,3.999005,0.000305,-0.054214,-0.029932,31.55,66.5203406237347
1492,-8.413763,-3.692724,3.987639,-0.007178,-0.063225,-0.029627,31.56,66.5399352748868
1502,-8.400003,-3.675974,3.995416,-0.013286,-0.071471,-0.027031,31.56,66.4549918215745
1512,-8.382656,-3.686741,3.99721,-0.020311,-0.080176,-0.022449,31.57,66.41908156777
1522,-8.388638,-3.681956,3.976871,-0.027947,-0.088881,-0.017715,31.57,66.5341746268492
1532,-8.378469,-3.693322,3.974478,-0.034056,-0.097738,-0.012065,31.59,66.5359587785877
1542,-8.377273,-3.681358,3.980461,-0.037874,-0.107054,-0.005192,31.59,66.4909250909673
1552,-8.382656,-3.681358,3.975077,-0.040928,-0.116064,0.00168,31.57,66.530551358617
1562,-8.38804,-3.693322,3.971487,-0.04444,-0.125686,0.016799,31.57,66.5717012860008
1572,-8.401799,-3.679563,3.924827,-0.043524,-0.144775,0.022144,31.56,66.8337122861801
1582,-8.483154,-3.691527,3.814758,-0.031001,-0.147066,0.019853,31.55,67.5918368516083
1592,-8.391031,-3.686741,3.921238,-0.00504,-0.140194,0.008399,31.55,66.8369001001465
1602,-8.360522,-3.685545,3.978068,0.007178,-0.144164,0.009316,31.5,66.4722475327908
1612,-8.365907,-3.693322,3.984648,0.013439,-0.151036,0.015272,31.5,66.4560894019414
1622,-8.343175,-3.701697,3.998407,0.020006,-0.158214,0.020617,31.55,66.3436053513081
1632,-8.350353,-3.701697,4.012764,0.028558,-0.163559,0.025809,31.55,66.2832023192803
1642,-8.335398,-3.703491,4.031906,0.035583,-0.167224,0.030849,31.55,66.1526060886907
1652,-8.333604,-3.70409,4.06062,0.044593,-0.169515,0.033445,31.55,65.9986347481227
1662,-8.344371,-3.702295,4.066004,0.052687,-0.170279,0.035583,31.53,65.991684928676
1672,-8.329416,-3.713661,4.086941,0.061392,-0.168446,0.03711,31.53,65.8609334930731
1682,-8.334201,-3.716652,4.12044,0.068264,-0.163712,0.037568,31.54,65.6990784561829
1692,-8.31446,-3.71725,4.138985,0.074984,-0.157756,0.035888,31.54,65.5603653008651
1702,-8.306684,-3.716652,4.171288,0.080176,-0.148288,0.033445,31.6,65.3746593569725
1712,-8.319845,-3.71725,4.202993,0.082925,-0.135307,0.030696,31.6,65.2392662337372
1722,-8.30788,-3.707679,4.258028,0.083536,-0.120493,0.026725,31.54,64.918781337438
1732,-8.31147,-3.706482,4.283751,0.083078,-0.103542,0.02138,31.54,64.7928089022142
1742,-8.319246,-3.711866,4.309474,0.074067,-0.061392,0.007789,31.55,64.6829955279211
1752,-8.313264,-3.711866,4.324429,0.067195,-0.036957,-0.001527,31.57,64.5928685773974
1762,-8.318647,-3.710072,4.339384,0.057269,-0.011454,-0.012523,31.57,64.5263513866418
1772,-8.321639,-3.696313,4.356134,0.045662,0.015424,-0.023976,31.56,64.4335320115203
1782,-8.325229,-3.713661,4.353143,0.032376,0.042608,-0.036346,31.56,64.4741305427075
1792,-8.326425,-3.711866,4.359125,0.01741,0.069639,-0.048564,31.58,64.4444054908081
1802,-8.328817,-3.704688,4.354339,0.002443,0.096517,-0.060628,31.58,64.4670964684092
1812,-8.331809,-3.713661,4.345366,-0.014508,0.122784,-0.073151,31.58,64.5286107436163
1822,-8.327023,-3.707679,4.334,-0.030543,0.147219,-0.084299,31.58,64.5702451653048
1832,-8.334201,-3.715455,4.301697,-0.045968,0.170126,-0.094531,31.53,64.7596461022927
1842,-8.343773,-3.728018,4.278367,-0.06185,0.19059,-0.104611,31.53,64.9130302667347
1852,-8.34796,-3.739982,4.244269,-0.075289,0.207847,-0.112857,31.54,65.1094694795159
1862,-8.334201,-3.715455,4.215555,-0.087048,0.223729,-0.118813,31.54,65.2037951904679
1872,-8.325229,-3.736392,4.175476,-0.098044,0.235794,-0.124311,31.56,65.4123890863171
1882,-8.32463,-3.739383,4.141976,-0.107054,0.244499,-0.127365,31.56,65.5881592916033
1892,-8.334201,-3.736392,4.100101,-0.114079,0.25076,-0.127213,31.61,65.8241422250921
1902,-8.346166,-3.74716,4.006183,-0.118661,0.252287,-0.125991,31.61,66.3516843996217
1912,-8.353344,-3.752544,3.982853,-0.118813,0.244499,-0.116981,31.54,66.494446621419
1922,-8.337791,-3.756134,3.930809,-0.115301,0.23442,-0.110108,31.6,66.7399810762363
1932,-8.350951,-3.754937,3.899105,-0.110261,0.221744,-0.100945,31.6,66.9338410501777
1942,-8.359326,-3.756732,3.862016,-0.102167,0.205709,-0.089644,31.57,67.1493377770183
1952,-8.423334,-3.738187,3.746562,-0.088575,0.187077,-0.07926,31.57,67.8759331031932
1962,-8.383254,-3.7005,3.638287,-0.056658,0.18387,-0.078191,31.59,68.3452245587081
1972,-8.35454,-3.753142,3.781258,-0.022297,0.186772,-0.07025,31.59,67.5665596047758
1982,-8.373085,-3.77049,3.786044,-0.006261,0.164017,-0.051771,31.59,67.593935787398
1992,-8.36471,-3.765705,3.77408,0.007789,0.135307,-0.032681,31.59,67.6366861815729
2002,-8.367702,-3.761517,3.756134,0.02306,0.106291,-0.01405,31.56,67.7348283402084
2012,-8.367702,-3.753142,3.759723,0.03879,0.076358,0.005498,31.56,67.7081144222275
2022,-8.368897,-3.767499,3.765705,0.054214,0.04612,0.025809,31.58,67.6914270248154
2032,-8.379066,-3.758526,3.781258,0.068111,0.016952,0.044288,31.58,67.6206737873821
2042,-8.372486,-3.760919,3.788436,0.082314,-0.010996,0.06353,31.56,67.5713392282195
2052,-8.362915,-3.759723,3.818347,0.094379,-0.036652,0.081245,31.56,67.3915552886098
2062,-8.368299,-3.748955,3.843472,0.105222,-0.061239,0.095906,31.58,67.2590095182033
2072,-8.360522,-3.735795,3.902096,0.114385,-0.082467,0.110719,31.58,66.92003999055
2082,-8.387442,-3.725625,3.929613,0.121409,-0.115759,0.131031,31.57,66.8207706364058
2092,-8.389835,-3.720839,3.966702,0.126449,-0.128434,0.135918,31.59,66.6259432225278
2102,-8.387442,-3.725625,3.997808,0.12538,-0.137292,0.138819,31.59,66.4619600959916
2112,-8.400601,-3.719045,4.0337,0.121562,-0.142942,0.139583,31.52,66.2954047911246
2122,-8.409575,-3.712464,4.076173,0.115148,-0.14615,0.135765,31.52,66.0865249984007
2132,-8.423334,-3.712464,4.097709,0.106901,-0.146455,0.129656,31.54,66.0035929735913
2142,-8.427522,-3.701697,4.14078,0.096059,-0.143859,0.120493,31.54,65.7790625323511
2152,-8.447262,-3.689733,4.158726,0.08323,-0.139277,0.108276,31.58,65.7172068188141
2162,-8.453244,-3.694518,4.184449,0.068417,-0.132405,0.095295,31.58,65.6017942803321
2172,-8.463414,-3.698107,4.192225,0.052534,-0.124922,0.079107,31.52,65.586890151675
2182,-8.469396,-3.680161,4.199404,0.036346,-0.11637,0.06185,31.52,65.5460355440542
2192,-8.488539,-3.680161,4.228716,0.020006,-0.106749,0.043219,31.58,65.436692498184
2202,-8.49452,-3.684349,4.223332,0.002138,-0.098197,0.022755,31.58,65.4810032746982
2212,-8.49452,-3.678965,4.225725,-0.013744,-0.089644,0.003054,31.58,65.4637414829665
2222,-8.49452,-3.69392,4.220341,-0.029169,-0.08094,-0.016799,31.58,65.5052267635494
2232,-8.490931,-3.695116,4.216752,-0.044899,-0.073915,-0.037263,31.59,65.5170478832706
2242,-8.483154,-3.689733,4.188038,-0.057269,-0.067042,-0.055894,31.59,65.6427968267642
2252,-8.463414,-3.705286,4.174878,-0.069028,-0.060934,-0.087965,31.58,65.6828781761834
2262,-8.459227,-3.699304,4.155735,-0.086285,-0.053298,-0.101098,31.59,65.7670692510035
2272,-8.443673,-3.7005,4.144967,-0.091935,-0.050702,-0.112552,31.59,65.7906940820632
2282,-8.416155,-3.706482,4.11745,-0.094379,-0.049786,-0.121257,31.57,65.8802689605211
2292,-8.397013,-3.707081,4.099504,-0.094837,-0.049175,-0.126144,31.57,65.9333916434509
2302,-8.370691,-3.716652,4.086343,-0.09331,-0.048106,-0.129656,31.55,65.9549978775633
2312,-8.347363,-3.710072,4.061816,-0.088728,-0.048258,-0.128587,31.55,66.0273475718925
2322,-8.322835,-3.720241,4.04387,-0.083689,-0.049022,-0.125686,31.56,66.0789239444153
2332,-8.29472,-3.715455,4.042076,-0.075595,-0.049633,-0.119882,31.56,66.0238667048889
2342,-8.277969,-3.71725,4.040879,-0.067042,-0.049633,-0.111941,31.59,65.9960727506137
2352,-8.254042,-3.729214,4.0337,-0.056658,-0.049327,-0.101709,31.59,65.9942362160218
2362,-8.22473,-3.727419,4.042076,-0.045968,-0.047953,-0.088423,31.56,65.8852603266601
2372,-8.212766,-3.736991,4.031906,-0.034972,-0.046426,-0.075136,31.56,65.9226471304117
2382,-8.200802,-3.734,4.033103,-0.023366,-0.043371,-0.058948,31.59,65.8875882623035
2392,-8.184052,-3.724428,4.027719,-0.012981,-0.038485,-0.043677,31.59,65.8705271353404
2402,-8.17448,-3.721437,4.051049,-0.002596,-0.031612,-0.027794,31.57,65.7230603382771
2412,-8.177471,-3.729812,4.060022,0.007636,-0.024587,-0.011301,31.57,65.690337239756
2422,-8.185846,-3.727419,4.085745,0.015882,-0.016035,0.003971,31.53,65.570204304334
2433,-8.204391,-3.714857,4.082754,0.029169,0.003054,0.03146,31.55,65.6140017598083
2442,-8.35813,-3.702893,4.071986,0.034972,0.010079,0.038026,31.55,65.9902640391422
2452,-8.437692,-3.666403,4.100101,0.042608,-0.004429,0.022755,31.56,65.9788706609355
2462,-8.249854,-3.702295,4.133601,0.045815,-0.025198,0.006872,31.56,65.4334585852321
2472,-8.219944,-3.71725,4.14078,0.045815,-0.022907,0.01069,31.54,65.3450697180153
2482,-8.213365,-3.704688,4.13719,0.044593,-0.009774,0.019853,31.54,65.3370059106795
2492,-8.246264,-3.702893,4.160521,0.042608,0.004887,0.027794,31.59,65.2852354881241
2502,-8.286345,-3.706482,4.17069,0.038485,0.017715,0.033445,31.59,65.3234823754512
2512,-8.326425,-3.706482,4.175476,0.035125,0.027642,0.03375,31.59,65.385961193894
2522,-8.338987,-3.70409,4.186243,0.030085,0.035583,0.030391,31.59,65.355069678556
2532,-8.342576,-3.716054,4.188038,0.024893,0.042608,0.025656,31.55,65.3651263098533
2542,-8.330612,-3.720839,4.189833,0.018021,0.050396,0.021838,31.55,65.3344599373783
2552,-8.348558,-3.726223,4.202993,0.010232,0.060018,0.019242,31.57,65.3105178278927
2562,-8.358727,-3.716652,4.197011,0.000764,0.069486,0.015272,31.57,65.3542857445766
2572,-8.374281,-3.713661,4.193422,-0.008399,0.078649,0.012065,31.57,65.4036702088729
2582,-8.385049,-3.728616,4.197609,-0.017868,0.08659,0.006261,31.57,65.4196552489093
2592,-8.402995,-3.728616,4.171886,-0.026267,0.093157,0.000611,31.6,65.5911335946805
2602,-8.404789,-3.733402,4.162315,-0.033292,0.105832,-0.011759,31.6,65.6490022101856
2612,-8.41137,-3.741179,4.152145,-0.04612,0.110414,-0.017562,31.54,65.7230255987022
2622,-8.414959,-3.738187,4.139583,-0.050396,0.113926,-0.023518,31.57,65.7928310556999
2632,-8.409575,-3.745964,4.119244,-0.053756,0.116828,-0.028253,31.57,65.8941189334933
2642,-8.4012,-3.751946,4.11745,-0.056047,0.118966,-0.033292,31.54,65.8913272017206
2652,-8.390432,-3.752544,4.091129,-0.057116,0.121257,-0.035277,31.54,66.0058486999487
2662,-8.383853,-3.751946,4.070191,-0.056658,0.121257,-0.037874,31.56,66.1004470265276
2672,-8.386844,-3.762115,4.062415,-0.054825,0.12034,-0.037721,31.56,66.1568873059531
2682,-8.370093,-3.769294,4.035496,-0.051924,0.11973,-0.036499,31.56,66.2690794284289
2692,-8.368299,-3.754937,4.015156,-0.048869,0.116064,-0.034667,31.56,66.3583080176751
2702,-8.36112,-3.756732,4.00379,-0.043371,0.112705,-0.02978,31.59,66.4045945908033
2712,-8.348558,-3.75733,3.996612,-0.03879,0.10736,-0.025504,31.59,66.4165828076692
2722,-8.34796,-3.779463,3.985246,-0.033598,0.101098,-0.01909,31.59,66.4959481939648
2732,-8.337791,-3.769892,3.964309,-0.028558,0.093768,-0.012675,31.59,66.5759916557764
2742,-8.334201,-3.760919,3.946362,-0.023366,0.084758,-0.005192,31.54,66.6548057599058
2752,-8.346764,-3.773481,3.949952,-0.017562,0.076053,0.003207,31.54,66.6737024217911
2762,-8.346764,-3.765106,3.935595,-0.012523,0.066584,0.011148,31.55,66.7416453027501
2772,-8.368299,-3.768098,3.924827,-0.007941,0.054825,0.027489,31.55,66.8457209046834
2782,-8.615358,-3.750151,3.721437,0.007941,0.032987,0.028863,31.59,68.3935174863389
2792,-8.480762,-3.742973,3.891328,0.036499,0.012523,-0.001222,31.56,67.228513611818
2802,-8.344371,-3.761517,3.936193,0.047037,-0.013134,-0.010232,31.56,66.7301821409451
2812,-8.333005,-3.749553,3.935595,0.049938,-0.024893,0,31.59,66.6985905041499
2822,-8.362316,-3.751946,3.948158,0.052382,-0.035736,0.009927,31.59,66.6952927683226
2832,-8.373085,-3.748357,3.953541,0.054978,-0.047189,0.018631,31.57,66.6859054254673
2842,-8.419745,-3.745964,3.957131,0.056505,-0.058796,0.024129,31.57,66.7612060735577
2852,-8.460423,-3.741179,3.957729,0.059407,-0.07422,0.02306,31.55,66.8372644077869
2862,-8.464012,-3.722036,3.98405,0.062308,-0.093921,0.016799,31.55,66.6896108786059
2872,-8.438289,-3.734,4.00379,0.063377,-0.111941,0.012065,31.56,66.5441829384131
2882,-8.419147,-3.743571,4.008576,0.063377,-0.124617,0.009774,31.56,66.4882413215593
2892,-8.426325,-3.733402,4.025924,0.064446,-0.132405,0.009927,31.59,66.4031507362289
2902,-8.417951,-3.731009,4.05404,0.063683,-0.138972,0.00733,31.59,66.2367545679491
2912,-8.427522,-3.731607,4.070191,0.062308,-0.144011,0.002596,31.55,66.1733031792141
2922,-8.422137,-3.733402,4.097709,0.059712,-0.147829,-0.002443,31.55,66.0206247696859
2932,-8.414959,-3.722634,4.108477,0.056505,-0.149662,-0.008552,31.57,65.9394444834732
2942,-8.395817,-3.71067,4.147958,0.052993,-0.148135,-0.014355,31.57,65.6825648721308
2952,-8.392825,-3.70409,4.168896,0.042913,-0.140499,-0.028863,31.57,65.5614416233119
2962,-8.373085,-3.707081,4.171886,0.036194,-0.13271,-0.036041,31.59,65.5062595136901
2972,-8.346764,-3.706482,4.191627,0.029932,-0.122326,-0.042302,31.59,65.3463749593727
2982,-8.334201,-3.70409,4.204189,0.022907,-0.109498,-0.049175,31.57,65.2516042322057
2992,-8.321639,-3.694518,4.211368,0.016035,-0.095448,-0.05452,31.57,65.1776266573124
3002,-8.291131,-3.686741,4.221537,0.008094,-0.07926,-0.058185,31.62,65.0501894463401
3012,-8.273185,-3.694518,4.21077,0.001527,-0.062156,-0.060934,31.62,65.0741764086254
3022,-8.261818,-3.701099,4.215555,-0.005192,-0.043524,-0.062614,31.56,65.0306869573634
3032,-8.251051,-3.684947,4.208377,-0.011301,-0.024282,-0.062003,31.56,65.028239427877
3042,-8.226524,-3.698706,4.196413,-0.016646,-0.005192,-0.060018,31.6,65.0499616257414
3052,-8.237292,-3.691527,4.191627,-0.021228,0.013744,-0.056963,31.6,65.091660228321
3062,-8.225328,-3.687938,4.171288,-0.023976,0.031765,-0.051618,31.58,65.1679815162161
3072,-8.21157,-3.687938,4.165905,-0.026573,0.049175,-0.046731,31.58,65.1657513585734
3082,-8.221141,-3.690331,4.149753,-0.027336,0.06353,-0.039706,31.57,65.2739621707882
3092,-8.232506,-3.688536,4.135994,-0.027184,0.076664,-0.032223,31.57,65.3693850069165
3102,-8.223534,-3.686741,4.110271,-0.02642,0.08827,-0.023671,31.52,65.4831321287893
3112,-8.239684,-3.692126,4.082156,-0.023366,0.096059,-0.014508,31.52,65.6716872241146
3122,-8.259426,-3.695715,4.062415,-0.020006,0.108276,0.003207,31.59,65.8219652869235
3132,-8.266603,-3.689135,4.046861,-0.011148,0.110261,0.012828,31.57,65.9131097650012
3142,-8.298907,-3.690331,4.036094,-0.006414,0.110108,0.021838,31.57,66.0403466010454
3152,-8.312666,-3.685545,4.03729,-0.001069,0.109039,0.030085,31.56,66.0589191290016
3162,-8.318049,-3.678965,4.025924,0.005192,0.105832,0.038485,31.56,66.1240363641418
3172,-8.333604,-3.676572,4.023531,0.010232,0.101404,0.045662,31.57,66.1675131463383
3182,-8.357532,-3.698107,4.022933,0.015424,0.095906,0.051618,31.57,66.2415749004013
3192,-8.367702,-3.694518,4.034897,0.020617,0.08995,0.05681,31.58,66.1969466416488
3202,-8.376674,-3.699304,4.03729,0.024587,0.084299,0.060476,31.58,66.2078433148929
3212,-8.400003,-3.693322,4.039085,0.027947,0.078038,0.064446,31.53,66.2421140730926
3222,-8.406584,-3.702893,4.049254,0.029627,0.071929,0.065057,31.53,66.2117085584346
3232,-8.404191,-3.695116,4.070191,0.031307,0.066126,0.064752,31.54,66.0901543688662
3242,-8.420941,-3.697509,4.082156,0.030696,0.06185,0.06353,31.54,66.0654826961471
3252,-8.422735,-3.701697,4.088736,0.030391,0.059559,0.060476,31.57,66.0389373884294
3262,-8.438289,-3.692126,4.102495,0.027794,0.057116,0.055589,31.57,65.9914931657876
3272,-8.435897,-3.703491,4.113262,0.023671,0.055436,0.050855,31.54,65.9411190450642
3282,-8.441879,-3.70409,4.14078,0.01909,0.056505,0.044288,31.54,65.8118766382007
3292,-8.43111,-3.706482,4.13719,0.013592,0.058643,0.02642,31.53,65.8097711374755
3302,-8.446664,-3.702893,4.145566,-0.00168,0.065668,0.015119,31.57,65.7961959724605
3312,-8.453244,-3.708875,4.133601,-0.010079,0.07086,0.003665,31.57,65.8775923102526
3322,-8.446664,-3.713661,4.141976,-0.018479,0.076053,-0.007789,31.54,65.824798911139
3332,-8.440084,-3.716054,4.135994,-0.027489,0.081245,-0.021075,31.54,65.8439911722027
3342,-8.446664,-3.717848,4.133601,-0.036499,0.084758,-0.034972,31.54,65.8720024133028
3352,-8.452645,-3.711866,4.110869,-0.044899,0.088728,-0.047037,31.54,65.9967352405026
3362,-8.459227,-3.729812,4.095914,-0.052382,0.090713,-0.060476,31.58,66.1046931754537
3372,-8.453843,-3.726223,4.084548,-0.06017,0.091477,-0.071777,31.58,66.1489913093992
3382,-8.462217,-3.743571,4.061816,-0.067653,0.090103,-0.082314,31.57,66.3004976463316
3392,-8.465208,-3.745964,4.018745,-0.073457,0.086132,-0.092088,31.57,66.5328633578229
3402,-8.450253,-3.749553,4.001996,-0.076969,0.080176,-0.100182,31.56,66.5925709241741
3412,-8.446067,-3.735795,3.989433,-0.080787,0.071319,-0.10736,31.56,66.6369647839925
3422,-8.446664,-3.750151,3.956532,-0.083689,0.059559,-0.111636,31.5,66.8234839676288
3432,-8.428718,-3.761517,3.936193,-0.083841,0.045204,-0.114385,31.5,66.9037905286014
3442,-8.791829,-3.636492,3.464209,-0.066584,0.035277,-0.129045,31.59,69.9929964496675
3452,-8.350951,-3.767499,3.88714,-0.016035,0.03543,-0.171042,31.59,67.0088552656747
3462,-8.371889,-3.762115,3.856632,-0.01069,0.020464,-0.164628,31.56,67.2084322903848
3472,-8.34796,-3.769294,3.865605,-0.00504,-0.017257,-0.13943,31.57,67.1186313167229
3482,-8.346764,-3.772285,3.844069,-0.001222,-0.038485,-0.123853,31.57,67.2333916050089
3492,-8.349156,-3.778267,3.845864,0.00336,-0.059712,-0.10797,31.55,67.2342110749258
3502,-8.330612,-3.775874,3.847659,0.009316,-0.081551,-0.090103,31.55,67.1847035640691
3512,-8.321639,-3.776472,3.844668,0.015882,-0.102778,-0.073304,31.55,67.1828775697862
3522,-8.319845,-3.757928,3.865007,0.022449,-0.1237,-0.054672,31.55,67.0537221822834
3532,-8.328219,-3.778865,3.875176,0.030085,-0.142942,-0.038485,31.57,67.0362798847712
3542,-8.313862,-3.768098,3.885944,0.037415,-0.160505,-0.020922,31.57,66.939536691364
3552,-8.330612,-3.756134,3.904488,0.044135,-0.177304,-0.004581,31.56,66.8645021202135
3562,-8.317451,-3.763312,3.928416,0.052229,-0.190437,0.009316,31.56,66.717175172631
3572,-8.318049,-3.756134,3.9673,0.059407,-0.201738,0.021686,31.59,66.5060489296727
3582,-8.304291,-3.760321,3.99063,0.066126,-0.208916,0.034361,31.59,66.3580434956329
3592,-8.309077,-3.748357,4.028317,0.072846,-0.212734,0.044899,31.56,66.1582526223395
3602,-8.3013,-3.745964,4.061218,0.079565,-0.212123,0.053145,31.56,65.9665929560831
3612,-8.283354,-3.736392,4.09412,0.084147,-0.208152,0.060018,31.55,65.7463312675323
3622,-8.289336,-3.732205,4.128217,0.088728,-0.201433,0.065668,31.55,65.5767324507593
3632,-8.272586,-3.728018,4.189234,0.091477,-0.189063,0.069333,31.56,65.217949157446
3642,-8.267202,-3.732205,4.213162,0.094073,-0.156076,0.072388,31.56,65.0858423118437
3652,-8.256434,-3.722634,4.248456,0.095295,-0.135154,0.073304,31.63,64.8693322246986
3662,-8.246264,-3.713063,4.261617,0.094837,-0.111941,0.072082,31.56,64.7689087217676
3672,-8.258827,-3.709473,4.290331,0.093004,-0.086896,0.07086,31.56,64.6447057372871
3682,-8.258228,-3.699902,4.307679,0.089339,-0.058948,0.069639,31.58,64.5441542277419
3692,-8.248658,-3.696313,4.321437,0.085521,-0.030238,0.067653,31.58,64.4480394984769
3702,-8.252247,-3.692724,4.326822,0.079718,-0.000611,0.06353,31.58,64.4247267476461
3712,-8.246863,-3.688536,4.331009,0.072998,0.028711,0.061392,31.58,64.3867722138992
3722,-8.266006,-3.680759,4.328018,0.064446,0.057269,0.057421,31.56,64.4375200135749
3732,-8.262416,-3.684947,4.333402,0.055436,0.085674,0.051618,31.56,64.4058977589913
3742,-8.289336,-3.68734,4.324429,0.04612,0.113163,0.046578,31.55,64.5149910110981
3752,-8.306085,-3.692126,4.316054,0.036805,0.138972,0.041081,31.55,64.6002984288022
3762,-8.34138,-3.679563,4.295715,0.025045,0.161727,0.033292,31.59,64.7710437963457
3772,-8.342576,-3.680759,4.279563,0.013439,0.18158,0.024282,31.59,64.8579787467078
3782,-8.369495,-3.69392,4.260421,0.002443,0.198837,0.015119,31.55,65.0285825069925
3792,-8.393424,-3.692126,4.22752,-0.008247,0.212428,0.006567,31.55,65.248548808787
3802,-8.407781,-3.68375,4.170092,-0.018937,0.223119,-0.004123,31.54,65.568192402186
3812,-8.4347,-3.690331,4.140181,-0.027947,0.229838,-0.026114,31.54,65.7868449884704
3822,-8.435298,-3.687938,4.104887,-0.043371,0.233045,-0.035888,31.57,65.9688540837392
3832,-8.447262,-3.697509,4.066004,-0.050091,0.228616,-0.045509,31.59,66.2050183317503
3842,-8.460423,-3.696313,4.036692,-0.054214,0.221897,-0.054672,31.59,66.3840849791093
3852,-8.452645,-3.7005,4.006782,-0.056658,0.211054,-0.06353,31.59,66.5277427100227
3862,-8.464012,-3.698706,3.983452,-0.057727,0.198226,-0.06918,31.59,66.6716272089594
3872,-8.460423,-3.7005,3.954738,-0.057421,0.182496,-0.072998,31.57,66.816208303211
3882,-8.442476,-3.697509,3.929015,-0.055131,0.164323,-0.076969,31.57,66.9117150743743
3892,-8.437093,-3.702893,3.913461,-0.051618,0.14447,-0.078649,31.56,66.9873952529528
3902,-8.4347,-3.708875,3.891328,-0.047495,0.124311,-0.079565,31.56,67.1045730646765
3912,-8.425727,-3.719643,3.882953,-0.041692,0.103236,-0.076969,31.56,67.1401684617575
3922,-8.425727,-3.71725,3.881158,-0.035125,0.081398,-0.071929,31.56,67.1474993666756
3932,-8.408977,-3.716652,3.876373,-0.028405,0.060781,-0.068417,31.56,67.1381099468215
3942,-8.38804,-3.718446,3.875176,-0.020006,0.039859,-0.062461,31.56,67.1032894614235
3952,-8.386844,-3.716652,3.88056,-0.011912,0.020464,-0.054978,31.57,67.0706852213519
3962,-8.388638,-3.718446,3.88714,-0.004581,0.003512,-0.048411,31.57,67.041144544643
3972,-8.372486,-3.707679,3.904488,0.001985,-0.012828,-0.040928,31.6,66.9062545192856
3982,-8.366504,-3.709473,3.921836,0.007789,-0.027642,-0.033139,31.6,66.8037230788186
3992,-8.368299,-3.714259,3.951149,0.016952,-0.049938,-0.01909,31.57,66.6570170357548
4002,-8.37129,-3.694518,3.967898,0.021075,-0.057574,-0.01237,31.6,66.5567128703893
4012,-8.36112,-3.705286,3.981657,0.023213,-0.064294,-0.007789,31.6,66.4728994996514
4022,-8.362915,-3.696911,4.001398,0.024282,-0.06918,-0.002596,31.62,66.3649887806313
4032,-8.36471,-3.693322,4.018147,0.023824,-0.072693,-0.000764,31.62,66.2774061392235
4042,-8.36112,-3.694518,4.02413,0.022755,-0.074067,0.002443,31.58,66.2395197417153
4052,-8.36471,-3.691527,4.045665,0.020922,-0.073915,0.004123,31.58,66.1313638379764
4062,-8.377871,-3.691527,4.055236,0.018326,-0.072998,0.004123,31.58,66.10916371741
4072,-8.380861,-3.699304,4.057629,0.013897,-0.071319,0.003971,31.58,66.1102556127642
4082,-8.376076,-3.703491,4.063013,0.009468,-0.069791,0.001527,31.59,66.0758860662072
4092,-8.385648,-3.705286,4.071986,0.003971,-0.067653,-0.000305,31.59,66.0509979404431
4102,-8.401799,-3.703491,4.067201,-0.000611,-0.065821,-0.000305,31.56,66.1084903472545
4112,-8.379665,-3.703491,4.068995,-0.005345,-0.064752,-0.004734,31.56,66.0522415232979
4122,-8.382656,-3.702893,4.06062,-0.011148,-0.063835,-0.006872,31.59,66.1017805072698
4132,-8.400003,-3.71067,4.06062,-0.016035,-0.064446,-0.008858,31.59,66.1457263840785
4142,-8.389236,-3.726223,4.072584,-0.020311,-0.065515,-0.011454,31.59,66.0751175796279
4152,-8.386245,-3.735795,4.051647,-0.024129,-0.067501,-0.012523,31.59,66.187068231384
4162,-8.388638,-3.722634,4.048656,-0.029474,-0.073762,-0.015119,31.61,66.1954098391061
4172,-8.398808,-3.742374,4.035496,-0.030849,-0.077733,-0.014813,31.58,66.3039848229713
4182,-8.38804,-3.739383,4.044468,-0.032834,-0.082161,-0.014355,31.58,66.2317146415059
4192,-8.38146,-3.735795,4.040879,-0.033445,-0.088575,-0.014661,31.58,66.2332779894752
4202,-8.367702,-3.745964,4.03729,-0.033292,-0.093157,-0.013744,31.58,66.2326692809523
4212,-8.376674,-3.736392,4.038486,-0.033445,-0.098502,-0.013286,31.57,66.2362874492364
4222,-8.373085,-3.746562,4.056432,-0.032529,-0.103389,-0.011606,31.57,66.1444692468074
4232,-8.367103,-3.746562,4.052843,-0.031612,-0.108123,-0.009927,31.56,66.1506094951173
4242,-8.368897,-3.741179,4.067799,-0.030085,-0.109803,-0.008094,31.56,66.0711665721092
4252,-8.346764,-3.747759,4.082754,-0.028711,-0.111025,-0.00672,31.58,65.9523848818573
4262,-8.333005,-3.745964,4.086941,-0.027642,-0.111636,-0.003818,31.58,65.899503090395
4272,-8.322237,-3.744169,4.103093,-0.02642,-0.108276,-0.001833,31.57,65.7903891327706
4282,-8.312666,-3.743571,4.116253,-0.024587,-0.103694,0.001527,31.57,65.7005627058682
4292,-8.297711,-3.747759,4.131208,-0.022755,-0.097433,0.004581,31.59,65.5943662535386
4302,-8.291131,-3.755535,4.147958,-0.021075,-0.088423,0.008705,31.59,65.5003893851509
4312,-8.279764,-3.754339,4.148556,-0.019395,-0.077122,0.012217,31.59,65.4714788858795
4322,-8.265409,-3.735196,4.176672,-0.017562,-0.06353,0.016188,31.59,65.2747573840696
4332,-8.255836,-3.747759,4.18086,-0.015577,-0.033139,0.024129,31.62,65.2444374734536
4342,-8.255836,-3.745964,4.191029,-0.013134,-0.015882,0.027336,31.58,65.1896809848072
4352,-8.250452,-3.738187,4.198806,-0.011454,0.002902,0.031307,31.58,65.1296265373602
4362,-8.250452,-3.739982,4.211967,-0.010079,0.02138,0.034208,31.56,65.0629307455712
4372,-8.257631,-3.74058,4.21077,-0.008705,0.04047,0.036499,31.56,65.0855522881367
4382,-8.269596,-3.734598,4.20718,-0.00672,0.059407,0.038637,31.54,65.1245637228601
4392,-8.279166,-3.722634,4.19402,-0.00672,0.077885,0.03879,31.54,65.2021546936032
4402,-8.294122,-3.725027,4.191029,-0.006567,0.094837,0.039554,31.55,65.2527924883837
4412,-8.299506,-3.734598,4.183851,-0.006414,0.110567,0.038026,31.55,65.3112355445985
4422,-8.319246,-3.724428,4.168896,-0.006109,0.125227,0.036194,31.58,65.4219671247673
4434,-8.337791,-3.739383,4.159324,-0.006567,0.137445,0.032987,31.58,65.526328651621
4442,-8.355139,-3.719643,4.146762,-0.007941,0.148746,0.030391,31.56,65.6099662740496
4452,-8.373683,-3.727419,4.128217,-0.010232,0.157145,0.026267,31.56,65.7535490264195
4462,-8.383254,-3.717848,4.119842,-0.011606,0.162796,0.020159,31.55,65.8084432896656
4472,-8.395219,-3.725027,4.099504,-0.013439,0.166766,0.015272,31.55,65.9464534278214
4482,-8.411968,-3.718446,4.078567,-0.016341,0.167683,0.008858,31.53,66.0846948475205
4492,-8.422137,-3.71725,3.707679,-0.019242,0.165239,0.002138,31.53,68.0630784171669
4502,-8.518449,-3.64726,3.947559,-0.018937,0.163712,-0.051465,31.53,66.9256527615606
4512,-8.42453,-3.728616,4.006782,0.03879,0.17089,-0.071624,31.57,66.4950208727179
4522,-8.396414,-3.720839,4.006782,0.034208,0.163559,-0.07086,31.57,66.4292103880868
4532,-8.432905,-3.717848,4.005585,0.029627,0.154396,-0.070097,31.59,66.5088061555786
4542,-8.421539,-3.713661,3.968496,0.026573,0.142942,-0.069333,31.59,66.6757031870105
4552,-8.420342,-3.714259,3.963711,0.021991,0.129809,-0.068722,31.62,66.6988942734445
4562,-8.42453,-3.716652,3.940381,0.018021,0.114232,-0.068264,31.62,66.8323277991463
4572,-8.432905,-3.723232,3.939782,0.014661,0.097891,-0.067653,31.55,66.8586775009827
4582,-8.435298,-3.717848,3.924229,0.011759,0.080176,-0.067195,31.55,66.9405027512344
4592,-8.42812,-3.721437,3.916452,0.00901,0.063072,-0.064446,31.56,66.9699813082838
4602,-8.4347,-3.715455,3.919443,0.00672,0.044899,-0.063072,31.56,66.9623061001299
4612,-8.416155,-3.716652,3.906881,0.005498,0.026573,-0.062003,31.57,66.9915919255264
4622,-8.423334,-3.722036,3.915256,0.005345,0.00901,-0.058948,31.57,66.967019155453
4632,-8.404191,-3.715455,3.917051,0.004581,-0.007483,-0.055283,31.61,66.9122786241809
4642,-8.394022,-3.712464,3.913461,0.004123,-0.023976,-0.052534,31.61,66.907576236155
4652,-8.398808,-3.720839,3.921836,0.005345,-0.039248,-0.048411,31.61,66.8808572780178
4662,-8.392226,-3.721437,3.924229,0.007789,-0.052382,-0.044135,31.61,66.8552140380685
4672,-8.36471,-3.708277,3.934997,0.009621,-0.07758,-0.032376,31.58,66.7293199866955
4682,-8.357532,-3.708277,3.940381,0.016952,-0.087812,-0.025198,31.58,66.6859385834128
4692,-8.353344,-3.708277,3.955336,0.021228,-0.096669,-0.019395,31.57,66.598205865053
4702,-8.330612,-3.715455,3.955934,0.02642,-0.104611,-0.011759,31.52,66.5541863102654
4712,-8.332406,-3.703491,3.978068,0.032223,-0.111025,-0.003971,31.52,66.429838773805
4722,-8.327023,-3.708875,3.995416,0.037568,-0.115759,0.00336,31.57,66.3320194358529
4732,-8.330013,-3.702893,4.004389,0.043677,-0.118966,0.011148,31.57,66.2854202236512
4742,-8.328219,-3.698706,4.026522,0.048717,-0.12034,0.018937,31.6,66.1611546854754
4752,-8.334201,-3.698107,4.040879,0.05452,-0.121562,0.025656,31.6,66.0978412213696
4762,-8.336594,-3.698706,4.063612,0.059254,-0.120951,0.031307,31.56,65.984227993575
4772,-8.337791,-3.699304,4.076771,0.062614,-0.118661,0.03543,31.56,65.9184180723917
4782,-8.325827,-3.690331,4.092923,0.066737,-0.115454,0.039401,31.57,65.7996710422485
4792,-8.34796,-3.699902,4.118048,0.069028,-0.11133,0.041997,31.57,65.7251257273045
4802,-8.350951,-3.701099,4.133601,0.071166,-0.105374,0.043677,31.54,65.6516679878981
4812,-8.355738,-3.699902,4.147958,0.070555,-0.098197,0.043371,31.54,65.5861517167032
4822,-8.367103,-3.702893,4.158128,0.069486,-0.090255,0.041997,31.56,65.560698303483
4832,-8.370691,-3.689135,4.177869,0.067959,-0.080634,0.038637,31.56,65.4529385333731
4842,-8.355139,-3.696911,4.207779,0.064752,-0.069791,0.034361,31.61,65.2717352810944
4852,-8.373683,-3.699304,4.205984,0.060781,-0.045051,0.021991,31.61,65.3236595829138
4862,-8.365308,-3.704688,4.218546,0.049175,-0.032681,0.013744,31.56,65.2457277949834
4872,-8.365907,-3.714259,4.221537,0.041997,-0.019853,0.004734,31.55,65.2408260563842
4882,-8.38445,-3.720241,4.22393,0.034667,-0.006261,-0.004429,31.55,65.2745359880914
4892,-8.379665,-3.724428,4.221537,0.026267,0.007483,-0.014661,31.58,65.2805250551856
4902,-8.380263,-3.725625,4.217948,0.018479,0.02138,-0.023824,31.58,65.3014802634297
4912,-8.371889,-3.729214,4.209573,0.009621,0.034208,-0.034208,31.55,65.3300091675189
4922,-8.376076,-3.711268,4.21077,0.001985,0.046884,-0.043219,31.55,65.3156222407956
4932,-8.369495,-3.734,4.197011,-0.006261,0.059865,-0.052534,31.57,65.3943314354258
4942,-8.362316,-3.736991,4.173681,-0.013744,0.06918,-0.062156,31.57,65.502428110927
4952,-8.347363,-3.742374,4.16411,-0.020464,0.07926,-0.069639,31.56,65.5250136726786
4962,-8.35155,-3.741179,4.149753,-0.027184,0.08827,-0.077427,31.56,65.6073946310022
4972,-8.362915,-3.742973,4.135396,-0.031918,0.096517,-0.083078,31.54,65.7080635017556
4982,-8.358727,-3.746562,4.118646,-0.037263,0.101862,-0.08827,31.54,65.7896324271447
4992,-8.342576,-3.754339,4.096512,-0.040012,0.106749,-0.091783,31.58,65.877955844719
5002,-8.34796,-3.745365,4.078567,-0.042302,0.109192,-0.09331,31.58,65.9745124927403
5012,-8.343175,-3.75075,4.04746,-0.043066,0.110261,-0.094837,31.6,66.1322193607147
5022,-8.336594,-3.744169,4.028317,-0.041997,0.109345,-0.092393,31.6,66.2124533603149
5032,-8.344969,-3.742374,4.022933,-0.037874,0.104763,-0.088881,31.56,66.2566782890649
5042,-8.349156,-3.751946,3.997808,-0.034667,0.100029,-0.083689,31.58,66.4064790282326
5052,-8.337791,-3.747759,3.982255,-0.030085,0.094379,-0.077733,31.58,66.4605902649471
5062,-8.340183,-3.74716,3.969693,-0.024587,0.087354,-0.07025,31.55,66.5312336543833
5072,-8.338987,-3.731607,3.962514,-0.018784,0.080176,-0.062461,31.55,66.5520405946288
5082,-8.328817,-3.726223,3.955336,-0.011606,0.07254,-0.052382,31.52,66.5636576581369
5092,-8.325827,-3.731607,3.959523,-0.00504,0.06521,-0.042608,31.52,66.5403164791406
5102,-8.309077,-3.729812,3.958327,0.001985,0.056658,-0.032223,31.55,66.5098561181132
5112,-8.328817,-3.732205,3.954139,0.009774,0.048106,-0.020464,31.55,66.5755846811714
5122,-8.31446,-3.722634,3.961318,0.016493,0.040164,-0.009468,31.56,66.4985762674462
5132,-8.325827,-3.728018,3.969693,0.024129,0.033598,0.001069,31.56,66.4832232873669
5142,-8.324032,-3.70409,3.973282,0.030391,0.027642,0.01237,31.55,66.4380497668104
5152,-8.322237,-3.711866,3.97747,0.036041,0.021686,0.023213,31.55,66.41944048198
5162,-8.330612,-3.709473,3.987041,0.041539,0.015882,0.032223,31.57,66.3843164435693
5172,-8.339585,-3.698706,3.996612,0.045357,0.011912,0.039859,31.57,66.3426893453205
5182,-8.340183,-3.7005,4.009174,0.049175,0.008399,0.047953,31.55,66.279478823277
5192,-8.362915,-3.691527,4.036692,0.051771,0.005192,0.054367,31.55,66.1746013311975
5202,-8.361719,-3.68734,4.043272,0.053298,0.002596,0.062308,31.59,66.1336411612254
5212,-8.378469,-3.68375,4.051647,0.052229,0.002443,0.064752,31.57,66.1219535813683
5222,-8.374879,-3.683152,4.070191,0.049786,0.002596,0.064904,31.57,66.0167602948477
5232,-8.383853,-3.673581,4.069593,0.046884,0.003971,0.062766,31.55,66.0300451351825
5242,-8.389835,-3.692724,4.077968,0.042302,0.004123,0.060018,31.55,66.0169069901937
5252,-8.405987,-3.686144,4.085745,0.037874,0.005956,0.056505,31.59,66.0045286388936
5262,-8.426923,-3.683152,4.098307,0.031918,0.007941,0.051007,31.59,65.9808269385927
5272,-8.430512,-3.689135,4.093522,0.025351,0.009316,0.045662,31.59,66.0188560187074
5282,-8.415558,-3.686144,4.089334,0.019548,0.010232,0.038637,31.59,66.0061582293759
5292,-8.4347,-3.690929,4.080361,0.012981,0.011301,0.03207,31.58,66.0978060808804
5302,-8.425129,-3.694518,4.08754,0.00672,0.011759,0.023671,31.58,66.0435544746473
5312,-8.450253,-3.698107,4.089334,0.000305,0.011454,0.01573,31.62,66.0906263261617
5322,-8.439486,-3.696313,4.063013,-0.005651,0.009316,0.006567,31.62,66.2031364959233
5332,-8.443074,-3.698107,4.054638,-0.01069,0.007025,-0.000611,31.57,66.2559354307393
5342,-8.441879,-3.71067,4.055236,-0.016188,0.002902,-0.00733,31.57,66.2618763220161
5352,-8.436494,-3.716652,4.050451,-0.020464,-0.001222,-0.014508,31.55,66.2810286669911
5362,-8.436494,-3.715455,4.027719,-0.023518,-0.006872,-0.020922,31.55,66.3984562351125
5372,-8.43111,-3.720839,4.028317,-0.02642,-0.020769,-0.030391,31.54,66.3890517919271
5382,-8.425727,-3.713063,4.016353,-0.029474,-0.029627,-0.035277,31.55,66.4331583719031
5392,-8.413164,-3.720839,3.999603,-0.028711,-0.038179,-0.038026,31.55,66.501777403967
5402,-8.411968,-3.719643,3.998407,-0.029016,-0.047189,-0.040775,31.57,66.5044500456347
5412,-8.41436,-3.718446,4.001996,-0.027794,-0.054978,-0.042608,31.57,66.4895314221259
5422,-8.402397,-3.723232,4.015156,-0.025962,-0.063683,-0.043371,31.55,66.4000728311956
5432,-8.396414,-3.73041,4.01396,-0.024587,-0.07254,-0.045357,31.55,66.4004843786433
5442,-8.394022,-3.731607,4.008576,-0.022144,-0.079718,-0.044899,31.57,66.4247986349052
5452,-8.373683,-3.726223,4.019344,-0.019548,-0.085979,-0.044593,31.57,66.3207346298195
5462,-8.366504,-3.72383,4.021138,-0.017104,-0.091172,-0.044746,31.56,66.2939945037023
5472,-8.368299,-3.724428,4.039085,-0.014203,-0.095448,-0.043677,31.56,66.2042760402576
5482,-8.350951,-3.724428,4.058227,-0.01237,-0.097586,-0.042761,31.58,66.0673448730902
5492,-8.335398,-3.719643,4.063013,-0.009621,-0.098349,-0.040928,31.58,66.0046807829798
5502,-8.337791,-3.723232,4.082754,-0.007941,-0.097128,-0.038179,31.56,65.9098719629004
5512,-8.32463,-3.725625,4.092923,-0.006109,-0.093462,-0.036194,31.56,65.8308403293935
5522,-8.309675,-3.716054,4.097709,-0.004429,-0.087812,-0.034208,31.58,65.7645137289997
5532,-8.294122,-3.707679,4.122834,-0.003971,-0.080634,-0.031918,31.58,65.5914106290257
5542,-8.288737,-3.720241,4.138387,-0.002596,-0.071319,-0.026114,31.59,65.5106522730179
5552,-8.283354,-3.719045,4.150351,-0.002138,-0.0478,-0.023976,31.54,65.4353192904296
5562,-8.273185,-3.71725,4.156333,-0.001833,-0.03375,-0.021533,31.54,65.3801727058589
5572,-8.276175,-3.717848,4.162315,-0.002291,-0.018784,-0.020159,31.57,65.356066038557
5582,-8.286345,-3.708277,4.167699,-0.002443,-0.003818,-0.017868,31.57,65.3408268181304
5592,-8.282157,-3.715455,4.163511,-0.003054,0.012217,-0.015577,31.58,65.3605403115159
5602,-8.287541,-3.711268,4.179065,-0.003818,0.028863,-0.013286,31.58,65.2871530258531
5612,-8.289336,-3.726223,4.1671,-0.003512,0.043371,-0.012217,31.57,65.3680310723572
5622,-8.292925,-3.725027,4.162913,-0.003971,0.058338,-0.010232,31.57,65.3964879208246
5632,-8.318049,-3.725625,4.150351,-0.004887,0.071624,-0.010232,31.56,65.5170169633446
5642,-8.319845,-3.726223,4.140181,-0.005956,0.083994,-0.009621,31.56,65.574449331197
5652,-8.316854,-3.719643,4.133003,-0.006414,0.093921,-0.008858,31.6,65.5990479585837
5662,-8.333604,-3.713063,4.125825,-0.007178,0.102778,-0.008705,31.6,65.6662696774612
5672,-8.335996,-3.719643,4.106084,-0.00733,0.108276,-0.007789,31.53,65.7807074217103
5682,-8.348558,-3.716652,4.077968,-0.008094,0.112552,-0.00733,31.53,65.9516072873999
5692,-8.359326,-3.721437,4.068995,-0.008858,0.114537,-0.008094,31.54,66.0259630241636
5702,-8.368897,-3.722036,4.03729,-0.008705,0.114079,-0.007483,31.54,66.2126935633233
5712,-8.374879,-3.728018,4.031308,-0.009774,0.11133,-0.005498,31.57,66.2622352517447
5722,-8.373683,-3.728616,4.018745,-0.01069,0.102473,-0.002443,31.57,66.3261123980875
5732,-8.389236,-3.736991,4.006782,-0.011454,0.094837,-0.001222,31.57,66.4292068369613
5742,-8.393424,-3.725027,3.988835,-0.011912,0.086132,0.000764,31.64,66.5209790825091
5752,-8.385049,-3.716054,3.989433,-0.013744,0.076205,0.002749,31.64,66.4920609392511
5762,-8.387442,-3.735196,3.971487,-0.014508,0.065515,0.005192,31.6,66.6090660770026
5772,-8.392825,-3.724428,3.979862,-0.014508,0.054214,0.007789,31.6,66.566295547707
5782,-8.394022,-3.727419,3.976273,-0.016493,0.042913,0.011148,31.57,66.5904012204509
5792,-8.394022,-3.729214,3.97747,-0.016035,0.031765,0.013897,31.57,66.5857704012953
5802,-8.39821,-3.71725,3.981657,-0.017257,0.019853,0.016646,31.58,66.561454873744
5812,-8.39462,-3.720241,3.981059,-0.018479,0.009316,0.019242,31.58,66.5598792842908
5822,-8.383853,-3.723232,3.986442,-0.019242,-0.001527,0.020922,31.57,66.5119254103573
5832,-8.397013,-3.713063,3.993621,-0.018631,-0.010996,0.021991,31.57,66.4922918431623
5842,-8.405388,-3.723232,3.996612,-0.018479,-0.018479,0.023824,31.55,66.5034577364865
5852,-8.401799,-3.721437,4.0008,-0.018173,-0.025656,0.025045,31.55,66.4723643812683
5862,-8.398808,-3.714259,4.027121,-0.018021,-0.031918,0.026878,31.58,66.3216094282967
5872,-8.379066,-3.708875,4.019344,-0.017104,-0.035888,0.027642,31.58,66.3158658147412
5882,-8.385648,-3.713063,4.046861,-0.015424,-0.039859,0.027794,31.55,66.1895427078802
5892,-8.377871,-3.71067,4.060022,-0.013134,-0.042455,0.027489,31.55,66.1020572322096
5902,-8.383853,-3.701099,4.063612,-0.010843,-0.041844,0.027184,31.6,66.0870037055968
5912,-8.382057,-3.705286,4.070191,-0.00901,-0.040164,0.025656,31.57,66.052753195833
5922,-8.377273,-3.714857,4.076173,-0.006872,-0.037568,0.024435,31.57,66.0203632045386
5932,-8.388638,-3.711268,4.079762,-0.005956,-0.034819,0.022449,31.59,66.0223789922985
5942,-8.383254,-3.699304,4.088138,-0.004429,-0.030543,0.020769,31.59,65.9560285846886
5952,-8.391031,-3.701099,4.09053,-0.002443,-0.025656,0.018631,31.6,65.9617901474038
5962,-8.382656,-3.701697,4.106682,-0.001222,-0.021686,0.014661,31.6,65.8603761758861
5972,-8.386844,-3.710072,4.089932,-0.001222,-0.017257,0.011301,31.52,65.9644313471331
5982,-8.39821,-3.720241,4.093522,-0.001833,-0.013744,0.00733,31.52,65.9794218572411
5992,-8.391629,-3.713661,4.092923,-0.002596,-0.009468,0.001833,31.56,65.962390550106
6002,-8.389835,-3.720241,4.095316,-0.003207,-0.005651,-0.002443,31.56,65.9523107303492
6012,-8.389835,-3.710072,4.092325,-0.004734,-0.003054,-0.006872,31.58,65.958320299721
6022,-8.400003,-3.717848,4.073183,-0.006414,-0.000764,-0.01069,31.58,66.0869061583136
6032,-8.39821,-3.71725,4.080361,-0.008858,-0.000305,-0.015119,31.58,66.0451472039641
6042,-8.392226,-3.714259,4.062415,-0.010537,-0.000764,-0.018784,31.58,66.1232839800564
6052,-8.401799,-3.722036,4.040879,-0.013439,-0.002138,-0.023213,31.6,66.263179604016
6062,-8.402995,-3.720241,4.039085,-0.015882,-0.007636,-0.029016,31.6,66.2733956793868
6072,-8.393424,-3.721437,4.041477,-0.020769,-0.012065,-0.031001,31.56,66.2418913922271
6082,-8.39462,-3.72383,4.028915,-0.023213,-0.018021,-0.032529,31.56,66.3123298747804
6092,-8.383853,-3.725027,4.016353,-0.025198,-0.02474,-0.034361,31.56,66.3566412117181
6102,-8.386245,-3.720839,4.004987,-0.02642,-0.030849,-0.03375,31.57,66.41735077331
6112,-8.385049,-3.725027,4.013362,-0.028711,-0.03879,-0.034972,31.57,66.374824820757
6122,-8.377871,-3.716054,4.010371,-0.029322,-0.047342,-0.034819,31.53,66.3671053785893
6132,-8.374879,-3.731607,4.004987,-0.030391,-0.054672,-0.034667,31.53,66.4035795085179
6142,-8.371889,-3.722036,4.00738,-0.030696,-0.062308,-0.034361,31.55,66.3758243096993
6152,-8.373683,-3.718446,4.017549,-0.032223,-0.069486,-0.033903,31.55,66.3228831902019
6162,-8.382057,-3.721437,4.018745,-0.031307,-0.074831,-0.033292,31.55,66.3369918618241
6172,-8.359326,-3.711268,4.031308,-0.031918,-0.080023,-0.032529,31.55,66.2137390898455
6182,-8.348558,-3.718446,4.04387,-0.031918,-0.083383,-0.03146,31.59,66.1318309244054
6192,-8.346166,-3.70409,4.052245,-0.03207,-0.085216,-0.031001,31.59,66.069298001945
6202,-8.327023,-3.718446,4.056432,-0.030849,-0.084605,-0.029016,31.6,66.0202021267067
6212,-8.321041,-3.709473,4.077968,-0.029322,-0.082161,-0.027031,31.6,65.8859768260387
6222,-8.315059,-3.704688,4.100101,-0.030543,-0.078343,-0.025809,31.61,65.7526642799756
6232,-8.286345,-3.686741,4.109075,-0.030238,-0.072388,-0.018937,31.61,65.6263394719824
6242,-8.291729,-3.7005,4.12044,-0.028558,-0.055131,-0.016188,31.6,65.5917970063063
6252,-8.285748,-3.694518,4.134798,-0.026725,-0.044593,-0.010996,31.55,65.4978993008109
6262,-8.28156,-3.692126,4.141976,-0.025656,-0.032834,-0.00672,31.55,65.4489183328826
6272,-8.266603,-3.698107,4.145566,-0.025045,-0.019242,-0.001069,31.58,65.4033191442553
6282,-8.262416,-3.703491,4.155136,-0.023976,-0.005192,0.004734,31.58,65.349393797348
6292,-8.261221,-3.697509,4.152145,-0.021838,0.00901,0.010537,31.54,65.3565496094436
6302,-8.266006,-3.694518,4.156931,-0.02138,0.023213,0.017104,31.54,65.3390782940153
6312,-8.268997,-3.701697,4.145566,-0.019395,0.03711,0.023213,31.57,65.4120596903442
6322,-8.273185,-3.703491,4.142574,-0.018937,0.05116,0.028405,31.57,65.4385985328254
6332,-8.283354,-3.698107,4.155136,-0.018173,0.064446,0.03375,31.59,65.3899042315233
6342,-8.301898,-3.699304,4.13719,-0.015577,0.076205,0.040012,31.59,65.5251475499494
6352,-8.305488,-3.702295,4.126423,-0.014203,0.087354,0.044899,31.58,65.592063737522
6362,-8.320443,-3.710072,4.126423,-0.013286,0.096211,0.050091,31.58,65.6318967283336
6372,-8.460423,-3.710072,3.99721,-0.011912,0.103694,0.053451,31.59,66.6025802650638
6382,-8.483753,-3.711268,4.006782,0.010537,0.10064,0.0281,31.59,66.6019660572252
6392,-8.343773,-3.73041,4.095316,0.024893,0.099113,0.011301,31.61,65.8638570722143
6402,-8.376674,-3.732205,4.080959,0.025962,0.103694,0.016493,31.61,66.0104787116926
6412,-8.387442,-3.729214,4.071388,0.026878,0.106443,0.021686,31.57,66.0803725678887
6422,-8.386245,-3.728616,4.063612,0.026573,0.104458,0.021228,31.58,66.1178547358515
6435,-8.404789,-3.748357,4.041477,0.026114,0.100793,0.020922,31.58,66.2908604497843
6442,-8.416155,-3.735795,4.04387,0.024282,0.094837,0.01741,31.55,66.29046847435
6452,-8.440681,-3.735795,4.036692,0.023213,0.087354,0.011759,31.55,66.3791210312847
6462,-8.443074,-3.741179,4.030112,0.02138,0.078802,0.007483,31.56,66.4233553746891
6472,-8.456833,-3.742973,4.023531,0.018173,0.06918,0.000611,31.56,66.4878584380807
6482,-8.463414,-3.744768,4.020541,0.015882,0.058796,-0.006261,31.57,66.5187048287097
6492,-8.468798,-3.751348,4.012166,0.011606,0.047647,-0.014966,31.57,66.5794650198161
6502,-8.465208,-3.754339,4.004389,0.008552,0.035736,-0.023213,31.56,66.6153190580538
6512,-8.452645,-3.755535,4.00738,0.004581,0.023671,-0.031001,31.56,66.5749048967583
6522,-8.449656,-3.759723,4.012166,0.000458,0.012065,-0.039859,31.55,66.5476192212209
6532,-8.438888,-3.769294,4.00738,-0.002596,0.001833,-0.046578,31.55,66.5591505284047
6542,-8.431709,-3.754937,4.004389,-0.006567,-0.009468,-0.052534,31.58,66.546677204998
6552,-8.431709,-3.754339,4.015156,-0.010385,-0.0197,-0.057727,31.58,66.4898994314475
6562,-8.416754,-3.750151,4.006782,-0.014508,-0.029169,-0.062156,31.57,66.4987354150956
6572,-8.406584,-3.753142,4.008576,-0.016952,-0.037874,-0.064141,31.57,66.4709858409372
6582,-8.375478,-3.749553,4.021138,-0.019548,-0.051465,-0.065821,31.57,66.3369432026093
6592,-8.369495,-3.74716,4.015156,-0.023366,-0.05681,-0.065821,31.59,66.3535122065332
6602,-8.35155,-3.748955,4.022335,-0.023518,-0.06017,-0.062614,31.59,66.2798832949224
6612,-8.352147,-3.735795,4.022335,-0.022602,-0.06353,-0.058948,31.55,66.2687300309831
6622,-8.346166,-3.733402,4.028317,-0.022602,-0.065668,-0.055589,31.55,66.2224708016204
6632,-8.34796,-3.716652,4.001996,-0.020769,-0.066584,-0.051618,31.57,66.3487987221444
6642,-8.377273,-3.677171,3.928416,-0.007941,-0.058185,-0.052229,31.57,66.7616994586953
6652,-8.316256,-3.728616,4.042674,0.00733,-0.045357,-0.052687,31.54,66.0791884124583
6662,-8.313264,-3.718446,4.061816,0.011301,-0.04215,-0.045357,31.54,65.9626031681958
6672,-8.312068,-3.726821,4.060022,0.014813,-0.038485,-0.039248,31.58,65.9774718079502
6682,-8.306684,-3.713661,4.059424,0.018326,-0.034667,-0.03146,31.58,65.9565199292885
6692,-8.309675,-3.702295,4.066004,0.022144,-0.030391,-0.025198,31.58,65.917514025783
6702,-8.305488,-3.713661,4.075575,0.026725,-0.027031,-0.01909,31.58,65.8691916981048
6712,-8.313862,-3.71067,4.066602,0.03146,-0.021533,-0.011759,31.59,65.9313406379893
6722,-8.31147,-3.707679,4.072584,0.036194,-0.016493,-0.00504,31.59,65.8919783476665
6732,-8.306684,-3.705884,4.081557,0.040928,-0.011606,0.000611,31.59,65.8329314265368
6742,-8.292925,-3.7005,4.085745,0.045815,-0.005498,0.006261,31.59,65.7761805987267
6752,-8.306684,-3.696911,4.082754,0.048564,-0.000458,0.016188,31.53,65.8180580771898
6762,-8.32463,-3.690929,4.086343,0.054367,0.009774,0.020311,31.56,65.8321190895542
6772,-8.330013,-3.705286,4.09412,0.056047,0.015119,0.024435,31.56,65.8166657898013
6782,-8.339585,-3.7005,4.092325,0.057269,0.01909,0.027794,31.56,65.8420202675979
6792,-8.334201,-3.689135,4.092923,0.057116,0.022907,0.029627,31.56,65.8165314958898
6802,-8.341978,-3.705286,4.101896,0.056047,0.027184,0.031612,31.59,65.8016962108389
6812,-8.341978,-3.698706,4.09053,0.052687,0.029474,0.03207,31.59,65.8548277110463
6822,-8.357532,-3.690929,4.098307,0.049327,0.03207,0.031612,31.59,65.8401468508873
6832,-8.364112,-3.698706,4.088138,0.04612,0.034514,0.030849,31.59,65.9146617308561
6842,-8.36112,-3.699304,4.092325,0.041844,0.035125,0.029932,31.55,65.8869752478861
6852,-8.370093,-3.694518,4.08754,0.036499,0.035583,0.027642,31.55,65.9265996672589
6862,-8.385049,-3.689135,4.091129,0.029932,0.03543,0.023976,31.55,65.9347108975372
6872,-8.38445,-3.692724,4.083352,0.024893,0.03543,0.021075,31.55,65.9773646067202
6882,-8.387442,-3.706482,4.082156,0.018631,0.034208,0.017257,31.54,66.0028658993747
6892,-8.39462,-3.701099,4.088138,0.012981,0.032223,0.012675,31.54,65.9818827234234
6902,-8.392226,-3.699902,4.079165,0.005651,0.030238,0.008552,31.59,66.0224546314588
6912,-8.397013,-3.698107,4.084548,0.000916,0.027489,0.004123,31.59,66.0028731608121
6922,-8.407183,-3.706482,4.080959,-0.002291,0.025504,0.000305,31.57,66.0509568678424
6932,-8.392825,-3.705884,4.084548,-0.012065,0.019853,-0.009621,31.6,66.0012628829262
6942,-8.412566,-3.703491,4.075575,-0.014355,0.018021,-0.013439,31.6,66.0876011194708
6952,-8.402397,-3.70409,4.079762,-0.016493,0.015882,-0.017715,31.56,66.0448247587403
6962,-8.394022,-3.712464,4.074379,-0.018631,0.013897,-0.021533,31.56,66.062980071846
6972,-8.390432,-3.711866,4.073183,-0.020159,0.012675,-0.02474,31.55,66.0610560369371
6982,-8.397612,-3.712464,4.077968,-0.020464,0.011454,-0.027947,31.55,66.0518695872462
6992,-8.394022,-3.71067,4.081557,-0.019548,0.01069,-0.03146,31.55,66.0238770610362
7002,-8.383853,-3.722634,4.078567,-0.018784,0.010079,-0.033598,31.55,66.0291463674819
7012,-8.380263,-3.709473,4.08395,-0.018479,0.011148,-0.035736,31.56,65.9810683994587
7022,-8.371889,-3.707081,4.083352,-0.016952,0.011606,-0.037568,31.56,65.964124725492
7032,-8.378469,-3.716652,4.088138,-0.015119,0.013592,-0.039859,31.54,65.9621767357215
7042,-8.371889,-3.712464,4.092923,-0.013134,0.015424,-0.040775,31.54,65.9192707383971
7052,-8.380861,-3.71067,4.071986,-0.01069,0.017715,-0.040928,31.59,66.0458962027098
7062,-8.376674,-3.713063,4.08754,-0.007789,0.020159,-0.041692,31.59,65.9580942656716
7072,-8.37129,-3.720241,4.094718,-0.00733,0.022602,-0.042761,31.56,65.9159893486284
7082,-8.374281,-3.717848,4.08395,-0.005803,0.025198,-0.041692,31.56,65.9762451847734
7092,-8.365907,-3.721437,4.077968,-0.003971,0.028558,-0.041233,31.59,65.9930611181323
7102,-8.347363,-3.732804,4.08395,-0.003054,0.032681,-0.040775,31.59,65.9331532207924
7112,-8.366504,-3.722036,4.063612,-0.001833,0.034208,-0.04047,31.55,66.0698986750045
7122,-8.36471,-3.711268,4.069593,-0.000764,0.036041,-0.038637,31.57,66.0246735688775
7132,-8.353942,-3.710072,4.06062,-0.000916,0.036652,-0.039248,31.57,66.0476010942061
7142,-8.346166,-3.734598,4.041477,-0.001069,0.036194,-0.038179,31.59,66.1545774394279
7152,-8.347363,-3.738187,4.042076,-0.001374,0.035125,-0.035888,31.59,66.15736571659
7162,-8.359925,-3.736991,4.037888,-0.001833,0.033292,-0.034667,31.56,66.2047019011439
7172,-8.349156,-3.731607,4.021138,-0.001833,0.030085,-0.032681,31.56,66.2647666867031
7182,-8.364112,-3.735196,4.021737,-0.001833,0.026573,-0.030543,31.57,66.2964796714407
7192,-8.36112,-3.729812,4.0008,-0.002291,0.022449,-0.028405,31.57,66.3950579784924
7202,-8.365907,-3.732804,3.996014,-0.002749,0.017257,-0.026114,31.57,66.4330327793912
7212,-8.371889,-3.736991,3.998407,-0.002596,0.011912,-0.023671,31.57,66.436887590601
7222,-8.374281,-3.739982,3.995416,-0.003818,0.005956,-0.020311,31.55,66.4603823119456
7232,-8.364112,-3.737589,3.994219,-0.003665,-0.001985,-0.018326,31.55,66.4431801700445
7242,-8.365308,-3.739982,3.996014,-0.002902,-0.009163,-0.014813,31.57,66.4384874526277
7252,-8.361719,-3.739982,3.993621,-0.003818,-0.015882,-0.01237,31.57,66.4435551504185
7262,-8.367103,-3.734598,3.941577,-0.004123,-0.023518,-0.008399,31.58,66.7238373115361
7272,-8.437692,-3.726223,3.932604,-0.00336,-0.030849,-0.012828,31.58,66.9089395409663
7282,-8.363514,-3.736991,3.99721,0.017715,-0.038637,-0.019242,31.59,66.425652748413
7292,-8.349156,-3.734598,4.019942,0.017104,-0.044135,-0.014508,31.59,66.2738636115884
7302,-8.347363,-3.735196,4.017549,0.017257,-0.048564,-0.010232,31.59,66.2832162000032
7312,-8.359925,-3.726223,4.040281,0.01741,-0.052382,-0.00733,31.57,66.1820212135936
7322,-8.338388,-3.719643,4.052245,0.016646,-0.054367,-0.003971,31.57,66.0674747089583
7332,-8.357532,-3.732804,4.045067,0.016952,-0.056047,-0.000153,31.56,66.1581002297794
7342,-8.356335,-3.724428,4.063013,0.016341,-0.056352,0.002596,31.56,66.0537242964296
7352,-8.35155,-3.724428,4.08754,0.016646,-0.056047,0.005345,31.6,65.9153539095657
7362,-8.343175,-3.713661,4.091727,0.016493,-0.054062,0.007941,31.6,65.8653555772078
7372,-8.344969,-3.716054,4.101298,0.016035,-0.051465,0.009163,31.56,65.8214897551203
7382,-8.336594,-3.713063,4.11745,0.015577,-0.047189,0.010385,31.56,65.7163802325428
7392,-8.350951,-3.702295,4.124628,0.014966,-0.041539,0.01237,31.59,65.6995421347469
7402,-8.339585,-3.699902,4.125226,0.014813,-0.034972,0.015119,31.59,65.6696719674128
7412,-8.341978,-3.719045,4.131807,0.014813,-0.027336,0.014966,31.56,65.6588653174878
7422,-8.333005,-3.705884,4.133601,0.013592,-0.018937,0.014966,31.56,65.6175531852148
7432,-8.337193,-3.712464,4.134199,0.01237,-0.010232,0.014508,31.52,65.629787091234
7442,-8.331809,-3.708875,4.155735,0.011148,-0.001527,0.015119,31.52,65.5025923220559
7452,-8.324032,-3.708277,4.146762,0.010537,0.018021,0.013134,31.56,65.5318846815367
7462,-8.327023,-3.707081,4.155136,0.009163,0.026878,0.012065,31.54,65.4936098861383
7472,-8.336594,-3.702295,4.138387,0.008094,0.036652,0.010385,31.54,65.5969213850432
7482,-8.343175,-3.711866,4.135994,0.008094,0.045815,0.009774,31.59,65.6327572668385
7492,-8.340781,-3.711268,4.132405,0.007483,0.053603,0.008552,31.59,65.6457165960406
7502,-8.358727,-3.699304,4.122834,0.006567,0.061392,0.007178,31.55,65.7227538964831
7512,-8.352745,-3.707679,4.116851,0.004734,0.067195,0.005345,31.55,65.7490528042522
7522,-8.365907,-3.723232,4.112065,0.004123,0.07254,0.002443,31.59,65.8169677314567
7532,-8.364112,-3.717848,4.09412,0.003207,0.077122,0.001374,31.59,65.9015477309367
7542,-8.36112,-3.722036,4.081557,0.003207,0.07926,-0.000764,31.55,65.964708829384
7552,-8.371889,-3.726223,4.079762,0.002596,0.080634,-0.002443,31.55,66.0009227660462
7562,-8.364112,-3.721437,4.064807,0.002291,0.080329,-0.003971,31.53,66.0580149894028
7572,-8.38804,-3.722634,4.055236,0.002291,0.078343,-0.005651,31.53,66.1597702761764
7583,-8.387442,-3.717848,4.034299,0.002902,0.074831,-0.006872,31.57,66.263503704887
7592,-8.39462,-3.73041,4.028317,0.002902,0.070402,-0.008399,31.57,66.3215853839926
7602,-8.397612,-3.725625,4.012764,0.002749,0.063988,-0.00901,31.57,66.4048108449273
7612,-8.397612,-3.728616,4.008576,0.002443,0.056047,-0.010232,31.57,66.4295223053207
7622,-8.425129,-3.729214,3.929613,0.00336,0.040164,-0.013592,31.55,66.9016142030244
7632,-8.459825,-3.680161,3.93739,0.017715,0.040317,-0.022602,31.57,66.8877795549785
7642,-8.405987,-3.725625,4.00379,0.026114,0.035583,-0.031612,31.57,66.4693037829433
7652,-8.399406,-3.72383,4.001996,0.024129,0.025962,-0.03207,31.58,66.4633145366072
7662,-8.405388,-3.734598,4.010371,0.022907,0.017104,-0.032681,31.58,66.4418990584092
7672,-8.409575,-3.726821,4.012166,0.02138,0.007789,-0.034056,31.6,66.4340400844053
7682,-8.408379,-3.718446,4.018745,0.019853,-0.000764,-0.036041,31.6,66.3893688713425
7692,-8.408977,-3.722634,4.021737,0.016646,-0.007178,-0.038179,31.56,66.3788437280608
7702,-8.407183,-3.722036,4.033103,0.01573,-0.013897,-0.04047,31.56,66.3151102988261
7712,-8.402995,-3.714857,4.030112,0.012523,-0.020464,-0.04383,31.55,66.3153033686943
7722,-8.393424,-3.707679,4.039085,0.010232,-0.02474,-0.046426,31.55,66.2415836591642
7732,-8.393424,-3.715455,4.043272,0.008094,-0.028558,-0.048717,31.55,66.2269302991017
7742,-8.382057,-3.70409,4.048058,0.004887,-0.03207,-0.050244,31.55,66.1673160980987
7752,-8.376076,-3.695116,4.056432,0.002902,-0.033139,-0.051771,31.54,66.1024557325058
7762,-8.358727,-3.696911,4.064807,0.000305,-0.034056,-0.053756,31.54,66.0234558472179
7772,-8.36471,-3.696911,4.064209,-0.000764,-0.032681,-0.053298,31.59,66.039314805506
7782,-8.358727,-3.70409,4.079762,-0.002749,-0.031154,-0.053909,31.59,65.9520132409732
7792,-8.336594,-3.69392,4.080959,-0.004429,-0.025809,-0.05116,31.59,65.8888209153286
7802,-8.331809,-3.692724,4.071388,-0.005345,-0.02138,-0.048869,31.54,65.9275723730732
7812,-8.3348,-3.690929,4.083352,-0.005651,-0.01741,-0.046273,31.54,65.8696091798974
7822,-8.329416,-3.696911,4.089334,-0.004429,-0.012828,-0.041844,31.58,65.8324368068111
7832,-8.322237,-3.70409,4.084548,-0.003818,-0.008094,-0.038179,31.58,65.8489339868573
7842,-8.315059,-3.697509,4.074379,-0.003512,-0.003665,-0.034208,31.6,65.880546413603
7852,-8.331809,-3.696911,4.071986,-0.001985,0.000305,-0.029169,31.6,65.9284122529757
7862,-8.325229,-3.698706,4.077968,0,0.004581,-0.023213,31.6,65.8846832890751
7872,-8.338388,-3.707081,4.073781,0.002291,0.007636,-0.018021,31.6,65.9427301573642
7882,-8.324032,-3.706482,4.06062,0.005192,0.011148,-0.012217,31.54,65.9804745839492
7892,-8.326425,-3.704688,4.067201,0.007025,0.01405,-0.00672,31.54,65.9493678146353
7902,-8.327023,-3.698107,4.058825,0.009927,0.015272,-0.001222,31.59,65.9883260163915
7912,-8.318049,-3.708277,4.045665,0.013744,0.017257,0.005345,31.59,66.0479321565927
7922,-8.337791,-3.718446,4.046861,0.016188,0.017562,0.010843,31.56,66.0933058575083
7932,-8.343175,-3.716054,4.049852,0.020006,0.017868,0.016035,31.56,66.0867904848064
7942,-8.335398,-3.726821,4.048656,0.021838,0.016493,0.019853,31.56,66.0867510861234
7952,-8.346166,-3.723232,4.04746,0.024587,0.015577,0.02474,31.56,66.1124637539655
7962,-8.345568,-3.732804,4.04746,0.027184,0.013897,0.032223,31.52,66.1202560677876
7972,-8.362316,-3.734598,4.054638,0.030696,0.009316,0.035277,31.61,66.1198132869885
7982,-8.364112,-3.726223,4.053442,0.031765,0.007483,0.035736,31.61,66.1219674946127
7992,-8.36471,-3.726223,4.057031,0.031612,0.00504,0.036194,31.57,66.1044583308829
8002,-8.376076,-3.732205,4.061816,0.030696,0.002138,0.036041,31.57,66.1091245647234
8012,-8.379066,-3.731009,4.068397,0.029169,-0.000153,0.034972,31.6,66.0799567346522
8022,-8.390432,-3.742374,4.064209,0.027336,-0.002138,0.032681,31.6,66.136496433397
8032,-8.389236,-3.734598,4.076771,0.024587,-0.003207,0.029474,31.6,66.0611616699955
8042,-8.39462,-3.742973,4.085146,0.021228,-0.004581,0.025351,31.6,66.0368032930101
8052,-8.387442,-3.736991,4.085146,0.017562,-0.005803,0.020159,31.57,66.015983468792
8062,-8.401799,-3.736392,4.103691,0.013592,-0.006109,0.015272,31.57,65.9493445643142
8072,-8.402995,-3.743571,4.099504,0.008858,-0.006872,0.008552,31.56,65.980398454795
8082,-8.400601,-3.739383,4.109075,0.004887,-0.00672,0.001833,31.56,65.9216561281871
8092,-8.402397,-3.736991,4.104887,0,-0.005956,-0.004581,31.55,65.9449620493543
8102,-8.402397,-3.734,4.10728,-0.004581,-0.004429,-0.012217,31.55,65.9297115351818
8112,-8.406584,-3.726821,4.113262,-0.009163,-0.002443,-0.019242,31.6,65.9007677620641
8122,-8.389236,-3.735795,4.109673,-0.014661,-0.001527,-0.026573,31.6,65.8910336739228
8132,-8.397013,-3.731607,4.112065,-0.018326,0.000916,-0.033292,31.56,65.8911691782237
8142,-8.388638,-3.715455,4.11386,-0.025351,0.005651,-0.044288,31.56,65.8487673704756
8152,-8.383853,-3.716054,4.101298,-0.027947,0.008705,-0.049022,31.61,65.9045001066528
8162,-8.375478,-3.716054,4.095914,-0.029474,0.011759,-0.053451,31.59,65.9147143696776
8172,-8.368897,-3.722036,4.095316,-0.030543,0.015119,-0.0562,31.59,65.9094752458206
8182,-8.364112,-3.720839,4.079165,-0.031918,0.017562,-0.058796,31.6,65.9824299554508
8192,-8.353344,-3.708277,4.07737,-0.031154,0.019853,-0.058643,31.6,65.9569996152492
8202,-8.347363,-3.71725,4.08754,-0.030238,0.023213,-0.058948,31.55,65.8995962439121
8212,-8.343175,-3.723232,4.068995,-0.029016,0.025656,-0.057574,31.55,65.993325393861
8222,-8.335398,-3.703491,4.057629,-0.0281,0.027031,-0.056047,31.55,66.0175762989145
8232,-8.332406,-3.713661,4.056432,-0.024893,0.029016,-0.052382,31.55,66.0271211252785
8242,-8.338388,-3.697509,4.037888,-0.021686,0.030543,-0.047647,31.59,66.1218905574847
8252,-8.326425,-3.714259,4.034897,-0.018021,0.031154,-0.042761,31.59,66.1280147246356
8262,-8.325827,-3.703491,4.040281,-0.015119,0.031918,-0.036957,31.56,66.088251778511
8272,-8.315059,-3.708875,4.027121,-0.010843,0.031765,-0.030696,31.56,66.1396538043511
8282,-8.337193,-3.697509,3.980461,-0.006872,0.03146,-0.022907,31.54,66.4216944549242
8292,-8.402397,-3.668197,3.904488,0.010232,0.039706,-0.024435,31.54,66.9321655727618
8302,-8.309077,-3.704688,4.025326,0.026725,0.046884,-0.025809,31.57,66.1324073732514
8312,-8.332406,-3.705884,4.017549,0.029627,0.044288,-0.010232,31.57,66.2240103736792
8322,-8.333604,-3.702893,4.023531,0.033903,0.041539,-0.002596,31.56,66.1922636226094
8332,-8.33121,-3.701697,4.013362,0.035583,0.038943,0.004887,31.55,66.2395717413333
8342,-8.337193,-3.709473,4.019942,0.037721,0.03543,0.011912,31.55,66.2249385543491
8352,-8.356335,-3.704688,4.022933,0.037415,0.03146,0.01741,31.57,66.2452052666356
8362,-8.35155,-3.70409,4.022335,0.037415,0.027642,0.022907,31.57,66.2376727549216
8372,-8.35454,-3.705884,4.017549,0.037874,0.022755,0.025504,31.56,66.2708135788816
8382,-8.364112,-3.71725,4.016353,0.036957,0.018021,0.027794,31.56,66.3079094553133
8392,-8.382656,-3.716054,4.02413,0.036346,0.013744,0.02978,31.57,66.3050148350729
8402,-8.375478,-3.703491,4.034897,0.034819,0.008247,0.030543,31.57,66.2217620898064
8412,-8.385049,-3.712464,4.040879,0.032681,0.002749,0.028558,31.56,66.2190101153002
8422,-8.388638,-3.708875,4.041477,0.029932,-0.001527,0.027489,31.56,66.2201002258235
8436,-8.41137,-3.707081,4.041477,0.025504,-0.011759,0.022907,31.55,66.2662809699173
8442,-8.41137,-3.707081,4.041477,0.025504,-0.011759,0.022907,31.55,66.2662809699173
8452,-8.419147,-3.701697,4.053442,0.022602,-0.016188,0.019395,31.57,66.2151952187315
8462,-8.411968,-3.707081,4.055834,0.01909,-0.020617,0.014508,31.57,66.1925908137438
8472,-8.413164,-3.709473,4.066602,0.015882,-0.023976,0.009468,31.57,66.1411837229059
8482,-8.417951,-3.711268,4.082754,0.011606,-0.027184,-0.000153,31.57,66.0688475078547
8492,-8.398808,-3.702893,4.083352,0.00336,-0.03146,-0.005651,31.57,66.0173908988969
8502,-8.399406,-3.707679,4.085146,-0.000458,-0.033139,-0.009927,31.62,66.0137899866532
8512,-8.404191,-3.716054,4.083352,-0.003818,-0.03375,-0.014966,31.62,66.0411070229419
8522,-8.396414,-3.713661,4.085745,-0.00733,-0.033445,-0.018784,31.56,66.0099301598181
8532,-8.379665,-3.716652,4.088736,-0.010079,-0.032681,-0.023671,31.56,65.9616013193277
8542,-8.391031,-3.714259,4.095316,-0.012828,-0.03207,-0.027184,31.55,65.9492214775239
8552,-8.380263,-3.717848,4.109673,-0.015272,-0.029474,-0.029474,31.55,65.8549529820172
8562,-8.373085,-3.71725,4.105485,-0.017562,-0.027184,-0.031765,31.59,65.8608808914834
8572,-8.367103,-3.71067,4.106682,-0.018784,-0.024282,-0.034208,31.59,65.8356380422721
8582,-8.360522,-3.709473,4.109075,-0.0197,-0.020617,-0.034819,31.54,65.807955795018
8592,-8.362316,-3.718446,4.104289,-0.020464,-0.017257,-0.036194,31.54,65.8452594046322
8602,-8.359326,-3.724428,4.105485,-0.020464,-0.01405,-0.037263,31.54,65.8383264981412
8612,-8.344371,-3.723232,4.100101,-0.0197,-0.009468,-0.036805,31.54,65.8333049214216
8622,-8.353942,-3.728018,4.095914,-0.019395,-0.004581,-0.036194,31.54,65.8801601645061
8632,-8.346764,-3.731009,4.092325,-0.017868,-0.000305,-0.034514,31.54,65.8864282421471
8642,-8.344371,-3.724428,4.09711,-0.01573,0.003971,-0.035125,31.58,65.8500594786306
8652,-8.337791,-3.729812,4.091727,-0.01405,0.008247,-0.033292,31.58,65.8692523018011
8662,-8.337193,-3.739982,4.086343,-0.007789,0.016341,-0.029474,31.56,65.9058296489152
8672,-8.339585,-3.73041,4.077968,-0.005803,0.019395,-0.026573,31.58,65.9455685806999
8682,-8.337193,-3.732804,4.076771,-0.002749,0.022297,-0.025198,31.58,65.9490150589412
8692,-8.3348,-3.741776,4.068397,-0.000153,0.025198,-0.022449,31.55,65.9962959068098
8702,-8.352745,-3.738187,4.061218,0.002596,0.027031,-0.0197,31.55,66.0685315150356
8712,-8.343773,-3.739383,4.06062,0.004734,0.027947,-0.018326,31.59,66.0537750172351
8722,-8.340781,-3.74058,4.054638,0.006872,0.028405,-0.016188,31.59,66.0798888264386
8732,-8.342576,-3.74058,4.053442,0.009468,0.028405,-0.013897,31.57,66.0899567665224
8742,-8.3348,-3.738187,4.048058,0.009927,0.028558,-0.010996,31.57,66.0994151216634
8752,-8.344371,-3.732804,4.039683,0.010537,0.026878,-0.009927,31.51,66.1584889342209
8762,-8.34138,-3.74058,4.037888,0.011606,0.024587,-0.008094,31.51,66.1689419090289
8772,-8.350951,-3.729812,4.03729,0.012065,0.022755,-0.005803,31.58,66.1821204075107
8782,-8.353942,-3.731009,4.0337,0.011301,0.0197,-0.004581,31.58,66.2083888480973
8792,-8.350353,-3.726821,4.034299,0.010996,0.016188,-0.003665,31.55,66.1937194559379
8802,-8.362316,-3.727419,4.034299,0.009163,0.012675,-0.001833,31.55,66.2195378699243
8812,-8.36471,-3.722036,4.0337,0.007636,0.008858,0.000153,31.61,66.2226699933853
8822,-8.35813,-3.727419,4.038486,0.005192,0.004276,0.000611,31.61,66.1887613705738
8832,-8.508279,-3.669394,3.982853,0.002902,-0.006261,-0.003054,31.59,66.7398416210352
8842,-8.366504,-3.702295,4.050451,0.005651,-0.022297,-0.015424,31.61,66.1201888205396
8852,-8.352745,-3.707081,4.057629,0.00336,-0.027642,-0.015882,31.61,66.0578958713622
8862,-8.34796,-3.707679,4.061816,0.000153,-0.028253,-0.014203,31.55,66.0263554206162
8872,-8.341978,-3.7005,4.066602,-0.001527,-0.029322,-0.011912,31.55,65.9817499274081
8882,-8.343773,-3.702295,4.077968,-0.003665,-0.027794,-0.010385,31.54,65.9277781198702
8892,-8.353344,-3.70409,4.093522,-0.006109,-0.026725,-0.009468,31.54,65.8686335656748
8902,-8.360522,-3.699902,4.098905,-0.008094,-0.024129,-0.008399,31.57,65.8519187449404
8912,-8.352745,-3.705286,4.092325,-0.010537,-0.021533,-0.008247,31.57,65.8747382635538
8922,-8.34796,-3.702893,4.110271,-0.012065,-0.016646,-0.007025,31.55,65.7685368235256
8932,-8.3348,-3.703491,4.114459,-0.013744,-0.012217,-0.007483,31.55,65.7189698086509
8942,-8.349156,-3.696911,4.123432,-0.01405,-0.005345,-0.00504,31.57,65.696780861598
8952,-8.353942,-3.701697,4.10728,-0.013897,0.000611,-0.006109,31.57,65.7958349311919
8962,-8.345568,-3.705286,4.112664,-0.014508,0.007483,-0.005803,31.55,65.7531974799916
8972,-8.337193,-3.699902,4.119842,-0.014508,0.01405,-0.004734,31.55,65.692599438845
8982,-8.350353,-3.708277,4.12403,-0.01405,0.020617,-0.004581,31.55,65.7070782442426
8992,-8.349156,-3.696911,4.11386,-0.012828,0.027336,-0.003818,31.55,65.7466895061441
9002,-8.34138,-3.711866,4.100101,-0.011148,0.034819,0,31.57,65.8160596299478
9012,-8.355139,-3.707081,4.098905,-0.007941,0.047647,0.001985,31.55,65.8472084592888
9022,-8.34796,-3.708875,4.082156,-0.006872,0.052076,0.00336,31.55,65.9210566031843
9032,-8.353942,-3.719643,4.079165,-0.005498,0.055741,0.004887,31.56,65.9596581397298
9042,-8.357532,-3.714259,4.066602,-0.003207,0.058338,0.006872,31.56,66.0278818070151
9052,-8.359925,-3.724428,4.058227,-0.001069,0.059865,0.008552,31.57,66.0863741947509
9062,-8.366504,-3.728018,4.054638,-0.000305,0.060323,0.01069,31.57,66.1224623982006
9072,-8.370093,-3.727419,4.046861,0.001222,0.058796,0.013592,31.58,66.1701673769221
9082,-8.379066,-3.732804,4.03729,0.002902,0.056505,0.015424,31.58,66.2442129068498
9092,-8.388638,-3.728018,4.032505,0.003207,0.052382,0.016035,31.56,66.2848930854176
9102,-8.377273,-3.722634,4.021737,0.003665,0.046731,0.017562,31.56,66.3123795242906
9112,-8.385049,-3.733402,4.012166,0.004123,0.040012,0.018173,31.58,66.3888933495021
9122,-8.414959,-3.74058,3.974478,0.004429,0.032376,0.016952,31.58,66.6553638708118
9132,-8.443074,-3.745365,3.948756,0.012065,0.023976,0.008247,31.62,66.8525331421975
9142,-8.391031,-3.723232,4.005585,0.018631,0.015424,0.000458,31.62,66.4264488225071
9152,-8.38445,-3.731607,3.999005,0.018173,0.006567,0.000611,31.55,66.4549853094871
9162,-8.394022,-3.737589,4.006782,0.016493,-0.001222,0.001527,31.55,66.4397557413557
9172,-8.38804,-3.733402,4.007978,0.015119,-0.010079,0.000611,31.57,66.4170997471788
9182,-8.397013,-3.720839,4.019942,0.011148,-0.02642,-0.00336,31.58,66.3615286826787
9192,-8.407183,-3.739982,4.018147,0.008552,-0.033903,-0.00504,31.58,66.4099536090738
9202,-8.404191,-3.729214,4.030112,0.00733,-0.040775,-0.007636,31.58,66.3311403451099
9212,-8.399406,-3.72383,4.041477,0.005345,-0.046884,-0.011759,31.58,66.2566980583497
9222,-8.399406,-3.729812,4.045067,0.003818,-0.050549,-0.015119,31.56,66.2435210204118
9232,-8.388638,-3.726821,4.061218,0.00168,-0.054367,-0.017715,31.56,66.1337188602227
9242,-8.397612,-3.719643,4.068397,0.000153,-0.056352,-0.022144,31.57,66.1084865740225
9252,-8.39462,-3.722634,4.073183,-0.001374,-0.056352,-0.025962,31.57,66.0800097036325
9262,-8.391629,-3.711866,4.079762,-0.002138,-0.055436,-0.029016,31.55,66.029282141663
9272,-8.371889,-3.713063,4.092923,-0.004429,-0.053756,-0.033445,31.55,65.9198366678509
9282,-8.38146,-3.718446,4.100101,-0.005651,-0.05116,-0.03711,31.58,65.9078969397333
9292,-8.368299,-3.71067,4.110271,-0.007025,-0.046578,-0.040928,31.58,65.8194965144198
9302,-8.367702,-3.702295,4.118646,-0.007941,-0.040164,-0.043524,31.56,65.7666619517428
9312,-8.35813,-3.710072,4.129414,-0.008399,-0.034056,-0.044899,31.56,65.6974654799001
9322,-8.353942,-3.705286,4.116851,-0.010079,-0.026878,-0.047953,31.56,65.7493429475252
9332,-8.338388,-3.697509,4.077968,-0.009774,-0.018173,-0.050244,31.56,65.9117253200909
9342,-8.34796,-3.69392,4.122834,-0.003207,0.001374,-0.050549,31.57,65.6944735920028
9352,-8.328219,-3.696313,4.12403,-0.002596,0.02138,-0.051313,31.57,65.6479587093227
9362,-8.324032,-3.708277,4.118048,-0.005345,0.02978,-0.049633,31.6,65.6816294451442
9372,-8.337791,-3.706482,4.110869,-0.006567,0.037568,-0.048411,31.59,65.7469992783039
9382,-8.328219,-3.711268,4.09711,-0.007483,0.04444,-0.045815,31.59,65.8028962356113
9392,-8.334201,-3.692724,4.091727,-0.008399,0.049786,-0.043677,31.55,65.8262017056505
9402,-8.327023,-3.698107,4.042076,-0.00733,0.056658,-0.039859,31.55,66.0762708737007
9412,-8.319246,-3.708277,4.072584,-0.002291,0.067042,-0.034972,31.59,65.9092079139107
9422,-8.452645,-3.893123,3.753741,-0.017715,0.064752,-0.022297,31.59,68.0326641569633
9432,-8.307282,-3.66401,4.031308,-0.021686,0.077733,-0.011454,31.62,66.0585436309463
9442,-8.316854,-3.722634,4.040281,-0.014203,0.087201,-0.007789,31.62,66.0873342892941
9452,-8.293524,-3.704688,4.046861,-0.013897,0.089034,0.000611,31.56,65.9858256236447
9462,-8.298308,-3.710072,4.024727,-0.011606,0.089797,0.00901,31.56,66.1177511332699
9472,-8.329416,-3.716652,4.016951,-0.010232,0.089797,0.017257,31.59,66.2309820468923
9482,-8.315059,-3.697509,4.012166,-0.008858,0.087812,0.024435,31.59,66.2076712907998
9492,-8.326425,-3.706482,3.988237,-0.004887,0.084758,0.032376,31.57,66.366373698567
9502,-8.328219,-3.706482,3.987041,-0.001985,0.079565,0.040164,31.57,66.3764670349879
9512,-8.35454,-3.719045,3.964907,0.000916,0.073609,0.045662,31.56,66.5601961169583
9522,-8.377273,-3.710072,3.970889,0.00336,0.065515,0.055894,31.56,66.5678158388996
9532,-8.386245,-3.715455,3.9673,0.010537,0.046884,0.058338,31.6,66.6103683642505
9542,-8.404789,-3.711268,3.979264,0.01237,0.036194,0.060476,31.55,66.5822095543961
9552,-8.417352,-3.71067,3.975077,0.01573,0.025351,0.061087,31.55,66.6297466680257
9562,-8.422137,-3.705286,3.97747,0.017257,0.013286,0.060323,31.57,66.6221997429736
9572,-8.4347,-3.707679,3.984648,0.017868,0.000764,0.05849,31.57,66.6128199944832
9582,-8.446664,-3.699902,3.991827,0.018784,-0.011301,0.055894,31.55,66.592972191234
9592,-8.452645,-3.712464,4.009174,0.018479,-0.022907,0.051618,31.55,66.5261466269988
9602,-8.451449,-3.697509,4.015156,0.017104,-0.033903,0.046273,31.55,66.4787939445089
9612,-8.461619,-3.711866,4.020541,0.014813,-0.044593,0.040317,31.55,66.4849302855887
9622,-8.459825,-3.703491,4.035496,0.011454,-0.053909,0.032987,31.57,66.3956175462318
9632,-8.468199,-3.696911,4.045067,0.007941,-0.062461,0.026114,31.57,66.3572565691798
9642,-8.458628,-3.699902,4.066602,0.003207,-0.069639,0.020006,31.54,66.2279691725206
9652,-8.456235,-3.689135,4.070191,-0.002749,-0.075747,0.011912,31.54,66.1944124899696
9662,-8.440084,-3.692126,4.089334,-0.007941,-0.080023,0.003665,31.56,66.0636389027997
9672,-8.443673,-3.699304,4.099504,-0.014508,-0.08262,-0.005651,31.56,66.0250580417475
9682,-8.438888,-3.708277,4.112065,-0.020769,-0.083383,-0.013592,31.53,65.9581151289768
9692,-8.43111,-3.702295,4.110271,-0.027336,-0.082467,-0.022755,31.53,65.9453705690783
9702,-8.405388,-3.698706,4.114459,-0.040012,-0.078802,-0.038485,31.57,65.8655938664481
9712,-8.393424,-3.703491,4.11386,-0.045509,-0.075442,-0.046578,31.58,65.8476947360709
9722,-8.399406,-3.711268,4.116851,-0.051465,-0.071777,-0.05284,31.58,65.8522221743367
9732,-8.377871,-3.711866,4.122235,-0.055894,-0.067195,-0.059559,31.55,65.7788319532844
9742,-8.365907,-3.7005,4.110271,-0.059254,-0.063377,-0.065057,31.55,65.8047409074458
9752,-8.370093,-3.705884,4.109075,-0.061392,-0.059101,-0.068264,31.53,65.8250283468437
9762,-8.359925,-3.708277,4.108477,-0.062919,-0.053451,-0.071624,31.53,65.8086592838741
9772,-8.343175,-3.709473,4.098307,-0.062614,-0.048258,-0.073457,31.57,65.8269941970805
9782,-8.339585,-3.719643,4.08395,-0.062308,-0.044746,-0.073457,31.57,65.9040286988627
9792,-8.32463,-3.723232,4.079762,-0.061087,-0.040317,-0.071929,31.55,65.8974091058626
9802,-8.309077,-3.71725,4.076771,-0.05849,-0.036957,-0.069944,31.55,65.8740571288982
9812,-8.317451,-3.716054,4.068995,-0.05452,-0.034514,-0.066432,31.54,65.9316097757377
9822,-8.306684,-3.722036,4.057031,-0.051313,-0.031612,-0.061087,31.54,65.9770987546923
9832,-8.290532,-3.728616,4.045665,-0.046273,-0.028711,-0.054367,31.59,66.008653166675
9842,-8.273782,-3.722634,4.041477,-0.041692,-0.026725,-0.046731,31.59,65.9891393898774
9852,-8.286345,-3.734598,4.034299,-0.035888,-0.025045,-0.038179,31.55,66.0652924831618
9862,-8.307282,-3.690929,3.982853,-0.030238,-0.023366,-0.030085,31.55,66.3397411604956
9872,-8.279166,-3.733402,4.037888,-0.003512,-0.005956,-0.018937,31.59,66.0299268046347
9882,-8.276773,-3.722036,4.046861,0.001527,-0.005192,-0.008858,31.55,65.9666053603155
9892,-8.291729,-3.726223,4.057031,0.005192,-0.003971,0.001374,31.55,65.9491451083238
9902,-8.293524,-3.726821,4.057031,0.008858,-0.002138,0.010537,31.55,65.9535598612356
9912,-8.292327,-3.727419,4.071986,0.010537,-0.001069,0.016952,31.55,65.8730258676748
9922,-8.292925,-3.729214,4.069593,0.013592,0.001985,0.025045,31.59,65.8885994051386
9932,-8.30489,-3.723232,4.078567,0.014203,0.003971,0.030391,31.59,65.861408864814
9942,-8.302496,-3.723232,4.093522,0.014355,0.00733,0.036346,31.59,65.7779093417133
9952,-8.309675,-3.729812,4.101896,0.014508,0.011301,0.041539,31.59,65.7558590356326
9962,-8.326425,-3.717848,4.092923,0.012828,0.015424,0.044288,31.58,65.827237384727
9972,-8.333005,-3.725625,4.11745,0.011148,0.0197,0.045815,31.58,65.7207138366374
9982,-8.34138,-3.720241,4.124628,0.009163,0.02474,0.046273,31.62,65.6961217832376
9992,-8.356335,-3.726821,4.123432,0.005345,0.030391,0.045204,31.62,65.7407350838061
10002,-8.355738,-3.725027,4.132405,0.001527,0.036194,0.043371,31.6,65.6910511235705
10012,-8.36112,-3.722036,4.140181,-0.002902,0.041539,0.040317,31.6,65.6593158086326
10022,-8.36471,-3.72383,4.140181,-0.007025,0.0478,0.037415,31.56,65.6687379406869
10032,-8.377273,-3.719643,4.144369,-0.012065,0.053603,0.032529,31.56,65.6699503612424
10042,-8.391629,-3.718446,4.122834,-0.016341,0.064141,0.025198,31.55,65.8113335972623
10052,-8.4012,-3.721437,4.123432,-0.025198,0.068722,0.019853,31.53,65.8314523774963
10062,-8.394022,-3.725027,4.118646,-0.030238,0.071777,0.013592,31.53,65.8444068516985
10072,-8.4012,-3.726821,4.114459,-0.034667,0.075136,0.008858,31.56,65.8831158063445
10082,-8.402995,-3.723232,4.099504,-0.038332,0.076664,0.004429,31.56,65.9612606888889
10092,-8.405388,-3.722634,4.089334,-0.041386,0.077122,0.001222,31.57,66.0186657453045
10102,-8.401799,-3.725027,4.067799,-0.043066,0.076511,-0.002443,31.57,66.1254780835958
10112,-8.410771,-3.737589,4.054638,-0.045357,0.074526,-0.005956,31.6,66.2246985205302
10122,-8.410771,-3.726821,4.046263,-0.046426,0.071929,-0.009316,31.6,66.2583546617355
10132,-8.407781,-3.729812,4.046263,-0.046731,0.068111,-0.010537,31.55,66.2548627103906
10142,-8.406584,-3.719643,4.015156,-0.046578,0.061239,-0.010079,31.55,66.4055044957633
10152,-8.407183,-3.725625,4.016353,-0.046273,0.054825,-0.010843,31.55,66.4060283295318
10162,-8.400601,-3.720839,4.009772,-0.045509,0.046578,-0.011912,31.55,66.4222961351618
10172,-8.396414,-3.722634,3.985844,-0.04383,0.038332,-0.010537,31.58,66.5406974302045
10182,-8.397612,-3.732804,3.985844,-0.04215,0.029322,-0.008552,31.58,66.5525868910831
10192,-8.376076,-3.744169,3.974478,-0.039401,0.019395,-0.007483,31.61,66.57803924307
10202,-8.391031,-3.738786,3.799803,-0.037263,0.008858,-0.004123,31.61,67.5281300615002
10212,-8.367702,-3.738786,3.953541,-0.024435,0.007178,-0.008094,31.62,66.6658644649112
10222,-8.379066,-3.722036,3.968496,-0.000458,0.007941,-0.004581,31.56,66.5952084896482
10232,-8.38804,-3.721437,3.964907,0.001833,-0.001069,-0.001527,31.56,66.6322074438536
10242,-8.371889,-3.734598,3.961318,0.004123,-0.011606,0.002138,31.54,66.6297028059345
10252,-8.377273,-3.726821,3.966702,0.005803,-0.022297,0.004734,31.54,66.6053465052156
10262,-8.389236,-3.728018,3.975077,0.008552,-0.032223,0.007483,31.58,66.5872879785654
10272,-8.379066,-3.725027,3.982853,0.010079,-0.042302,0.010232,31.58,66.522462490378
10282,-8.377871,-3.727419,3.985844,0.011759,-0.050702,0.011759,31.54,66.5064679382152
10292,-8.379066,-3.72383,3.996612,0.012828,-0.059101,0.012981,31.54,66.4490633527694
10302,-8.392226,-3.726821,4.011567,0.012828,-0.067042,0.013439,31.57,66.400926532884
10312,-8.386844,-3.719045,4.01396,0.013286,-0.073609,0.01405,31.57,66.369887645855
10322,-8.373683,-3.706482,4.023531,0.013592,-0.078802,0.013286,31.54,66.280346491538
10332,-8.39462,-3.699902,4.042076,0.01237,-0.083689,0.012217,31.54,66.2212281749959
10342,-8.38804,-3.701697,4.040879,0.011301,-0.087506,0.010843,31.57,66.21528066501
10352,-8.409575,-3.690331,4.056432,0.010232,-0.090255,0.008399,31.57,66.1688888529899
10362,-8.426923,-3.653242,4.062415,0.008552,-0.096669,0.003665,31.57,66.1401397484712
10372,-8.376076,-3.694518,4.075575,0.006261,-0.103389,-0.002596,31.57,66.0018273242528
10382,-8.377273,-3.686144,4.103691,0.002749,-0.102931,-0.003665,31.56,65.8498053662806
10392,-8.369495,-3.690331,4.10728,-0.003665,-0.097738,-0.009774,31.56,65.8183964823906
10402,-8.364112,-3.686741,4.121039,-0.00733,-0.094073,-0.012675,31.57,65.7317521525865
10412,-8.365308,-3.694518,4.13719,-0.011759,-0.089186,-0.015424,31.53,65.6576361485825
10422,-8.367702,-3.686741,4.128217,-0.014966,-0.083841,-0.01909,31.53,65.7020924383236
10432,-8.35813,-3.69392,4.148556,-0.019548,-0.077274,-0.021838,31.55,65.5824940921517
10442,-8.35155,-3.686741,4.141378,-0.022449,-0.070402,-0.024129,31.55,65.5987763881367
10452,-8.338987,-3.673581,4.147958,-0.027031,-0.061697,-0.027794,31.58,65.5247542700976
10462,-8.342576,-3.683152,4.149753,-0.029627,-0.052993,-0.028863,31.58,65.5323418586229
10472,-8.333005,-3.686741,4.150949,-0.033445,-0.04444,-0.031307,31.6,65.5088040511266
10482,-8.328817,-3.692724,4.156333,-0.036194,-0.035277,-0.031765,31.6,65.4774350518896
10492,-8.333005,-3.675974,4.152744,-0.037874,-0.025656,-0.032223,31.57,65.489129691973
10502,-8.319845,-3.706482,4.139583,-0.040164,-0.016341,-0.032681,31.57,65.558501013055
10512,-8.306085,-3.685545,4.142574,-0.041386,-0.006109,-0.030849,31.62,65.492840261311
10522,-8.31147,-3.697509,4.143172,-0.041386,0.003207,-0.029627,31.62,65.5129718866683
10532,-8.316854,-3.699902,4.130012,-0.042608,0.012217,-0.027489,31.54,65.5956179698669
10542,-8.299506,-3.705884,4.122834,-0.043066,0.02138,-0.025045,31.54,65.6013351117794
10552,-8.302496,-3.716652,4.108477,-0.041539,0.02978,-0.021075,31.55,65.6932835842433
10562,-8.292327,-3.710072,4.109075,-0.040623,0.045051,-0.013286,31.55,65.6618387570224
10572,-8.285748,-3.716054,4.101298,-0.037874,0.052993,-0.007789,31.57,65.6941507184768
10582,-8.3013,-3.711866,4.094718,-0.036041,0.05849,-0.003054,31.57,65.7581208387774
10592,-8.309675,-3.725625,4.088736,-0.03375,0.06353,0.002902,31.57,65.8206922227122
10602,-8.296515,-3.731607,4.082754,-0.030849,0.067653,0.008552,31.59,65.8295625254785
10612,-8.30489,-3.736991,4.07737,-0.028253,0.071013,0.013286,31.59,65.880918973675
10622,-8.320443,-3.732804,4.063013,-0.02642,0.074373,0.016952,31.57,65.985366783281
10632,-8.32463,-3.736991,4.064807,-0.024587,0.075747,0.02138,31.57,65.988885985544
10642,-8.335398,-3.735795,4.055236,-0.021838,0.076358,0.025504,31.57,66.0607867039281
10652,-8.335996,-3.738786,4.054638,-0.019242,0.076511,0.029016,31.57,66.0680350423165
10662,-8.353344,-3.744768,4.046263,-0.017562,0.074831,0.032223,31.59,66.1542995791469
10672,-8.36112,-3.735196,4.039085,-0.016035,0.072846,0.034514,31.59,66.1992605015183
10682,-8.37129,-3.738786,4.044468,-0.013897,0.070402,0.036499,31.59,66.1959041817857
10692,-8.376674,-3.736392,4.034897,-0.013744,0.066126,0.037415,31.59,66.2550690002045
10702,-8.38445,-3.744768,4.0337,-0.013286,0.061697,0.037721,31.55,66.2855151292647
10712,-8.395817,-3.742374,4.039085,-0.013286,0.05681,0.036499,31.55,66.2789653865455
10722,-8.404789,-3.736991,4.031906,-0.013286,0.05116,0.036194,31.55,66.3302484843575
10732,-8.419147,-3.748955,4.026522,-0.01405,0.045051,0.031001,31.55,66.399466683437
10742,-8.408977,-3.741776,4.035496,-0.017257,0.03207,0.027489,31.62,66.3247122745207
10752,-8.433504,-3.738786,4.033103,-0.018784,0.025045,0.02306,31.59,66.3856334412576
10762,-8.425129,-3.739982,4.035496,-0.020922,0.018631,0.018631,31.59,66.3567937148694
10772,-8.435897,-3.74716,4.041477,-0.023213,0.013134,0.013439,31.62,66.3547245339892
10782,-8.432905,-3.745365,4.046263,-0.026267,0.006872,0.00901,31.62,66.3218945067961
10792,-8.430512,-3.733402,4.029513,-0.02978,0.000153,0.002749,31.61,66.3931491936055
10802,-8.493324,-3.668197,3.934997,-0.02474,0.001527,-0.006414,31.61,66.9584360812572
10812,-8.426325,-3.728018,4.051049,-0.015119,0.006109,-0.017868,31.55,66.2671221954853
10822,-8.422735,-3.725027,4.063612,-0.018631,0.001833,-0.022449,31.55,66.1913702288231
10832,-8.413763,-3.719643,4.052843,-0.021686,-0.001069,-0.026114,31.58,66.2236367495278
10842,-8.404191,-3.735196,4.055236,-0.025962,-0.003665,-0.030085,31.58,66.2055271701266
10852,-8.400003,-3.719643,4.052245,-0.029016,-0.007483,-0.033445,31.59,66.1978101886304
10862,-8.414959,-3.735196,4.050451,-0.03207,-0.010537,-0.036194,31.59,66.2530842973812
10872,-8.401799,-3.705286,4.006183,-0.035125,-0.012675,-0.038332,31.57,66.4292323499465
10882,-8.389236,-3.698706,3.953541,-0.028405,-0.004429,-0.042761,31.57,66.6736440899289
10892,-8.38804,-3.722634,4.049852,-0.02138,0.005803,-0.044746,31.57,66.1878993911359
10902,-8.379066,-3.721437,4.016951,-0.022602,0.003207,-0.044746,31.57,66.3401172652483
10912,-8.382656,-3.72383,4.015755,-0.023366,-0.004123,-0.042608,31.57,66.3561502574511
10922,-8.368299,-3.720241,4.013362,-0.022602,-0.007483,-0.040012,31.56,66.3352111627955
10932,-8.370691,-3.720241,3.996612,-0.021838,-0.013592,-0.037263,31.56,66.4281933147535
10942,-8.360522,-3.712464,3.995416,-0.020311,-0.018631,-0.033292,31.57,66.405907043674
10952,-8.357532,-3.713661,3.990032,-0.017562,-0.024587,-0.029474,31.57,66.4290751882368
10962,-8.349755,-3.713661,3.99063,-0.013897,-0.031001,-0.023366,31.54,66.4095976629235
10972,-8.34796,-3.725027,3.985844,-0.011759,-0.037263,-0.018326,31.54,66.4416616978061
10982,-8.34138,-3.714857,3.988835,-0.008399,-0.044135,-0.012523,31.57,66.4025684663569
10992,-8.350353,-3.713063,3.987639,-0.004276,-0.049938,-0.006261,31.57,66.4260464443691
11002,-8.338987,-3.709473,3.990032,-0.000153,-0.056963,0.000458,31.54,66.3861838407261
11012,-8.338987,-3.713063,3.985246,0.003207,-0.06353,0.00672,31.54,66.4147730944377
11022,-8.340781,-3.699902,4.005585,0.006414,-0.06918,0.013439,31.5,66.299074445983
11032,-8.344969,-3.705286,4.021737,0.009774,-0.074831,0.01909,31.5,66.2280189381896
11042,-8.338388,-3.703491,4.026522,0.01237,-0.079107,0.025198,31.54,66.1872444134631
11052,-8.341978,-3.698706,4.034897,0.014813,-0.082467,0.031307,31.54,66.1463529722148
11062,-8.344371,-3.699304,4.044468,0.016188,-0.084758,0.036041,31.54,66.1017563961702
11072,-8.330013,-3.688536,4.065406,0.017257,-0.086285,0.040317,31.54,65.951120293308
11082,-8.349755,-3.7005,4.086343,0.017562,-0.085216,0.045204,31.6,65.8950634193719
11092,-8.344969,-3.698107,4.110869,0.01573,-0.082009,0.047647,31.56,65.7544359975661
11102,-8.343175,-3.688536,4.116253,0.013286,-0.077885,0.048564,31.56,65.7133668440672
11112,-8.353344,-3.697509,4.135994,0.010232,-0.071929,0.047037,31.57,65.6409406079474
11122,-8.338388,-3.689135,4.141378,0.00672,-0.06521,0.045968,31.57,65.5726087385247
11132,-8.346166,-3.690331,4.159324,0.003054,-0.057116,0.043371,31.58,65.4972075840093
11142,-8.34796,-3.696313,4.169494,-0.000764,-0.04948,0.04047,31.58,65.4539944027479
11152,-8.346764,-3.689135,4.164708,-0.005498,-0.039401,0.036805,31.55,65.4693748164453
11162,-8.35155,-3.69392,4.171886,-0.009927,-0.028405,0.032834,31.55,65.447064357873
11172,-8.352147,-3.698107,4.178466,-0.013286,-0.017562,0.026573,31.58,65.4182351463331
11182,-8.352745,-3.689733,4.180261,-0.017715,-0.007025,0.021228,31.58,65.4021820561372
11192,-8.357532,-3.701697,4.171288,-0.021838,0.003971,0.01573,31.52,65.470586803175
11202,-8.364112,-3.707081,4.175476,-0.025045,0.015119,0.010537,31.52,65.4682680832064
11212,-8.357532,-3.697509,4.177869,-0.028863,0.025045,0.004123,31.55,65.4324365360111
11222,-8.347363,-3.708277,4.161119,-0.031918,0.034819,-0.002138,31.55,65.5076898305354
11232,-8.356335,-3.718446,4.154539,-0.033903,0.043066,-0.008247,31.57,65.5709955523636
11242,-8.365308,-3.703491,4.133601,-0.036346,0.051924,-0.013897,31.57,65.6848354623577
11252,-8.362915,-3.714857,4.12403,-0.037874,0.058643,-0.022449,31.55,65.7403117375425
11262,-8.368299,-3.717848,4.12403,-0.040775,0.069486,-0.027336,31.59,65.7546918547179
11272,-8.362915,-3.721437,4.103093,-0.041844,0.073151,-0.030849,31.59,65.855613101882
11282,-8.367103,-3.721437,4.098307,-0.041997,0.076205,-0.034667,31.57,65.8894930474962
11292,-8.370093,-3.716652,4.082754,-0.042913,0.077885,-0.036957,31.57,65.9724538829346
11302,-8.368897,-3.724428,4.075575,-0.043371,0.077733,-0.039095,31.56,66.0147319537056
11312,-8.367103,-3.728616,4.055236,-0.04383,0.077122,-0.040775,31.56,66.121165108643
11322,-8.366504,-3.736392,4.05404,-0.043219,0.075289,-0.041997,31.54,66.1334858104894
11332,-8.370691,-3.73041,4.051647,-0.042913,0.071777,-0.042455,31.54,66.149207267099
11342,-8.376076,-3.73041,4.024727,-0.043677,0.067806,-0.041692,31.59,66.3014642285171
11352,-8.373683,-3.727419,4.022933,-0.043982,0.063835,-0.040928,31.59,66.3030388407231
11362,-8.372486,-3.737589,4.030112,-0.04383,0.058796,-0.039095,31.59,66.2724391137986
11372,-8.373085,-3.727419,4.017549,-0.043677,0.052534,-0.038026,31.59,66.3300086301391
11382,-8.372486,-3.725027,4.004389,-0.042455,0.045968,-0.034819,31.55,66.3955675422902
11392,-8.365308,-3.731607,3.999603,-0.041844,0.038943,-0.032223,31.55,66.4118035014714
11402,-8.370691,-3.729214,3.999005,-0.041844,0.031307,-0.030238,31.57,66.4239840214848
11412,-8.371889,-3.728018,3.989433,-0.040164,0.025045,-0.025198,31.57,66.4756677592683
11422,-8.368897,-3.736392,3.985844,-0.038485,0.018326,-0.020922,31.58,66.4960832453414
11432,-8.362915,-3.732205,3.991228,-0.036957,0.002902,-0.012981,31.59,66.4513676018128
11442,-8.352745,-3.738187,3.99063,-0.035277,-0.003971,-0.008399,31.59,66.4388204869977
11452,-8.374281,-3.731009,3.986442,-0.033139,-0.009621,-0.003665,31.56,66.4991677112227
11462,-8.364112,-3.724428,3.996014,-0.030849,-0.015882,0.001069,31.56,66.421453450726
11472,-8.355738,-3.718446,3.99721,-0.028405,-0.021991,0.005956,31.57,66.3920085396602
11482,-8.357532,-3.720241,4.006183,-0.02642,-0.026878,0.011148,31.57,66.3502806692815
11492,-8.359326,-3.722634,4.016353,-0.023366,-0.031612,0.015272,31.61,66.3028771165704
11502,-8.358727,-3.725625,4.01396,-0.020159,-0.035736,0.020006,31.61,66.316984753145
11512,-8.36112,-3.728616,4.015755,-0.018173,-0.039095,0.023976,31.61,66.3153988617355
11522,-8.357532,-3.71067,4.02413,-0.016188,-0.041997,0.027336,31.61,66.2470541990688
11532,-8.359925,-3.719643,4.034299,-0.014661,-0.04444,0.031154,31.57,66.2071829075019
11542,-8.362316,-3.715455,4.045067,-0.013134,-0.046578,0.033445,31.57,66.1518738825948
11552,-8.368897,-3.712464,4.04746,-0.011606,-0.046578,0.034972,31.59,66.1504573630107
11562,-8.370093,-3.713063,4.056432,-0.011148,-0.047495,0.036346,31.59,66.1066022553313
11572,-8.370691,-3.715455,4.053442,-0.011454,-0.047647,0.037263,31.59,66.1257565058954
11582,-8.379066,-3.71725,4.069593,-0.011301,-0.0478,0.037721,31.59,66.0607670386628
11592,-8.484949,-3.735196,4.001996,-0.012065,-0.047037,0.037568,31.53,66.6510237126544
11602,-8.368299,-3.716054,4.08754,-0.003818,-0.049022,0.0197,31.53,65.9430968572943
11612,-8.375478,-3.707679,4.092923,-0.005192,-0.047037,0.018784,31.55,65.922400346087
11622,-8.377273,-3.711866,4.096512,-0.008705,-0.044899,0.016952,31.57,65.9114660371998
11632,-8.37129,-3.718446,4.097709,-0.012217,-0.042455,0.015424,31.57,65.8987000652521
11642,-8.370691,-3.720839,4.1007,-0.015424,-0.039095,0.013897,31.56,65.884102711058
11652,-8.383853,-3.713661,4.1007,-0.01909,-0.036652,0.012675,31.56,65.9053563871175
11662,-8.383853,-3.729812,4.071986,-0.023671,-0.034819,0.009468,31.55,66.0702265635163
11672,-8.4012,-3.731607,4.066602,-0.020617,-0.027031,0.004276,31.55,66.1366113159721
11682,-8.379066,-3.707679,4.099504,-0.019853,-0.020617,0.000305,31.56,65.8957454059711
11692,-8.355738,-3.716652,4.091129,-0.023366,-0.019242,-0.002291,31.56,65.8981602937453
11702,-8.376674,-3.721437,4.096512,-0.026573,-0.017562,-0.00336,31.58,65.9192316701369
11712,-8.377871,-3.725625,4.084548,-0.028863,-0.016493,-0.004581,31.58,65.9880898338682
11722,-8.356933,-3.721437,4.082754,-0.031154,-0.01573,-0.005956,31.57,65.9489783732126
11732,-8.360522,-3.728018,4.079762,-0.031918,-0.016341,-0.00672,31.57,65.9784778949645
11742,-8.36112,-3.726821,4.064807,-0.032681,-0.016952,-0.007789,31.56,66.0567546098747
11752,-8.347363,-3.724428,4.061218,-0.032681,-0.016799,-0.006567,31.56,66.0440700608468
11762,-8.362316,-3.732804,4.052245,-0.031612,-0.017257,-0.005498,31.56,66.1306386420962
11772,-8.332406,-3.721437,4.054638,-0.029016,-0.016493,-0.004429,31.56,66.0439125823487
11782,-8.344371,-3.727419,4.056432,-0.02306,-0.016341,-0.001833,31.59,66.0656127970603
11792,-8.346166,-3.728018,4.061816,-0.020922,-0.017104,-0.000611,31.55,66.0418013275757
11802,-8.33121,-3.729812,4.055834,-0.016952,-0.016799,0.002138,31.55,66.043062673504
11812,-8.33121,-3.719643,4.063013,-0.012981,-0.016646,0.004429,31.59,65.9957590783897
11822,-8.321639,-3.728018,4.071388,-0.009621,-0.015577,0.006261,31.59,65.9394511562618
11832,-8.330612,-3.720839,4.066602,-0.006567,-0.014355,0.009621,31.55,65.9768172635384
11842,-8.325827,-3.728018,4.079165,-0.004276,-0.012523,0.010385,31.55,65.9076694098874
11852,-8.3348,-3.708875,4.079762,-0.00168,-0.009927,0.012065,31.55,65.9054595509576
11862,-8.34796,-3.713063,4.092923,0.000611,-0.006567,0.013744,31.55,65.8687704477892
11872,-8.397013,-3.710072,4.101298,0.00168,-0.007178,0.013134,31.57,65.9268653392177
11882,-8.347363,-3.701099,4.112065,0.001069,-0.014203,0.006872,31.57,65.7561876109267
11892,-8.350951,-3.702295,4.108477,0.000611,-0.014661,0.004734,31.59,65.783744974719
11902,-8.373683,-3.695715,4.12044,-0.000458,-0.012217,0.005192,31.59,65.763910074259
11912,-8.366504,-3.68734,4.133003,-0.002443,-0.014355,0.001833,31.56,65.6751755061762
11922,-8.356335,-3.69392,4.127619,-0.005803,-0.017104,-0.003207,31.56,65.6875682925402
11932,-8.352147,-3.674777,4.12403,-0.009468,-0.016341,-0.006261,31.5,65.6790586702146
11942,-8.342576,-3.689733,4.118646,-0.011606,-0.012675,-0.01069,31.5,65.7007302790148
11952,-8.342576,-3.681358,4.131208,-0.014966,0.006261,-0.011759,31.56,65.6272323292593
11962,-8.353344,-3.70409,4.122235,-0.017257,0.018479,-0.013286,31.62,65.7188643410497
11972,-8.352147,-3.70409,4.122235,-0.019548,0.030696,-0.014355,31.62,65.7162922926188
11982,-8.36471,-3.713063,4.134798,-0.021686,0.040317,-0.016952,31.54,65.6864408395805
11992,-8.357532,-3.703491,4.11745,-0.024435,0.048106,-0.021075,31.54,65.7522177192962
12002,-8.368897,-3.705286,4.115655,-0.028711,0.054978,-0.023824,31.57,65.7876318192432
12012,-8.365907,-3.714857,4.105485,-0.032376,0.058796,-0.027184,31.57,65.8432901123156
12022,-8.366504,-3.715455,4.102495,-0.036652,0.06185,-0.030238,31.58,65.8607146456075
12032,-8.373085,-3.713063,4.088736,-0.039554,0.063683,-0.032376,31.58,65.944219958083
12042,-8.382057,-3.721437,4.067799,-0.042302,0.064141,-0.034514,31.51,66.080402074962
12052,-8.382057,-3.705884,4.068397,-0.04383,0.063835,-0.035736,31.51,66.0626825788256
12062,-8.376076,-3.715455,4.055834,-0.044899,0.061087,-0.036041,31.54,66.1246405743985
12072,-8.370691,-3.716054,4.046263,-0.045357,0.059407,-0.035277,31.54,66.1638856541797
12082,-8.372486,-3.719045,4.027121,-0.045662,0.056047,-0.033445,31.56,66.2707370100481
12092,-8.359326,-3.736392,4.024727,-0.044746,0.052229,-0.031918,31.56,66.2718569561356
12102,-8.355139,-3.725625,4.008576,-0.043066,0.047342,-0.028863,31.56,66.3377179934702
12112,-8.355139,-3.731607,3.995416,-0.040775,0.041386,-0.025504,31.56,66.4124994602108
12122,-8.35454,-3.725625,3.993621,-0.036041,0.029322,-0.014661,31.57,66.415086159404
12132,-8.34796,-3.731009,3.999603,-0.032681,0.023518,-0.009621,31.58,66.3748529530182
12142,-8.34138,-3.724428,3.991827,-0.030085,0.016952,-0.003818,31.58,66.3957784817821
12152,-8.355139,-3.735795,3.992425,-0.0281,0.009621,0.002596,31.59,66.4321513577483
12162,-8.344969,-3.734598,3.991827,-0.023976,0.003665,0.00733,31.59,66.4128583575021
12172,-8.344371,-3.732205,3.99063,-0.021075,-0.001833,0.01405,31.53,66.415658896264
12182,-8.355139,-3.735795,3.99721,-0.018326,-0.007789,0.020464,31.53,66.4069897189057
12192,-8.358727,-3.739383,4.003192,-0.015272,-0.013286,0.025809,31.54,66.3864378937769
12202,-8.35155,-3.744169,4.011567,-0.012675,-0.018479,0.031612,31.54,66.3318888114606
12212,-8.352745,-3.74058,4.015755,-0.011148,-0.023824,0.035888,31.52,66.3090315546935
12222,-8.355139,-3.739982,4.023531,-0.009163,-0.027642,0.039554,31.52,66.2726978852608
12232,-8.365907,-3.738187,4.031308,-0.007636,-0.030391,0.042302,31.52,66.2528994636094
12242,-8.367103,-3.736392,4.032505,-0.005651,-0.033903,0.045815,31.52,66.2474585043718
12252,-8.377871,-3.735196,4.034897,-0.004734,-0.036346,0.047037,31.56,66.2564644360688
12262,-8.388638,-3.742973,4.057629,-0.003818,-0.037874,0.048258,31.56,66.1676111810223
12272,-8.386844,-3.73041,4.051647,-0.004276,-0.039554,0.047647,31.57,66.1832809566991
12282,-8.38146,-3.73041,4.067201,-0.004581,-0.041233,0.046578,31.57,66.0906977454144
12292,-8.390432,-3.734598,4.064807,-0.003971,-0.043524,0.04444,31.54,66.1260724479828
12302,-8.404191,-3.715455,4.068397,-0.005345,-0.043677,0.040164,31.55,66.118465593034
12312,-8.402995,-3.716652,4.08395,-0.00672,-0.043524,0.037721,31.55,66.0360216926253
12322,-8.392226,-3.728018,4.08754,-0.00733,-0.043982,0.033598,31.52,66.0051923019605
12332,-8.38804,-3.72383,4.08754,-0.009468,-0.043677,0.028711,31.52,65.9923778876351
12342,-8.407183,-3.719643,4.089932,-0.011759,-0.043677,0.024587,31.56,66.0165512901208
12352,-8.403594,-3.725027,4.095914,-0.014203,-0.043524,0.0197,31.56,65.9828843407278
12362,-8.411968,-3.716652,4.086941,-0.016188,-0.043371,0.013897,31.57,66.0394384738915
12372,-8.407183,-3.728018,4.097709,-0.01909,-0.042302,0.007636,31.57,65.9839610492366
12382,-8.399406,-3.712464,4.101298,-0.021533,-0.04047,0.002291,31.53,65.9341982978829
12392,-8.389835,-3.713063,4.095316,-0.02474,-0.040317,-0.002596,31.53,65.9455547169528
12402,-8.400601,-3.727419,4.099504,-0.0281,-0.039401,-0.008552,31.56,65.9601210715193
12412,-8.373683,-3.716652,4.098905,-0.030543,-0.037721,-0.013744,31.56,65.8958689667778
12422,-8.387442,-3.722036,4.091129,-0.033445,-0.035736,-0.017562,31.55,65.9707241443822
12432,-8.379665,-3.702893,4.100101,-0.036805,-0.034056,-0.021991,31.55,65.8893994031973
12442,-8.362915,-3.705286,4.098905,-0.039706,-0.031918,-0.025045,31.59,65.8621331723978
12452,-8.355738,-3.711268,4.092923,-0.042302,-0.029932,-0.0281,31.59,65.8836858865044
12462,-8.348558,-3.693322,4.088138,-0.044135,-0.027336,-0.031154,31.55,65.8763188630495
12472,-8.356933,-3.684349,4.01396,-0.048106,-0.021533,-0.031612,31.54,66.2746120788837
12482,-8.338388,-3.678965,3.994219,-0.033903,-0.001069,-0.036194,31.54,66.3343292649289
12492,-8.329416,-3.708277,4.088138,-0.023824,0.016035,-0.03879,31.55,65.8495319763622
12502,-8.327621,-3.698107,4.089334,-0.024893,0.018937,-0.03711,31.55,65.8297233877111
12512,-8.329416,-3.696313,4.071986,-0.025962,0.022449,-0.034361,31.59,65.9227229854273
12522,-8.31446,-3.696911,4.064807,-0.02642,0.025045,-0.03146,31.59,65.9289162250579
12532,-8.313264,-3.695116,4.061816,-0.026725,0.027336,-0.027642,31.57,65.9403473873854
12542,-8.319246,-3.686741,4.061218,-0.025045,0.02978,-0.024587,31.57,65.9483400881387
12552,-8.316256,-3.686741,4.052245,-0.024587,0.031765,-0.01909,31.57,65.9890736027782
12562,-8.326425,-3.695116,4.053442,-0.024129,0.031918,-0.014661,31.57,66.0124663447481
12572,-8.331809,-3.695116,4.051647,-0.021686,0.033292,-0.010843,31.59,66.0333796697014
12582,-8.33121,-3.699902,4.052245,-0.019548,0.033903,-0.005651,31.59,66.0334932276419
12592,-8.34138,-3.698706,4.043272,-0.017257,0.033292,-0.000916,31.57,66.1011109498534
12602,-8.329416,-3.694518,4.039683,-0.015882,0.033445,0.003971,31.57,66.0905495982719
12612,-8.35454,-3.695715,4.035496,-0.013897,0.032681,0.007789,31.57,66.1670481400666
12622,-8.350951,-3.707679,4.040281,-0.011912,0.031918,0.012217,31.57,66.1455754227727
12632,-8.353942,-3.695715,4.039085,-0.009163,0.030543,0.01573,31.53,66.1469480251826
12642,-8.36112,-3.693322,4.044468,-0.005651,0.027642,0.020922,31.53,66.1317026215061
12682,-8.383254,-3.705884,4.067799,-0.003512,0.021533,0.025809,31.56,66.068343410028
12692,-8.388638,-3.7005,4.060022,-0.004734,0.020159,0.024893,31.56,66.1153353712211
12702,-8.399406,-3.703491,4.076173,-0.005345,0.019242,0.024282,31.59,66.0566361306337
12712,-8.392226,-3.706482,4.070191,-0.007025,0.017868,0.023366,31.59,66.0754258768482
12722,-8.405987,-3.716054,4.075575,-0.008705,0.017104,0.021533,31.59,66.0854098756739
12732,-8.401799,-3.711268,4.058227,-0.011606,0.015424,0.01909,31.59,66.1625626264442
12742,-8.404191,-3.719045,4.068397,-0.014813,0.013897,0.015272,31.57,66.1218171311241
12752,-8.402397,-3.712464,4.072584,-0.016493,0.013592,0.011759,31.57,66.090056186497
12762,-8.408977,-3.719045,4.067799,-0.020311,0.012828,0.00901,31.55,66.1350295415785
12772,-8.39462,-3.728616,4.068995,-0.023366,0.010996,0.005192,31.55,66.107454431198
12782,-8.4012,-3.731009,4.057629,-0.02642,0.009468,0.00168,31.54,66.1828426350242
12792,-8.413164,-3.735196,4.06062,-0.029474,0.00672,-0.002749,31.54,66.1963136082894
12802,-8.409575,-3.736392,4.052843,-0.032834,0.003818,-0.008094,31.57,66.230431309234
12812,-8.406584,-3.743571,4.042674,-0.035125,-0.002443,-0.01405,31.57,66.2839056841636
12822,-8.388638,-3.741179,4.030112,-0.039554,-0.00672,-0.017562,31.58,66.3097056487738
12832,-8.391629,-3.742973,4.034897,-0.041692,-0.011301,-0.020006,31.57,66.2926311684242
12842,-8.389236,-3.738786,4.03071,-0.042608,-0.017104,-0.022907,31.57,66.3055946781634
12852,-8.39462,-3.748357,4.027121,-0.043066,-0.022755,-0.023976,31.55,66.3445801097675
12862,-8.377871,-3.742973,4.023531,-0.043982,-0.029322,-0.025504,31.55,66.3232575505068
12872,-8.38445,-3.748955,4.016951,-0.042913,-0.035277,-0.026114,31.59,66.3770892382
12882,-8.383254,-3.741179,4.013362,-0.041233,-0.041386,-0.025198,31.59,66.3861235660283
12892,-8.36471,-3.739982,4.016353,-0.040012,-0.048106,-0.024893,31.59,66.3304653822564
12902,-8.363514,-3.739383,4.015156,-0.038332,-0.054214,-0.022907,31.59,66.333672067095
12912,-8.364112,-3.746562,4.019942,-0.036194,-0.059254,-0.020922,31.54,66.3165695823368
12922,-8.356933,-3.734,4.016353,-0.03375,-0.064294,-0.018326,31.54,66.3085093719991
12932,-8.345568,-3.745964,4.016951,-0.030543,-0.068264,-0.016188,31.57,66.2927356448733
12942,-8.339585,-3.742374,4.026522,-0.027489,-0.072235,-0.011912,31.57,66.2264875710465
12952,-8.338987,-3.732205,4.036094,-0.02474,-0.074984,-0.008247,31.59,66.1653577658148
12962,-8.347363,-3.734,4.045067,-0.021838,-0.076816,-0.005345,31.59,66.1377278752425
13042,-8.328219,-3.710072,4.127619,-0.010996,-0.040012,0.018021,31.52,65.6424365378259
13062,-8.330013,-3.709473,4.140181,-0.012523,-0.021991,0.020617,31.55,65.580254980126
13082,-8.328817,-3.698107,4.139583,-0.015882,-0.002749,0.020617,31.55,65.5698566986571
13092,-8.324032,-3.687938,4.139583,-0.019395,0.006872,0.020159,31.55,65.5497243887651
13112,-8.337193,-3.699902,4.130012,-0.024435,0.024587,0.018631,31.54,65.639562829979
13122,-8.346764,-3.699902,4.135994,-0.027336,0.031918,0.017715,31.61,65.6290411283482
13132,-8.359925,-3.7005,4.124628,-0.030085,0.039401,0.016341,31.61,65.7171217529543
13142,-8.344371,-3.698107,4.125226,-0.032681,0.046731,0.015119,31.55,65.678268419776
13152,-8.356335,-3.703491,4.109673,-0.035125,0.05284,0.014508,31.55,65.790188282126
13162,-8.361719,-3.7005,4.09711,-0.040317,0.06017,0.013134,31.55,65.8644114239925
13172,-8.362316,-3.702295,4.08754,-0.04215,0.062308,0.01237,31.56,65.9173404497332
13182,-8.373085,-3.711268,4.058825,-0.043677,0.063377,0.011454,31.56,66.0987392451631
13192,-8.435298,-3.729812,3.951746,-0.03543,0.067501,0.005651,31.57,66.8067379114679
13202,-8.359925,-3.709473,4.051049,-0.024282,0.072235,-0.004123,31.57,66.1098525400047
13212,-8.358727,-3.708875,4.049254,-0.02474,0.070555,-0.004429,31.55,66.1161516316783
13222,-8.372486,-3.711866,4.040281,-0.025045,0.068264,-0.002291,31.55,66.1950720890708
13232,-8.359925,-3.711866,4.02413,-0.025656,0.064599,-0.000764,31.55,66.2532260997206
13242,-8.365907,-3.723232,4.019344,-0.024893,0.061392,0.00168,31.55,66.3015893000331
13252,-8.365907,-3.714857,4.015156,-0.025045,0.055894,0.002596,31.55,66.3157332479252
13262,-8.374879,-3.708277,4.011567,-0.024282,0.049175,0.003971,31.55,66.3473056587354
13272,-8.370093,-3.715455,4.012764,-0.024129,0.043066,0.004887,31.58,66.3376518055704
13282,-8.383853,-3.722634,4.009772,-0.022907,0.036805,0.006872,31.58,66.3889141000232
13292,-8.398808,-3.72383,4.012764,-0.021686,0.030238,0.007636,31.59,66.4056470711587
13302,-8.38445,-3.718446,3.999603,-0.020311,0.02306,0.008552,31.59,66.439623499955
13312,-8.402397,-3.731009,4.016353,-0.0197,0.015424,0.00901,31.56,66.4010183919491
13322,-8.388638,-3.71725,4.012166,-0.01909,0.008552,0.008705,31.56,66.381384294081
13332,-8.392825,-3.727419,4.008576,-0.018479,-0.004581,0.007789,31.55,66.4184078358688
13342,-8.395817,-3.717848,4.017549,-0.016646,-0.010996,0.006872,31.56,66.3687775532825
13352,-8.395817,-3.708277,4.019942,-0.016493,-0.017257,0.006109,31.56,66.3473685298897
13362,-8.405987,-3.725027,4.025326,-0.016188,-0.022755,0.005803,31.58,66.3560359429897
13372,-8.39821,-3.719045,4.033103,-0.015882,-0.027336,0.003971,31.58,66.2935068059558
13382,-8.395219,-3.716652,4.043272,-0.015424,-0.030696,0.003054,31.58,66.2318247828611
13392,-8.405987,-3.709473,4.040281,-0.01573,-0.034819,0.001527,31.58,66.2634322407107
13402,-8.401799,-3.714857,4.048656,-0.016341,-0.038332,0.000611,31.56,66.2158738077357
13412,-8.403594,-3.725027,4.051049,-0.017104,-0.041081,-0.00168,31.56,66.2166295799978
13422,-8.39462,-3.71725,4.055834,-0.017104,-0.042761,-0.001833,31.55,66.1654928423103
13432,-8.396414,-3.721437,4.057629,-0.01741,-0.044746,-0.003665,31.55,66.1638164178154
13442,-8.391031,-3.722036,4.066602,-0.018784,-0.04612,-0.006109,31.58,66.1061881035021
13452,-8.385049,-3.71725,4.064209,-0.01909,-0.046273,-0.007025,31.58,66.1015456100199
13462,-8.391031,-3.721437,4.065406,-0.020159,-0.047189,-0.00901,31.54,66.1118675042166
13472,-8.390432,-3.719643,4.081557,-0.020922,-0.047342,-0.010079,31.54,66.0246872620657
13482,-8.386844,-3.722036,4.074379,-0.021686,-0.047495,-0.011606,31.53,66.0567617298441
13492,-8.379665,-3.723232,4.078567,-0.021838,-0.047189,-0.012065,31.53,66.0208317686748
13502,-8.374879,-3.714259,4.074977,-0.022449,-0.045815,-0.014661,31.57,66.0209622461548
13512,-8.371889,-3.731009,4.07737,-0.02474,-0.044899,-0.015882,31.53,66.0179269006789
13522,-8.370093,-3.720839,4.075575,-0.025045,-0.044135,-0.017715,31.53,66.013882186501
13532,-8.374281,-3.722036,4.080361,-0.025809,-0.043371,-0.018784,31.59,65.9989216719434
13542,-8.362915,-3.712464,4.077968,-0.027794,-0.041844,-0.01909,31.59,65.9782195655741
13552,-8.374879,-3.697509,3.965506,-0.025656,-0.03711,-0.019853,31.55,66.5795773825342
13562,-8.345568,-3.714857,4.049852,-0.011759,-0.017104,-0.024893,31.55,66.0907398093436
13572,-8.353942,-3.716652,4.077968,-0.007025,-0.008399,-0.025809,31.58,65.9630788297016
13582,-8.350951,-3.718446,4.082754,-0.008247,-0.00672,-0.02642,31.58,65.9333949505506
13592,-8.341978,-3.719643,4.076173,-0.010385,-0.005192,-0.02474,31.54,65.9498082050354
13602,-8.353344,-3.717848,4.078567,-0.011606,-0.003818,-0.025504,31.54,65.9598079798019
13612,-8.346764,-3.717848,4.080959,-0.014203,-0.001222,-0.024435,31.54,65.9332803753566
13622,-8.346166,-3.723232,4.075575,-0.015272,0.000458,-0.023366,31.54,65.9652714617039
13632,-8.342576,-3.719045,4.076771,-0.016341,0.002138,-0.022144,31.54,65.9473866938113
13642,-8.335996,-3.719045,4.071388,-0.017715,0.003054,-0.020311,31.54,65.9615248070263
13652,-8.328817,-3.716652,4.068995,-0.018326,0.00504,-0.018631,31.6,65.9564628746811
13662,-8.334201,-3.716054,4.067799,-0.019395,0.006414,-0.01573,31.6,65.9736464162071
13672,-8.343175,-3.71067,4.070191,-0.020617,0.007025,-0.013439,31.56,65.975143993772
13682,-8.34138,-3.725625,4.067201,-0.021686,0.009927,-0.007178,31.55,66.001168392248
13692,-8.337791,-3.723232,4.068397,-0.021228,0.010079,-0.002902,31.55,65.9849922432963
13702,-8.3348,-3.720839,4.063612,-0.02138,0.011912,0.000764,31.55,66.0014059589639
13712,-8.356335,-3.715455,4.063013,-0.021228,0.012217,0.003054,31.55,66.0452439694159
13722,-8.335996,-3.728616,4.059424,-0.020311,0.013286,0.00733,31.55,66.0332860353325
13732,-8.337193,-3.721437,4.057629,-0.0197,0.013439,0.010843,31.55,66.0384157410184
13742,-8.352147,-3.716652,4.056432,-0.018021,0.014355,0.01405,31.52,66.0719290800604
13752,-8.344371,-3.721437,4.061218,-0.016952,0.015119,0.016799,31.52,66.034877223464
13762,-8.353344,-3.714857,4.052843,-0.015577,0.01573,0.01909,31.54,66.0915709027679
13772,-8.34796,-3.72383,4.064209,-0.012981,0.016493,0.022297,31.54,66.0291161532403
13782,-8.361719,-3.720839,4.065406,-0.012675,0.016188,0.024282,31.6,66.0492422492078
13792,-8.35155,-3.717848,4.057629,-0.010232,0.017715,0.025962,31.6,66.0655240087136
13802,-8.363514,-3.712464,4.052245,-0.00901,0.018479,0.027489,31.55,66.1140111649047
13812,-8.35813,-3.719643,4.061816,-0.007483,0.018937,0.028558,31.55,66.0592729895065
13822,-8.35813,-3.729214,4.06062,-0.005651,0.020464,0.030238,31.55,66.0745739672943
13832,-8.365308,-3.721437,4.067201,-0.004734,0.020617,0.030085,31.55,66.0480377695901
13842,-8.35813,-3.713063,4.073781,-0.003665,0.021228,0.030238,31.54,65.990483776046
13852,-8.380861,-3.720839,4.075575,-0.003207,0.022449,0.028405,31.54,66.0367234731817
13862,-8.377273,-3.731607,4.067799,-0.003054,0.023213,0.027642,31.55,66.0798492266664
13872,-8.38445,-3.721437,4.065406,-0.003971,0.02306,0.025656,31.57,66.0979572005821
13882,-8.376076,-3.722036,4.061816,-0.004276,0.022907,0.023366,31.57,66.0995559273947
13892,-8.380861,-3.726223,4.061816,-0.005651,0.022449,0.021533,31.53,66.113610103287
13902,-8.393424,-3.716054,4.058227,-0.006872,0.020159,0.018937,31.53,66.1493567819312
13912,-8.399406,-3.726821,4.063612,-0.009163,0.019242,0.016646,31.57,66.1439414411598
13922,-8.395219,-3.71725,4.059424,-0.011148,0.017257,0.013439,31.57,66.1480137153345
13932,-8.406584,-3.708875,4.052843,-0.013592,0.013897,0.009468,31.54,66.1985247741458
13942,-8.41137,-3.708875,4.061218,-0.015424,0.010232,0.006414,31.54,66.1649138665216
13952,-8.394022,-3.721437,4.050451,-0.017868,0.006414,0.003512,31.54,66.1962562621626
13962,-8.413164,-3.717848,4.044468,-0.020464,0.001985,-0.000458,31.54,66.264411888459
13972,-8.416155,-3.728018,4.041477,-0.023824,-0.003665,-0.004429,31.56,66.2957313378046
13982,-8.423334,-3.707081,4.040879,-0.025809,-0.00901,-0.007941,31.56,66.2945229493613
13992,-8.404191,-3.711866,4.028915,-0.028253,-0.013744,-0.011301,31.57,66.3213002877332
14002,-8.400003,-3.716054,4.036094,-0.030238,-0.019853,-0.015577,31.57,66.2788521860626
14012,-8.400003,-3.649653,3.897908,-0.03207,-0.026114,-0.018326,31.52,66.9453625419963
14022,-8.38804,-3.705286,4.025924,-0.02978,-0.017257,-0.031612,31.52,66.2969177724175
14032,-8.404191,-3.71725,4.043272,-0.014966,-0.020006,-0.032681,31.52,66.2512526964174
14042,-8.392226,-3.713661,4.038486,-0.017562,-0.023518,-0.034208,31.56,66.2477629203797
14052,-8.368897,-3.705884,4.050451,-0.018173,-0.027489,-0.035583,31.56,66.1286262811468
14062,-8.376674,-3.702893,4.045067,-0.018631,-0.030543,-0.035583,31.58,66.1704692035585
14072,-8.370093,-3.709473,4.046263,-0.019548,-0.032834,-0.035583,31.58,66.1564486122129
