t_ms,ax,ay,az,gx,gy,gz,temp,ang_deg
12,-8.346764,-3.608377,4.206582,-0.041844,-0.033292,0.068264,31.01,65.1747265959862
22,-8.365907,-3.619742,4.228716,-0.04215,0.005956,0.06521,31.02,65.1130453893436
32,-8.355738,-3.608975,4.235895,-0.043677,0.027184,0.061239,31.02,65.0431984363417
42,-8.385648,-3.628716,4.234099,-0.045051,0.049022,0.054825,31.06,65.1371746687204
52,-8.39462,-3.626323,4.23051,-0.048717,0.069333,0.048564,31.06,65.1731115243314
62,-8.407183,-3.631108,4.235895,-0.053145,0.089034,0.039554,31.04,65.177380884491
72,-8.403594,-3.628117,4.220341,-0.058185,0.108276,0.031612,31.04,65.2469353379795
82,-8.4347,-3.640081,4.209573,-0.065363,0.125533,0.021991,30.97,65.3814365495218
92,-8.458031,-3.656233,4.201199,-0.072082,0.140652,0.011606,30.97,65.4900828947821
102,-8.468798,-3.651447,4.177869,-0.078954,0.153327,0.000153,31,65.6289651479237
112,-8.479566,-3.668795,4.158128,-0.087354,0.16249,-0.011606,31,65.7697732056481
122,-8.492725,-3.667001,4.134798,-0.095753,0.170737,-0.023366,31.06,65.9164527641947
132,-8.502296,-3.68375,4.105485,-0.103847,0.175013,-0.034819,31.06,66.103349625037
142,-8.506484,-3.704688,4.070789,-0.11301,0.175929,-0.04612,31.02,66.3106448375278
152,-8.519646,-3.70409,4.038486,-0.120951,0.174097,-0.057879,31.02,66.5048438931944
162,-8.53161,-3.708875,4.009174,-0.128587,0.169668,-0.06857,31,66.6859312703176
172,-8.516056,-3.726223,3.985844,-0.136223,0.161574,-0.078802,31,66.7908875268213
182,-8.509476,-3.739982,3.916452,-0.143095,0.151647,-0.086743,31,67.1520479552454
192,-8.495118,-3.743571,3.882953,-0.153174,0.121715,-0.099571,30.99,67.3019629360186
202,-8.49452,-3.745365,3.855436,-0.156382,0.104,-0.102931,30.99,67.4470443067777
212,-8.487941,-3.751946,3.822534,-0.158061,0.084299,-0.104916,31,67.6131488288229
222,-8.46461,-3.763312,3.789633,-0.158061,0.062308,-0.104458,31,67.7508395156823
232,-8.449057,-3.762714,3.77408,-0.156076,0.039401,-0.102167,31.01,67.8020167949984
242,-8.4347,-3.765705,3.746562,-0.153633,0.014661,-0.096517,31.01,67.9226358457877
252,-8.422137,-3.765705,3.732205,-0.149815,-0.010843,-0.08995,31,67.9744112078071
262,-8.401799,-3.777071,3.719643,-0.143859,-0.036346,-0.080329,31,68.0114914459055
272,-8.385049,-3.768696,3.705286,-0.136223,-0.061239,-0.069333,31,68.0479488126416
282,-8.370093,-3.778267,3.706482,-0.127518,-0.087048,-0.056352,31,68.0205387062407
292,-8.345568,-3.771089,3.704688,-0.117286,-0.110567,-0.039248,31.05,67.9752561641498
302,-8.333604,-3.778267,3.708277,-0.105222,-0.133627,-0.022297,31.05,67.938669225254
312,-8.318049,-3.768098,3.716054,-0.093004,-0.154702,-0.003665,30.98,67.8566928953889
322,-8.306684,-3.764508,3.732804,-0.080023,-0.174249,0.015577,30.98,67.7405520689371
332,-8.303694,-3.754937,3.745365,-0.065363,-0.191506,0.036346,30.97,67.6582565140587
342,-8.298308,-3.739383,3.774678,-0.050702,-0.206778,0.056658,30.97,67.4756087615288
352,-8.299506,-3.744768,3.822534,-0.036805,-0.220522,0.077885,31.02,67.226472624175
362,-8.307282,-3.728616,3.856034,-0.022449,-0.238848,0.116523,31.02,67.0485368446376
372,-8.301898,-3.73041,3.88714,0.004276,-0.244193,0.13439,31,66.8732819531978
382,-8.323434,-3.711268,3.922434,0.01573,-0.247248,0.149815,31.02,66.712689973919
392,-8.318049,-3.708277,3.969693,0.025656,-0.247248,0.163254,31.02,66.4483500787144
402,-8.344969,-3.68734,4.00379,0.034514,-0.243888,0.174402,31.03,66.3056231270459
412,-8.342576,-3.687938,4.050451,0.041844,-0.237932,0.182496,31.03,66.0558353493726
422,-8.352745,-3.671786,4.098307,0.046426,-0.228769,0.188757,31.02,65.811780533154
432,-8.361719,-3.667001,4.14078,0.04948,-0.217163,0.190743,31.02,65.60509463696
442,-8.372486,-3.658028,4.173083,0.049633,-0.201738,0.189521,31.02,65.4520454060957
452,-8.372486,-3.651447,4.211967,0.046578,-0.184634,0.186467,31.02,65.2443398385017
462,-8.389236,-3.649653,4.24068,0.042913,-0.163254,0.180511,30.96,65.1310194276344
472,-8.399406,-3.631108,4.277769,0.035888,-0.140957,0.171042,30.96,64.9448076193688
482,-8.417352,-3.620341,4.301099,0.02642,-0.115454,0.160199,31.01,64.8544596499462
492,-8.422735,-3.614957,4.325027,0.014966,-0.089492,0.14615,31.01,64.738782013765
502,-8.42812,-3.61077,4.326822,0.002443,-0.061392,0.129503,31,64.7375642943815
512,-8.420342,-3.616751,4.328616,-0.011148,-0.032834,0.11133,31,64.7168356210527
522,-8.442476,-3.605386,4.34058,-0.026725,-0.003971,0.093462,30.99,64.6940454011757
532,-8.443074,-3.606582,4.329813,-0.04215,0.025045,0.053451,30.99,64.7514472032626
542,-8.441879,-3.613162,4.316054,-0.074984,0.079718,0.032529,31.02,64.8253052387965
552,-8.44427,-3.619144,4.289135,-0.090561,0.104305,0.014508,31.01,64.973920183023
562,-8.442476,-3.613162,4.256832,-0.105527,0.126755,-0.00336,31.01,65.1300197919146
572,-8.447262,-3.607778,4.226922,-0.119271,0.145997,-0.021686,31.04,65.2892307854996
582,-8.450851,-3.624528,4.195815,-0.131947,0.161879,-0.038485,31.04,65.4728575560818
592,-8.459825,-3.625725,4.149154,-0.14279,0.174402,-0.052229,31.04,65.7343105578466
602,-8.450851,-3.641876,4.118646,-0.152105,0.183107,-0.062919,31.04,65.8880096010399
612,-8.441879,-3.643671,4.079762,-0.159283,0.18891,-0.073151,31.02,66.0726488997202
622,-8.452048,-3.652644,4.034299,-0.164781,0.190437,-0.08094,31.02,66.3393067666361
632,-8.449656,-3.652046,4.002594,-0.167377,0.188757,-0.086896,31.02,66.4994950927434
642,-8.451449,-3.658626,3.969693,-0.169362,0.183565,-0.090103,31.02,66.6815777435672
652,-8.4347,-3.663411,3.937988,-0.169668,0.17486,-0.091783,31.02,66.8178128554518
662,-8.444869,-3.677768,3.905685,-0.167072,0.164323,-0.090713,31.02,67.0218015596822
672,-8.435897,-3.680759,3.867998,-0.163254,0.1518,-0.087354,31,67.2051758117371
682,-8.437692,-3.689135,3.851248,-0.158061,0.136987,-0.082925,31,67.3049258741329
692,-8.42812,-3.693322,3.813561,-0.151495,0.12034,-0.078191,30.99,67.4891873365579
702,-8.426325,-3.695715,3.800999,-0.143859,0.101862,-0.065057,30.99,67.5544713423652
712,-8.420941,-3.702295,3.778267,-0.126296,0.064446,-0.055436,31,67.6704957439227
722,-8.422137,-3.707679,3.789035,-0.115759,0.045204,-0.045968,31,67.620286125874
732,-8.404789,-3.716054,3.788436,-0.105374,0.026114,-0.036652,31,67.5960640601888
742,-8.423334,-3.714857,3.781856,-0.094379,0.008094,-0.025045,30.98,67.6672465421769
752,-8.393424,-3.709473,3.786044,-0.084299,-0.009468,-0.013897,30.98,67.580108529661
762,-8.390432,-3.713063,3.79382,-0.072998,-0.025962,-0.003207,31.06,67.5358004682236
772,-8.380263,-3.723232,3.799204,-0.062766,-0.041386,0.008399,31.06,67.4956684441281
782,-8.383853,-3.724428,3.806981,-0.053451,-0.0562,0.019395,31.03,67.4625385688802
792,-8.395219,-3.720839,3.820141,-0.043677,-0.07025,0.029932,31.03,67.4122415291245
802,-8.388638,-3.71725,3.838088,-0.035888,-0.081856,0.040164,31,67.3002519510806
812,-8.393424,-3.714259,3.845864,-0.028558,-0.092852,0.051313,31,67.2659824082629
822,-8.389236,-3.712464,3.861418,-0.023213,-0.104,0.059712,31.01,67.1732687838212
832,-8.393424,-3.729214,3.878167,-0.017562,-0.114537,0.066126,31.01,67.1082249862041
842,-8.407183,-3.705884,3.888337,-0.014813,-0.123242,0.072235,30.98,67.0614346291694
852,-8.395817,-3.719045,3.898506,-0.012523,-0.130572,0.077885,30.98,66.9962841961301
862,-8.41137,-3.708875,3.916452,-0.011606,-0.138208,0.082161,31,66.9242293184717
872,-8.422137,-3.701099,3.938586,-0.011454,-0.144928,0.083994,31,66.8227252240541
882,-8.431709,-3.705884,3.954139,-0.015882,-0.156687,0.083994,31,66.7650408303222
892,-8.431709,-3.699902,3.97388,-0.019853,-0.161574,0.082314,31.02,66.6559828454408
902,-8.440084,-3.695116,3.98405,-0.023976,-0.165239,0.079718,31.02,66.6156888414437
912,-8.455039,-3.698107,3.99063,-0.028863,-0.169057,0.075442,31,66.614971427772
922,-8.447861,-3.693322,4.011567,-0.033903,-0.171959,0.072082,31,66.4862547082968
932,-8.447262,-3.688536,4.018745,-0.04047,-0.173791,0.067042,31,66.4431467733723
942,-8.436494,-3.686741,4.031308,-0.045815,-0.175013,0.060934,31,66.3533793648556
952,-8.4347,-3.686144,4.046861,-0.052076,-0.176082,0.054978,31.02,66.2678948207529
962,-8.438289,-3.687938,4.054638,-0.057574,-0.175166,0.049786,31.02,66.2365386568704
972,-8.439486,-3.680161,4.067201,-0.06353,-0.17318,0.043219,30.99,66.166467314905
982,-8.419745,-3.672983,4.080959,-0.06857,-0.169515,0.036957,30.99,66.0464455061973
992,-8.410771,-3.677171,4.104887,-0.072693,-0.16417,0.03207,31,65.9066993817852
1002,-8.410771,-3.677768,4.106682,-0.076511,-0.157756,0.026114,31,65.8979197095174
1012,-8.392825,-3.669992,4.119244,-0.080176,-0.148593,0.022602,31.02,65.7869436314055
1022,-8.392226,-3.675375,4.143771,-0.082925,-0.138361,0.018173,31.02,65.6632425529244
1032,-8.37129,-3.67059,4.149154,-0.085521,-0.126602,0.014966,31,65.5856267162232
1042,-8.370093,-3.666403,4.168297,-0.086437,-0.11301,0.013286,31,65.4796395427348
1052,-8.355139,-3.663411,4.17727,-0.087506,-0.080481,0.010996,31,65.3977179469576
1062,-8.336594,-3.67059,4.189234,-0.08827,-0.062461,0.01069,31.02,65.3020309022236
1072,-8.335398,-3.665804,4.196413,-0.087659,-0.042761,0.011454,31.02,65.2575423980019
1082,-8.328817,-3.659224,4.191627,-0.086132,-0.02306,0.011148,31,65.261642935924
1092,-8.326425,-3.66401,4.2006,-0.085674,-0.003207,0.013592,31,65.2144124812917
1102,-8.328817,-3.659822,4.198806,-0.085521,0.01741,0.015272,31.01,65.2249340275498
1112,-8.325827,-3.656831,4.188636,-0.083994,0.038485,0.017868,31.01,65.2683281766051
1122,-8.327023,-3.663411,4.187439,-0.082009,0.059712,0.020617,31,65.2835068234489
1132,-8.337193,-3.67059,4.176672,-0.081092,0.078802,0.022602,31,65.3685924343937
1142,-8.338987,-3.666403,4.175476,-0.078802,0.09728,0.024587,31,65.3747035461896
1152,-8.341978,-3.667599,4.154539,-0.077274,0.113926,0.025504,31,65.4912650058032
1162,-8.355738,-3.673581,4.146762,-0.076205,0.129503,0.02642,31.03,65.5672773673769
1172,-8.352147,-3.674777,4.122834,-0.074831,0.14279,0.026573,31.03,65.6852949934068
1182,-8.38146,-3.690929,4.111467,-0.07422,0.154549,0.025809,31.03,65.8227585469403
1192,-8.376674,-3.683152,4.08754,-0.072998,0.163865,0.025656,31.03,65.9299582431987
1202,-8.404789,-3.690331,4.068397,-0.07254,0.171195,0.024282,31.02,66.0963277523789
1212,-8.408379,-3.694518,4.021737,-0.071929,0.176235,0.022907,31.02,66.3516115359324
1222,-8.422735,-3.707081,3.993023,-0.072235,0.17822,0.016952,31.01,66.5435380137138
1232,-8.443673,-3.70409,3.97388,-0.072846,0.174402,0.014661,31.04,66.6845615667272
1242,-8.453244,-3.702893,3.952943,-0.073304,0.168446,0.011912,31.04,66.8130051740483
1252,-8.46102,-3.707081,3.927818,-0.074678,0.159894,0.008247,30.98,66.9646175795783
1262,-8.477771,-3.708277,3.903292,-0.074831,0.149051,0.004581,30.98,67.1287113229079
1272,-8.468199,-3.707081,3.874578,-0.076358,0.135765,0.001374,31.05,67.2593969574601
1282,-8.470592,-3.716054,3.856632,-0.07758,0.11973,-0.000764,31.05,67.3668256729223
1292,-8.470592,-3.716652,3.834498,-0.078191,0.102473,-0.004581,31,67.4842502496667
1302,-8.476574,-3.719643,3.825525,-0.078954,0.083994,-0.005651,31,67.5462985156756
1312,-8.470592,-3.722634,3.805784,-0.079718,0.06353,-0.006567,31.02,67.6414330470795
1322,-8.473583,-3.716652,3.8004,-0.080634,0.041386,-0.00733,31.02,67.6706811431098
1332,-8.474779,-3.714857,3.792026,-0.080634,0.018937,-0.006414,30.99,67.7158778167945
1342,-8.47119,-3.716054,3.781258,-0.080023,-0.004734,-0.004734,30.99,67.7669029839348
1352,-8.458031,-3.705286,3.776472,-0.080787,-0.028558,-0.002291,31.02,67.7567619967294
1362,-8.450253,-3.703491,3.772883,-0.080023,-0.05284,-0.000611,31.02,67.7587880254964
1372,-8.452645,-3.708277,3.772883,-0.078343,-0.074984,0.002902,30.99,67.7677323694229
1382,-8.454441,-3.699304,3.783651,-0.07758,-0.099266,0.006567,30.99,67.7062221914398
1392,-8.42453,-3.694518,3.796811,-0.075136,-0.120188,0.01237,31.03,67.5720861482758
1402,-8.42812,-3.687938,3.808775,-0.06918,-0.160658,0.023366,31.03,67.509871381732
1412,-8.414959,-3.686144,3.8339,-0.065973,-0.178373,0.029169,30.99,67.3481324306219
1422,-8.415558,-3.681358,3.848855,-0.06185,-0.193492,0.036805,30.98,67.2656965132234
1432,-8.417951,-3.662215,3.876373,-0.05849,-0.207083,0.043371,30.98,67.1076331016922
1442,-8.400601,-3.652046,3.895515,-0.053756,-0.218232,0.049175,31.04,66.9614229325438
1452,-8.387442,-3.66042,3.921836,-0.050549,-0.225867,0.055131,31.04,66.8023953675832
1462,-8.395219,-3.650251,3.951746,-0.045815,-0.23106,0.062156,30.95,66.6513661609086
1472,-8.393424,-3.648456,3.980461,-0.040928,-0.235641,0.067195,30.95,66.4946409164945
1482,-8.386245,-3.631108,4.003192,-0.036499,-0.235489,0.073304,30.98,66.3440340305643
1492,-8.389835,-3.639483,4.036692,-0.032834,-0.232892,0.077733,30.98,66.1833942788345
1502,-8.387442,-3.638287,4.063612,-0.028863,-0.227395,0.080481,31.01,66.0361811071544
1512,-8.377273,-3.626921,4.092325,-0.026878,-0.220217,0.083536,31.01,65.8536908276572
1522,-8.366504,-3.624528,4.123432,-0.025045,-0.209527,0.084758,31,65.6657944008742
1532,-8.360522,-3.61735,4.147958,-0.02306,-0.196851,0.086132,31,65.5182010338851
1542,-8.368299,-3.62393,4.174878,-0.022297,-0.18158,0.085674,31.01,65.4013250007696
1552,-8.36471,-3.623332,4.194618,-0.022297,-0.164628,0.084147,31.01,65.2904488540419
1562,-8.369495,-3.619742,4.228117,-0.02474,-0.147066,0.081245,31.04,65.1240425394451
1572,-8.368299,-3.621537,4.241278,-0.027031,-0.104458,0.072693,31.04,65.0550932599686
1582,-8.364112,-3.626921,4.24726,-0.033598,-0.082009,0.065821,31.02,65.0201048609682
1592,-8.36471,-3.626323,4.255037,-0.038637,-0.058948,0.059865,31,64.9807064538352
1602,-8.373683,-3.621537,4.261019,-0.043371,-0.035736,0.051924,31,64.9651009841055
1612,-8.36471,-3.63051,4.258626,-0.049633,-0.012065,0.044899,31.07,64.9662029690534
1622,-8.375478,-3.635894,4.251448,-0.056047,0.01069,0.036346,31.07,65.0321379301207
1632,-8.377871,-3.647858,4.25384,-0.062919,0.032987,0.02642,31,65.0365231819093
1642,-8.367103,-3.654438,4.238885,-0.07025,0.053603,0.015882,31,65.0963001052311
1652,-8.39821,-3.66401,4.22393,-0.077122,0.073609,0.00672,31,65.2506614587908
1662,-8.396414,-3.656831,4.205984,-0.084605,0.092393,-0.001985,31,65.3325723986683
1672,-8.394022,-3.661617,4.191627,-0.091019,0.108123,-0.010843,31.03,65.4061282791814
1682,-8.405987,-3.672983,4.165306,-0.09728,0.122173,-0.020159,31.03,65.5789552280793
1692,-8.408977,-3.68734,4.138985,-0.103389,0.133474,-0.029322,31,65.7352765972917
1702,-8.416155,-3.689135,4.112664,-0.109039,0.143401,-0.035888,31,65.8889004759979
1712,-8.417951,-3.701697,4.092325,-0.113468,0.149662,-0.042608,31.01,66.0101437547112
1722,-8.426325,-3.711268,4.067799,-0.11805,0.153174,-0.048411,31.01,66.1643472665518
1732,-8.420342,-3.713063,4.004987,-0.121409,0.153633,-0.053909,31.06,66.4813859066319
1742,-8.450851,-3.724428,3.985246,-0.123547,0.152869,-0.060018,31.06,66.6583748895647
1752,-8.446067,-3.738187,3.954139,-0.126602,0.141263,-0.062308,30.99,66.8239224352029
1762,-8.440681,-3.734598,3.941577,-0.126144,0.132558,-0.063377,31,66.8755203156596
1772,-8.443074,-3.745964,3.910471,-0.125838,0.121257,-0.063835,31,67.0541649086341
1782,-8.438289,-3.744169,3.881158,-0.124617,0.108123,-0.062919,31.03,67.1972256912187
1792,-8.449656,-3.748955,3.873382,-0.122173,0.094226,-0.060628,31.03,67.2655239919066
1802,-8.454441,-3.75075,3.85065,-0.120188,0.078191,-0.058643,31.02,67.3967017610897
1812,-8.432307,-3.739982,3.844668,-0.115454,0.060934,-0.053756,31.02,67.374158297679
1822,-8.42453,-3.75733,3.838686,-0.110567,0.043219,-0.050396,31.06,67.4056989333841
1832,-8.42453,-3.751946,3.823133,-0.105069,0.025045,-0.044135,31.06,67.4832765092033
1842,-8.408977,-3.744169,3.817749,-0.099876,0.005956,-0.038026,30.99,67.4736232382152
1852,-8.399406,-3.733402,3.824329,-0.093921,-0.011912,-0.030238,30.99,67.4097137294066
1862,-8.386245,-3.738786,3.819543,-0.087048,-0.029322,-0.021075,30.99,67.413407947848
1872,-8.380263,-3.729812,3.824329,-0.079871,-0.045051,-0.010843,30.99,67.3677461364944
1882,-8.375478,-3.720241,3.830909,-0.072693,-0.060018,0.000153,31.02,67.3143775911444
1892,-8.352745,-3.721437,3.8339,-0.065821,-0.073457,0.011606,31.02,67.2532257855376
1902,-8.36112,-3.719045,3.836891,-0.058338,-0.085063,0.024282,31.05,67.2522087289488
1912,-8.343175,-3.706482,3.85723,-0.050702,-0.096364,0.037415,31.05,67.0957087326164
1922,-8.335996,-3.701697,3.875774,-0.03711,-0.113163,0.063988,31.04,66.9778167920305
1932,-8.3348,-3.7005,3.896712,-0.028405,-0.120188,0.077122,31,66.8629141857749
1942,-8.322835,-3.689733,3.906881,-0.022297,-0.125227,0.089034,31,66.7740564693436
1952,-8.331809,-3.676572,3.925426,-0.015424,-0.129198,0.101862,31.05,66.6821643738398
1962,-8.341978,-3.678965,3.943372,-0.009774,-0.131794,0.111941,31.05,66.6105543614302
1972,-8.341978,-3.678366,3.962514,-0.004123,-0.132863,0.120951,31,66.5087390402151
1982,-8.350353,-3.67418,3.983452,0,-0.132863,0.129503,31,66.4119278487515
1992,-8.374281,-3.659224,4.009174,0.004276,-0.132558,0.135612,31.03,66.3131366082473
2002,-8.366504,-3.67059,4.025326,0.007178,-0.129809,0.140346,31.03,66.2223361706112
2012,-8.386844,-3.647858,4.042076,0.008552,-0.126144,0.143706,31.04,66.1565438144816
2022,-8.397612,-3.658028,4.060022,0.009468,-0.121409,0.14508,31.04,66.094883443547
2032,-8.413763,-3.637091,4.076173,0.008858,-0.116828,0.143248,31.01,66.0255517742691
2042,-8.420342,-3.635894,4.094718,0.00733,-0.111025,0.139277,31.01,65.9417901867772
2052,-8.416754,-3.633501,4.115655,0.00504,-0.103389,0.134848,31,65.8229235618749
2062,-8.453843,-3.628117,4.132405,0.000764,-0.094837,0.126602,31,65.810424374581
2072,-8.449656,-3.63051,4.153342,-0.004123,-0.086437,0.117592,31.01,65.6952294832171
2082,-8.469995,-3.623332,4.165905,-0.010385,-0.076969,0.107512,31.01,65.6673504410833
2092,-8.477173,-3.625725,4.178466,-0.017562,-0.055283,0.081245,31.02,65.620155101478
2102,-8.481958,-3.619742,4.183851,-0.035736,-0.043066,0.067042,31.03,65.5971912129126
2112,-8.49452,-3.624528,4.184449,-0.045204,-0.03146,0.052534,31.03,65.6254741426145
2122,-8.485548,-3.62393,4.185645,-0.055283,-0.020769,0.036957,31.04,65.599508186228
2132,-8.484351,-3.622135,4.193422,-0.066432,-0.009316,0.021228,31.04,65.5552462870118
2142,-8.490931,-3.625725,4.185645,-0.077885,0.001374,0.005956,31,65.6127133135622
2152,-8.488539,-3.636492,4.182056,-0.087965,0.012217,-0.008552,31,65.6359365260249
2162,-8.475977,-3.628716,4.1671,-0.098197,0.022144,-0.022602,31,65.678958804887
2172,-8.467003,-3.637689,4.149154,-0.108887,0.03207,-0.036346,31,65.7606713915485
2182,-8.468199,-3.650251,4.13719,-0.117286,0.04047,-0.047342,31.01,65.8366289373182
2192,-8.46102,-3.647858,4.118646,-0.125686,0.0478,-0.057574,31.01,65.9151588299918
2202,-8.449057,-3.644269,4.106084,-0.133016,0.054062,-0.065668,31,65.9515825894215
2212,-8.432905,-3.646662,4.08395,-0.138972,0.058643,-0.07254,31,66.0345358414985
2222,-8.426325,-3.649055,4.064209,-0.14279,0.06185,-0.07758,31.01,66.1256700424652
2232,-8.407183,-3.662215,4.028915,-0.145233,0.064752,-0.080787,31.01,66.2817764599921
2242,-8.396414,-3.678965,4.022933,-0.145844,0.066279,-0.081551,30.98,66.3058408275912
2252,-8.400003,-3.684947,3.970291,-0.146455,0.065057,-0.081703,30.98,66.5952734958942
2262,-8.368897,-3.686741,3.945765,-0.143706,0.061087,-0.075747,31.05,66.6613341461894
2272,-8.363514,-3.695715,3.934398,-0.134085,0.056963,-0.071166,31.04,66.7184385313094
2282,-8.34796,-3.707679,3.912265,-0.127518,0.05116,-0.065668,31.04,66.814299927038
2292,-8.359326,-3.707679,3.907479,-0.11973,0.045509,-0.057879,31.01,66.8632131992519
2302,-8.35813,-3.722036,3.895515,-0.111025,0.038332,-0.050091,31.01,66.9373284332741
2312,-8.34796,-3.722634,3.891328,-0.101862,0.030849,-0.040928,31.05,66.9391089334527
2322,-8.345568,-3.713661,3.873382,-0.092088,0.023213,-0.033292,31.05,67.0212589459512
2332,-8.356933,-3.724428,3.870989,-0.082467,0.014813,-0.023213,31.03,67.0672024353922
2342,-8.350353,-3.732205,3.871587,-0.072846,0.006414,-0.014661,31.03,67.0576436430088
2352,-8.355738,-3.720839,3.870989,-0.063225,-0.002291,-0.004123,30.98,67.0614659324504
2362,-8.356335,-3.720839,3.87398,-0.053451,-0.011912,0.004887,30.98,67.0468047354788
2372,-8.355738,-3.732804,3.872185,-0.045204,-0.020769,0.014508,30.98,67.0660677220184
2382,-8.352745,-3.72383,3.893721,-0.038332,-0.029322,0.023366,30.98,66.9373846905095
2392,-8.373085,-3.722634,3.904488,-0.031612,-0.037568,0.032529,31.02,66.9211752467549
2402,-8.376076,-3.729812,3.899105,-0.025809,-0.044899,0.040012,31.02,66.9623905589532
2412,-8.386245,-3.718446,3.911069,-0.020311,-0.052382,0.047037,31.02,66.9096521737706
2422,-8.390432,-3.719643,3.940979,-0.01741,-0.059865,0.053298,31.02,66.7615273107531
2432,-8.401799,-3.711866,3.948158,-0.015882,-0.066126,0.063225,31.04,66.7401105642716
2442,-8.398808,-3.716054,3.951746,-0.014813,-0.078191,0.068111,31.03,66.7188621736595
2452,-8.402995,-3.721437,3.964309,-0.016188,-0.083536,0.071624,31.03,66.6663929222958
2462,-8.408977,-3.713661,3.976871,-0.018937,-0.087354,0.073762,30.98,66.6056789313513
2472,-8.411968,-3.701697,3.990032,-0.021686,-0.090713,0.074984,30.98,66.5318595839334
2482,-8.419147,-3.690929,3.995416,-0.024435,-0.094226,0.074526,31.02,66.508734468621
2492,-8.440681,-3.703491,4.0008,-0.029474,-0.097128,0.074526,31.02,66.5368699767995
2502,-8.43111,-3.68734,3.999005,-0.034972,-0.099876,0.073762,31.02,66.5116055727824
2512,-8.429317,-3.684947,4.020541,-0.039095,-0.102014,0.072388,31.02,66.3929684434105
2522,-8.4347,-3.688536,4.031906,-0.044135,-0.103389,0.069486,30.98,66.3481417313834
2532,-8.447861,-3.675974,4.036094,-0.048869,-0.104916,0.067195,30.98,66.342378626942
2542,-8.440084,-3.665206,4.035496,-0.052687,-0.104763,0.063835,31.03,66.3193590337019
2552,-8.438888,-3.680161,4.048058,-0.056352,-0.104916,0.059865,31.03,66.2649639592517
2562,-8.432905,-3.669992,4.057629,-0.06185,-0.104,0.054978,31.01,66.193123478973
2572,-8.432905,-3.665804,4.063013,-0.065057,-0.101251,0.052076,31.01,66.1612057083063
2582,-8.430512,-3.656233,4.071986,-0.067806,-0.099113,0.048258,31.04,66.1005793771226
2592,-8.423334,-3.667599,4.085745,-0.071013,-0.095753,0.044746,31.04,66.0241570447837
2602,-8.404789,-3.659224,4.101298,-0.072235,-0.090255,0.041692,31.04,65.8959069957169
2612,-8.395817,-3.650849,4.113262,-0.074678,-0.076205,0.035888,31.04,65.8065947510565
2622,-8.385049,-3.656831,4.119842,-0.074678,-0.06689,0.033292,31.04,65.7548013570711
2632,-8.378469,-3.644867,4.115655,-0.075289,-0.057421,0.031765,30.99,65.7512482719783
2642,-8.37129,-3.649055,4.128816,-0.075595,-0.047189,0.030085,30.99,65.6711172045769
2652,-8.365308,-3.645465,4.131807,-0.074373,-0.034361,0.028711,31.02,65.6392261607635
2662,-8.36112,-3.652046,4.141976,-0.073304,-0.021075,0.028405,31.02,65.5834091522987
2672,-8.35813,-3.641876,4.146163,-0.072082,-0.007483,0.027031,31.04,65.5455018167316
2682,-8.356335,-3.656831,4.149753,-0.071166,0.006261,0.026878,31.04,65.5370887991295
2692,-8.361719,-3.653242,4.145566,-0.07025,0.020617,0.02642,31.02,65.5671501530042
2702,-8.358727,-3.659224,4.143771,-0.067959,0.035888,0.02642,31.02,65.5756793474714
2712,-8.367103,-3.662215,4.130012,-0.066432,0.049633,0.026267,30.99,65.6682570856682
2722,-8.362316,-3.665206,4.130012,-0.065821,0.063988,0.025809,30.99,65.6607543124733
2732,-8.367702,-3.662813,4.115655,-0.064752,0.077427,0.025045,31,65.7449284741928
2742,-8.365907,-3.667599,4.106682,-0.064446,0.088117,0.022602,31,65.7923796556128
2752,-8.390432,-3.669394,4.097709,-0.063835,0.099571,0.021533,31.02,65.8934121248101
2762,-8.388638,-3.669992,4.086343,-0.06353,0.107818,0.021075,31.02,65.9494194709406
2772,-8.403594,-3.688536,4.05404,-0.063683,0.113774,0.016646,31.02,66.167082843547
2782,-8.416754,-3.684947,4.031308,-0.063683,0.121868,0.010996,31.02,66.3103091381076
2792,-8.440681,-3.692126,4.006782,-0.06521,0.122478,0.006261,31.01,66.4952192671182
2802,-8.453244,-3.697509,3.98405,-0.066737,0.119424,0.001985,30.99,66.6451396563473
2812,-8.453244,-3.685545,3.96072,-0.068264,0.114995,-0.002443,30.99,66.7565786367218
2822,-8.478369,-3.691527,3.948158,-0.069333,0.10797,-0.006109,31,66.8795231753526
2832,-8.487342,-3.703491,3.92064,-0.072388,0.098197,-0.010843,31,67.0528178314158
2842,-8.485548,-3.698107,3.903292,-0.074373,0.086896,-0.014813,31.03,67.1354898899075
2852,-8.487941,-3.710072,3.899105,-0.0759,0.072693,-0.018479,31.03,67.1729433240603
2862,-8.495717,-3.707081,3.867998,-0.077122,0.05681,-0.022297,31.02,67.3496169976302
2872,-8.498708,-3.711866,3.860819,-0.079107,0.039095,-0.025809,31.02,67.3976313358581
2882,-8.484351,-3.707081,3.843472,-0.080481,0.020311,-0.027336,31.01,67.4560535285125
2892,-8.483753,-3.716054,3.831507,-0.081551,0.000153,-0.029627,31.01,67.525904286221
2902,-8.479566,-3.711268,3.821338,-0.08262,-0.02138,-0.031001,30.99,67.567081073245
2912,-8.474779,-3.694518,3.818945,-0.081856,-0.04215,-0.02978,30.99,67.5555068929999
2922,-8.459227,-3.710072,3.820141,-0.081398,-0.064904,-0.028711,31.02,67.5316245419925
2932,-8.458031,-3.708277,3.820141,-0.081245,-0.086896,-0.026878,31.02,67.5276453427252
2942,-8.445468,-3.701099,3.831507,-0.080329,-0.106901,-0.023366,31.01,67.4358220558241
2952,-8.413763,-3.697509,3.845864,-0.078191,-0.126907,-0.013286,31.01,67.2923221049222
2962,-8.400601,-3.688536,3.860221,-0.073457,-0.161268,-0.00733,31,67.1812897717451
2972,-8.382057,-3.689733,3.877569,-0.070555,-0.175013,-0.000305,31.02,67.0523159248832
2982,-8.370691,-3.674777,3.885944,-0.067042,-0.186008,0.007941,31.02,66.97089696422
2992,-8.349755,-3.686741,3.909872,-0.063225,-0.194713,0.015882,31.01,66.8114609498663
3002,-8.34796,-3.671188,3.938586,-0.060018,-0.200669,0.024435,31.01,66.6412490671701
3012,-8.345568,-3.67418,3.968496,-0.055436,-0.20296,0.033139,30.96,66.4807992054902
3022,-8.329416,-3.666403,3.994817,-0.050396,-0.202502,0.04215,30.96,66.3004511492163
3032,-8.317451,-3.663411,4.017549,-0.045662,-0.199753,0.050549,30.99,66.1522595889459
3042,-8.299506,-3.649653,4.050451,-0.041539,-0.19395,0.058338,30.99,65.9273825403525
3052,-8.313862,-3.651447,4.067201,-0.037874,-0.185703,0.066279,31,65.8718817038583
3062,-8.310871,-3.652644,4.09053,-0.032987,-0.174555,0.073609,31,65.7440604972738
3072,-8.296515,-3.649055,4.118646,-0.029627,-0.161879,0.078343,31.02,65.5620446218001
3082,-8.307282,-3.646064,4.135396,-0.025351,-0.14676,0.082925,31.02,65.4949868626174
3092,-8.322237,-3.646662,4.158726,-0.023366,-0.129656,0.087965,30.98,65.4064096433008
3102,-8.3013,-3.643671,4.16411,-0.021075,-0.111941,0.089492,30.98,65.3295925999157
3112,-8.321639,-3.636492,4.194618,-0.019853,-0.092546,0.091172,30.98,65.2084586385906
3122,-8.343175,-3.633501,4.219743,-0.019548,-0.071929,0.090713,30.98,65.1225855095459
3132,-8.337791,-3.639483,4.228117,-0.022297,-0.029016,0.084758,31,65.0730835940963
3142,-8.366504,-3.650849,4.231109,-0.023976,-0.007789,0.081245,31.01,65.1317046420842
3152,-8.375478,-3.650251,4.231109,-0.027489,0.012675,0.075289,31.01,65.1508176867869
3162,-8.386844,-3.649653,4.222135,-0.031307,0.032987,0.070708,31.03,65.22146727668
3172,-8.4012,-3.651447,4.226922,-0.036041,0.052229,0.062919,31.03,65.2298222943187
3182,-8.417352,-3.640081,4.208377,-0.041386,0.070555,0.054672,31.02,65.3499394690821
3192,-8.41436,-3.656233,4.196413,-0.047495,0.086285,0.045662,31.02,65.4204085712129
3202,-8.425129,-3.661617,4.189234,-0.054062,0.100487,0.035736,30.99,65.4858352338597
3212,-8.435897,-3.671188,4.168297,-0.06017,0.11301,0.025962,30.99,65.6261238984656
3222,-8.456235,-3.677171,4.152744,-0.066432,0.123395,0.017104,31.02,65.7555710778358
3232,-8.46102,-3.682554,4.127619,-0.073304,0.131641,0.007941,31.02,65.9006280167571
3242,-8.453244,-3.689733,4.099504,-0.079718,0.137445,-0.000764,31.02,66.0364396964525
3252,-8.47119,-3.695116,4.089334,-0.086285,0.140346,-0.009163,31.02,66.1319581704457
3262,-8.47119,-3.7005,4.059424,-0.091172,0.140652,-0.018021,31.01,66.2921267599243
3272,-8.468798,-3.698107,4.033103,-0.096211,0.140041,-0.025351,31.01,66.4218775972676
3282,-8.475977,-3.706482,4.012166,-0.100793,0.136681,-0.031765,30.98,66.5534858124727
3292,-8.475977,-3.710072,3.961916,-0.104,0.130267,-0.037415,30.98,66.8191800524976
3302,-8.468798,-3.711866,3.942175,-0.10736,0.112399,-0.045815,31.02,66.9094805898537
3312,-8.475378,-3.719045,3.926024,-0.111636,0.099724,-0.048869,31,67.0140634191696
3322,-8.469995,-3.731607,3.908676,-0.111636,0.087659,-0.050702,31,67.105425628125
3332,-8.46102,-3.729214,3.888935,-0.111941,0.073304,-0.051771,31,67.1889068957872
3342,-8.458031,-3.727419,3.882953,-0.11133,0.057879,-0.052687,31,67.212756233432
3352,-8.437093,-3.723232,3.863212,-0.108734,0.041997,-0.051007,31,67.2707812760329
3362,-8.440681,-3.727419,3.859025,-0.105985,0.025962,-0.04948,31,67.3039126774554
3372,-8.431709,-3.71725,3.849453,-0.101556,0.010232,-0.047495,30.98,67.3273192413
3382,-8.421539,-3.731607,3.86381,-0.097891,-0.00672,-0.043677,30.98,67.2435972428653
3392,-8.422137,-3.724428,3.850052,-0.093004,-0.021686,-0.039095,31.02,67.3111866137549
3402,-8.4012,-3.732205,3.859025,-0.088117,-0.037263,-0.034514,31.02,67.2281668032123
3412,-8.402397,-3.722634,3.857828,-0.081856,-0.049786,-0.027489,30.99,67.2283099127401
3422,-8.382656,-3.714259,3.859623,-0.075442,-0.062003,-0.020464,30.99,67.1709781032278
3432,-8.379665,-3.713661,3.86381,-0.068264,-0.073762,-0.013744,31.02,67.1420965601386
3442,-8.371889,-3.706482,3.873382,-0.061087,-0.084758,-0.006567,31.02,67.068835148496
3452,-8.368299,-3.697509,3.893721,-0.054367,-0.093004,0.001985,31.01,66.9453735023137
3462,-8.355738,-3.701099,3.901497,-0.0478,-0.101404,0.012065,31.01,66.8814587671975
3472,-8.341978,-3.692724,3.916452,-0.04047,-0.108123,0.030543,31.01,66.7658882620605
3482,-8.349755,-3.689733,3.926622,-0.029627,-0.117897,0.039859,31,66.7254319917318
3492,-8.342576,-3.671786,3.944568,-0.023213,-0.120646,0.050549,31,66.5988463221276
3502,-8.364112,-3.678366,3.956532,-0.018173,-0.123089,0.059254,31.01,66.5867718193021
3512,-8.361719,-3.680161,3.970291,-0.014203,-0.124158,0.067959,31.01,66.5107933401822
3522,-8.355738,-3.665804,3.980461,-0.01069,-0.124464,0.076205,30.99,66.431299209826
3532,-8.360522,-3.662215,4.001996,-0.007178,-0.124464,0.082772,30.99,66.3245818828827
3543,-8.355139,-3.659224,4.00738,-0.005498,-0.124006,0.089186,30.98,66.2820666954712
3552,-8.36112,-3.639483,4.019942,-0.005192,-0.122478,0.094226,30.98,66.210352108912
3562,-8.379665,-3.64726,4.028317,-0.004429,-0.120188,0.098502,30.99,66.2129205032154
3572,-8.385049,-3.647858,4.03729,-0.004429,-0.117897,0.102167,30.99,66.1778218372162
3582,-8.393424,-3.641278,4.048656,-0.006109,-0.115301,0.102778,30.99,66.1299803653493
3592,-8.409575,-3.641876,4.076173,-0.009316,-0.112399,0.10232,30.99,66.0210405065314
3602,-8.408379,-3.635894,4.073183,-0.011759,-0.10797,0.101709,31.01,66.0285863737276
3612,-8.417352,-3.649653,4.083352,-0.014966,-0.104305,0.09896,31.01,66.0073316213012
3622,-8.412566,-3.641278,4.1007,-0.018173,-0.099418,0.095448,30.95,65.8989926297065
3632,-8.420342,-3.621537,4.109673,-0.022602,-0.093921,0.090255,30.95,65.8506883797196
3642,-8.436494,-3.625725,4.115057,-0.027794,-0.087965,0.083994,30.99,65.8611350863294
3652,-8.426325,-3.635894,4.127021,-0.036652,-0.074526,0.070097,30.98,65.7865865997624
3662,-8.432905,-3.638885,4.138387,-0.041844,-0.066126,0.061697,30.98,65.7444858962825
3672,-8.42453,-3.628716,4.147958,-0.046578,-0.05681,0.053603,31.01,65.6674279166905
3682,-8.426325,-3.640081,4.142574,-0.052229,-0.048106,0.043677,31.01,65.7097554530597
3692,-8.429317,-3.632903,4.165306,-0.057879,-0.037721,0.03543,30.98,65.5917539909118
3702,-8.419745,-3.638287,4.1671,-0.06353,-0.028558,0.026267,30.98,65.5668219171987
3712,-8.415558,-3.643072,4.166502,-0.068875,-0.016799,0.016799,31.01,65.5653461357957
3722,-8.41436,-3.643072,4.161717,-0.074831,-0.00504,0.008552,31.01,65.5875468443049
3732,-8.4347,-3.643671,4.173681,-0.079107,0.007789,0.000153,30.96,65.570059010913
3742,-8.405987,-3.650849,4.168896,-0.08323,0.020159,-0.007636,30.96,65.539554907131
3752,-8.409575,-3.661019,4.161717,-0.088575,0.033598,-0.014508,31,65.5940311870706
3762,-8.397013,-3.659822,4.160521,-0.092699,0.045968,-0.021991,31,65.5720074332619
3772,-8.38804,-3.652046,4.151547,-0.097586,0.058185,-0.028253,30.98,65.5918790838852
3782,-8.390432,-3.668197,4.135994,-0.100029,0.070708,-0.033445,30.98,65.693024325834
3792,-8.402397,-3.674777,4.131807,-0.103694,0.082314,-0.038485,31.01,65.7466454145692
3802,-8.386245,-3.680161,4.112065,-0.105985,0.092393,-0.04215,31.01,65.8197549020149
3812,-8.394022,-3.672983,4.076771,-0.108581,0.103389,-0.045815,30.97,66.0136361652464
3822,-8.396414,-3.671786,4.068397,-0.10965,0.118202,-0.050549,30.97,66.0613322031712
3832,-8.391629,-3.69392,4.04387,-0.109956,0.123089,-0.052687,31.02,66.1999719769544
3842,-8.398808,-3.699304,4.019344,-0.108581,0.125838,-0.053298,30.99,66.348471753011
3852,-8.392226,-3.701099,3.999603,-0.106749,0.126907,-0.052993,30.99,66.4398416690425
3862,-8.409575,-3.711866,3.971487,-0.105069,0.125533,-0.052534,30.99,66.6335484633575
3872,-8.406584,-3.713661,3.953541,-0.102167,0.12202,-0.050549,30.99,66.7233272895618
3882,-8.4012,-3.719643,3.9338,-0.099724,0.116828,-0.04948,30.99,66.821612053882
3892,-8.408977,-3.716652,3.918247,-0.09499,0.108276,-0.0478,30.99,66.9169002031316
3902,-8.408379,-3.722634,3.890131,-0.090255,0.098349,-0.04383,31,67.0695386087972
3912,-8.410771,-3.719045,3.871587,-0.085674,0.08659,-0.039401,31,67.1692521835627
3922,-8.407781,-3.729812,3.859623,-0.081398,0.072998,-0.035583,31.02,67.236213844069
3932,-8.425129,-3.732205,3.838686,-0.075442,0.058643,-0.02978,31.02,67.3844015109502
3942,-8.420342,-3.725027,3.830311,-0.068875,0.042608,-0.022449,30.98,67.4127287384938
3952,-8.418548,-3.732205,3.820141,-0.063225,0.025809,-0.015119,30.98,67.469487560463
3962,-8.41436,-3.72383,3.81057,-0.057574,0.007789,-0.008552,31.01,67.5044287120576
3972,-8.407781,-3.736392,3.805784,-0.051618,-0.010843,-0.001069,31.01,67.5278452632128
3982,-8.4012,-3.712464,3.815954,-0.047342,-0.030238,0.007636,31,67.4391135964073
3992,-8.41137,-3.732205,3.814159,-0.041539,-0.067959,0.025809,31,67.4868073574258
4002,-8.410771,-3.728616,3.822534,-0.03146,-0.085521,0.034208,31.02,67.4379031603898
4012,-8.410771,-3.724428,3.839882,-0.026878,-0.102625,0.041997,31,67.342075784165
4022,-8.408977,-3.711268,3.848257,-0.023671,-0.119119,0.050702,31,67.2822160319179
4032,-8.417352,-3.705884,3.872185,-0.020464,-0.134848,0.05849,30.97,67.1676654361846
4042,-8.405987,-3.696911,3.882953,-0.018326,-0.147829,0.06521,30.97,67.0793780883052
4052,-8.405987,-3.703491,3.914658,-0.01573,-0.159283,0.072693,31.03,66.9177377920243
4062,-8.399406,-3.699304,3.930809,-0.015272,-0.169515,0.077733,31.03,66.8151265788179
4072,-8.404191,-3.681956,3.958327,-0.014661,-0.176845,0.081551,31.01,66.6642282949456
4082,-8.406584,-3.672385,3.982255,-0.015577,-0.182649,0.084147,31.01,66.5346249900645
4092,-8.410173,-3.680759,4.008576,-0.016799,-0.186619,0.088728,31.02,66.4116584384656
4102,-8.407183,-3.673581,4.025924,-0.017868,-0.187383,0.089339,31.02,66.3078908331245
4112,-8.420342,-3.669992,4.04387,-0.020159,-0.186314,0.088117,31,66.2384465839807
4122,-8.405987,-3.655036,4.07737,-0.02306,-0.182649,0.086896,31,66.0193137270017
4132,-8.405388,-3.658028,4.103093,-0.02642,-0.177151,0.084758,31.02,65.8867270805542
4142,-8.402397,-3.655036,4.116253,-0.029474,-0.168904,0.082161,31.02,65.8090412383941
4152,-8.406584,-3.642474,4.150949,-0.034056,-0.15913,0.079565,31.02,65.6260427164974
4162,-8.386844,-3.633501,4.169494,-0.037721,-0.146913,0.070708,31.02,65.4786748775856
4172,-8.396414,-3.633501,4.189833,-0.046731,-0.118202,0.064904,31.02,65.3940650139609
4182,-8.389236,-3.629314,4.192824,-0.050549,-0.101556,0.059254,30.97,65.3589990409207
4192,-8.385648,-3.626921,4.204189,-0.054672,-0.085216,0.053603,30.97,65.2900705901625
4202,-8.386844,-3.634698,4.211368,-0.059101,-0.066584,0.047189,31.02,65.2629076292521
4212,-8.369495,-3.637091,4.205386,-0.061545,-0.048258,0.041233,31.02,65.2581863365031
4222,-8.375478,-3.631706,4.204189,-0.06521,-0.02978,0.03543,30.96,65.2723622735948
4232,-8.364112,-3.63051,4.205984,-0.067959,-0.011301,0.029932,30.96,65.2370354546066
4242,-8.368897,-3.637091,4.198207,-0.070708,0.006261,0.024893,31.04,65.2940683016514
4252,-8.365907,-3.646064,4.190431,-0.072235,0.024129,0.020617,31.04,65.3363750722254
4262,-8.361719,-3.648456,4.173083,-0.073457,0.041233,0.015882,31.02,65.4195444080872
4272,-8.364112,-3.643072,4.166502,-0.074984,0.056658,0.011454,31.02,65.4538329527398
4282,-8.36471,-3.653242,4.156333,-0.075595,0.071471,0.008094,31.03,65.5176258474919
4292,-8.373683,-3.643072,4.136592,-0.076053,0.084147,0.003971,31.03,65.6301633218421
4302,-8.373085,-3.657429,4.11745,-0.076358,0.0956,0.000916,31,65.7420895916424
4312,-8.385049,-3.659822,4.10728,-0.076205,0.104763,-0.000916,31,65.82304672816
4322,-8.378469,-3.66401,4.082754,-0.076664,0.112705,-0.003054,31,65.9408575073929
4332,-8.395219,-3.684349,4.048656,-0.075442,0.118661,-0.005651,31,66.1736354100915
4342,-8.402995,-3.68375,4.036094,-0.074984,0.124922,-0.008705,31,66.255209893115
4352,-8.408977,-3.68375,4.009772,-0.074831,0.125075,-0.010996,31.01,66.4056279554814
4362,-8.416155,-3.69392,3.996014,-0.073762,0.123547,-0.01069,31.01,66.5020932189318
4372,-8.425727,-3.692126,3.981059,-0.072846,0.11973,-0.010996,31.03,66.5988246591191
4382,-8.426923,-3.697509,3.961916,-0.072693,0.114385,-0.011454,31.03,66.7066905102514
4392,-8.443673,-3.708875,3.952345,-0.072846,0.106749,-0.01237,30.98,66.8018402472763
4402,-8.440084,-3.708277,3.930212,-0.072082,0.097891,-0.013439,30.98,66.9102067185643
4412,-8.453843,-3.692724,3.921836,-0.071777,0.086437,-0.015272,31.02,66.9685068856672
4422,-8.440084,-3.712464,3.906283,-0.071777,0.075289,-0.015577,31.02,67.0399337943834
4432,-8.456833,-3.711268,3.896712,-0.071319,0.062614,-0.015424,30.99,67.1234263235382
4442,-8.46102,-3.706482,3.886542,-0.071013,0.047495,-0.016341,30.99,67.1812485202794
4452,-8.475977,-3.702295,3.889533,-0.070555,0.033139,-0.017562,31.03,67.1921363116555
4462,-8.473583,-3.699304,3.88056,-0.070708,0.017104,-0.018784,31.03,67.2318884367985
4472,-8.475977,-3.705884,3.877569,-0.070708,0.00168,-0.019395,31,67.2583152338539
4482,-8.467003,-3.696313,3.875774,-0.070402,-0.014966,-0.020311,31,67.2411311207806
4492,-8.461619,-3.707081,3.876373,-0.070402,-0.03146,-0.020159,31.02,67.2366041880008
4502,-8.453244,-3.702893,3.885346,-0.069791,-0.047495,-0.0197,31.02,67.1685550990913
4512,-8.46102,-3.697509,3.894917,-0.06918,-0.076205,-0.017562,31.01,67.1291387508317
4522,-8.440084,-3.688536,3.894319,-0.067653,-0.089186,-0.016493,31.02,67.0815759290352
4532,-8.433504,-3.684947,3.903292,-0.067501,-0.101251,-0.014355,31.02,67.0175436243277
4542,-8.417951,-3.686741,3.915854,-0.065668,-0.112399,-0.010996,31.01,66.9209104786938
4552,-8.4012,-3.676572,3.923033,-0.06521,-0.121104,-0.007025,31.01,66.8392359572402
4562,-8.39462,-3.682554,3.936791,-0.064446,-0.127518,-0.003054,31,66.7583993534307
4572,-8.388638,-3.679563,3.952345,-0.06185,-0.133321,0.001985,31,66.6611821834156
4582,-8.376076,-3.671188,3.9673,-0.060018,-0.136834,0.007941,31,66.5484067556986
4592,-8.359326,-3.67418,3.986442,-0.057574,-0.138819,0.014355,31,66.4150714654361
4602,-8.352745,-3.668197,3.997808,-0.055589,-0.138514,0.020769,31,66.3357441957014
4612,-8.341978,-3.671786,4.006782,-0.052993,-0.137292,0.027947,31,66.2690127389341
4622,-8.337193,-3.67059,4.024727,-0.050244,-0.135001,0.03543,30.98,66.1632454632054
4632,-8.330612,-3.655635,4.02413,-0.0478,-0.130572,0.042302,30.98,66.1383597526221
4642,-8.326425,-3.659224,4.052245,-0.044899,-0.124769,0.049175,30.98,65.9848390237562
4652,-8.3348,-3.661617,4.062415,-0.042455,-0.117439,0.05681,30.98,65.9516338334571
4662,-8.322835,-3.654438,4.076771,-0.039095,-0.109803,0.063835,30.99,65.8437927732829
4672,-8.318049,-3.650849,4.09412,-0.036652,-0.100793,0.070097,30.99,65.7390593598612
4682,-8.327621,-3.667599,4.101896,-0.033903,-0.090561,0.079565,30.98,65.7349334084934
4692,-8.330013,-3.656831,4.110271,-0.030543,-0.069486,0.083078,30.97,65.6860536552778
4702,-8.352745,-3.656233,4.110271,-0.029627,-0.057574,0.08491,30.97,65.7345945828752
4712,-8.360522,-3.659822,4.130012,-0.028863,-0.04612,0.087659,31.01,65.6517885763533
4722,-8.366504,-3.66401,4.129414,-0.029627,-0.034361,0.086285,31.01,65.6717748090173
4732,-8.377871,-3.658028,4.137789,-0.030543,-0.021991,0.08491,30.99,65.6470616131474
4742,-8.385049,-3.667001,4.141976,-0.030849,-0.010537,0.082009,30.99,65.6492253936697
4752,-8.401799,-3.669992,4.132405,-0.032834,-0.000305,0.078802,31.01,65.7377718930315
4762,-8.408379,-3.68375,4.134199,-0.035583,0.010232,0.073762,31.01,65.7554558876985
4772,-8.429317,-3.672983,4.132405,-0.038637,0.0197,0.068417,31.01,65.7994717831788
4782,-8.438289,-3.681956,4.125226,-0.042455,0.028253,0.061239,31.01,65.8641567378063
4792,-8.449656,-3.680759,4.13061,-0.04612,0.036194,0.053603,30.98,65.8593445791396
4802,-8.439486,-3.683152,4.12403,-0.049786,0.042913,0.045968,30.98,65.8740130206176
4812,-8.450253,-3.67418,4.104887,-0.054214,0.048411,0.036805,30.99,65.9878443741188
4822,-8.458031,-3.688536,4.101896,-0.05849,0.053451,0.027794,30.99,66.0330455762921
4832,-8.462815,-3.69392,4.086343,-0.063225,0.058185,0.018479,31,66.1287561533859
4842,-8.467602,-3.697509,4.079165,-0.06857,0.060628,0.010537,31,66.1793603974694
4852,-8.474181,-3.692126,4.052843,-0.073304,0.06185,0.002291,31,66.3249472987039
4862,-8.475977,-3.694518,4.045665,-0.082161,0.061392,-0.014203,30.98,66.3681992512528
4872,-8.476574,-3.702295,4.027719,-0.085674,0.059101,-0.021228,30.98,66.4698974955358
4882,-8.47119,-3.697509,4.019942,-0.090255,0.055589,-0.028558,30.99,66.4948859887953
4892,-8.458628,-3.706482,4.004987,-0.092546,0.051771,-0.034056,30.99,66.5549801212365
4902,-8.443673,-3.7005,3.994219,-0.094226,0.046731,-0.038943,31,66.5747910163093
4912,-8.441879,-3.699304,3.984648,-0.097128,0.040928,-0.042455,31,66.6200858040015
4922,-8.44427,-3.716652,3.964907,-0.097738,0.034361,-0.045051,30.96,66.7442242989288
4932,-8.435897,-3.701697,3.955336,-0.098807,0.027794,-0.047342,30.96,66.7636043191689
4942,-8.419147,-3.70409,3.946961,-0.099113,0.020006,-0.047953,31,66.7751984047503
4952,-8.401799,-3.702295,3.93739,-0.09728,0.012675,-0.046884,31,66.7880982870967
4962,-8.402397,-3.711268,3.940381,-0.096669,0.004734,-0.04612,30.99,66.7817595693835
4972,-8.386844,-3.706482,3.92064,-0.095295,-0.002291,-0.044135,30.99,66.8493899673443
4982,-8.378469,-3.696313,3.929015,-0.091477,-0.009163,-0.040012,30.97,66.7785093075674
4993,-8.382057,-3.693322,3.919443,-0.089339,-0.016493,-0.035888,30.97,66.8338052115915
5002,-8.366504,-3.69392,3.92064,-0.085827,-0.023518,-0.030391,31,66.7957808355895
5012,-8.357532,-3.69392,3.911069,-0.081398,-0.031001,-0.02474,31,66.8278500754127
5022,-8.35155,-3.689135,3.919443,-0.076511,-0.036499,-0.01741,31.03,66.7666520317036
5032,-8.345568,-3.688536,3.92064,-0.071471,-0.047495,-0.00168,31.03,66.7473022652783
5042,-8.334201,-3.68375,3.92722,-0.060628,-0.053145,0.006872,31,66.6842807455117
5052,-8.346166,-3.679563,3.930212,-0.055283,-0.057269,0.01573,30.99,66.6895618998623
5062,-8.346764,-3.673581,3.931407,-0.050091,-0.061697,0.024587,30.99,66.6789739815681
5072,-8.341978,-3.669992,3.940381,-0.044593,-0.06521,0.032681,31.01,66.6181098905727
5082,-8.339585,-3.667001,3.949354,-0.039401,-0.068264,0.041844,31.01,66.5628109499616
5092,-8.348558,-3.663411,3.956532,-0.035736,-0.071319,0.050244,30.96,66.5403708255914
5102,-8.36471,-3.665804,3.965506,-0.030238,-0.07422,0.058338,30.96,66.5290871290024
5112,-8.365308,-3.662813,3.97747,-0.025809,-0.076358,0.065973,30.98,66.4644671149667
5122,-8.367103,-3.652644,3.988835,-0.022907,-0.077885,0.072388,30.98,66.3989676912894
5132,-8.383254,-3.661019,3.995416,-0.0197,-0.078802,0.07758,30.98,66.4060691147961
5142,-8.382656,-3.65384,4.004389,-0.016952,-0.080023,0.082467,30.98,66.3510196688316
5152,-8.400003,-3.652046,4.015156,-0.016035,-0.080634,0.085979,30.97,66.3294217235003
5162,-8.397013,-3.648456,4.018147,-0.016035,-0.080634,0.089034,30.97,66.3041225000279
5172,-8.405987,-3.632305,4.030112,-0.015424,-0.079565,0.091172,30.99,66.2455503000035
5182,-8.407781,-3.643072,4.039683,-0.016188,-0.078496,0.090561,30.99,66.2090781647571
5192,-8.429914,-3.641278,4.063612,-0.018021,-0.076816,0.089339,31,66.1292627820924
5202,-8.437093,-3.636492,4.076173,-0.020006,-0.075595,0.084605,31,66.0746158012097
5212,-8.431709,-3.637091,4.08754,-0.026725,-0.070708,0.080176,31,66.004507221904
5222,-8.451449,-3.635894,4.088138,-0.031612,-0.067042,0.073304,30.99,66.0422595842054
5232,-8.433504,-3.642474,4.100101,-0.036957,-0.063683,0.067348,30.99,65.947907451073
5242,-8.442476,-3.639483,4.113262,-0.042455,-0.059101,0.06017,31.03,65.8958905241505
5252,-8.443074,-3.64726,4.119842,-0.048411,-0.052993,0.05284,31.03,65.8701721970759
5262,-8.443673,-3.644269,4.123432,-0.054367,-0.046731,0.045968,30.99,65.8500693008834
5272,-8.434101,-3.640081,4.133601,-0.059865,-0.039554,0.037263,30.99,65.7729782413328
5282,-8.426923,-3.650849,4.131208,-0.066126,-0.032376,0.028863,31.04,65.7799902695326
5292,-8.437093,-3.651447,4.133003,-0.072235,-0.024282,0.021228,31.04,65.7930023194401
5302,-8.435298,-3.65384,4.138985,-0.077733,-0.015882,0.013286,31,65.7603714418229
5312,-8.432307,-3.658028,4.131807,-0.083078,-0.006567,0.005498,31,65.795066285089
5322,-8.423933,-3.664608,4.122235,-0.087965,0.002291,-0.001527,31,65.8329430387253
5332,-8.417352,-3.667001,4.131807,-0.091783,0.011301,-0.008094,31,65.771413091732
5342,-8.405388,-3.672983,4.122235,-0.096059,0.021075,-0.014203,31.02,65.8010991992481
5352,-8.397013,-3.686144,4.108477,-0.099571,0.030849,-0.018937,31.02,65.8670620852681
5362,-8.403594,-3.692724,4.099504,-0.101709,0.038637,-0.024129,30.98,65.9339393053399
5372,-8.379665,-3.692724,4.08395,-0.103542,0.047342,-0.0281,30.98,65.9640567953944
5382,-8.379665,-3.685545,4.065406,-0.104153,0.062003,-0.03375,31,66.0541942976939
5392,-8.383254,-3.7005,4.056432,-0.104458,0.068264,-0.035125,30.99,66.1227001760141
5402,-8.379066,-3.698706,4.04387,-0.102625,0.071929,-0.036957,30.99,66.177882506658
5412,-8.388638,-3.707081,4.027121,-0.101709,0.074984,-0.036957,31,66.293574251512
5422,-8.385648,-3.71067,4.011567,-0.099113,0.07758,-0.036346,31,66.3721455117265
5432,-8.387442,-3.719643,3.996014,-0.096059,0.077427,-0.03543,31.02,66.4658280129688
5442,-8.391629,-3.717848,3.969693,-0.093615,0.0759,-0.035277,31.02,66.6111853843684
5452,-8.397013,-3.724428,3.961318,-0.090103,0.073151,-0.032681,30.99,66.6724654766552
5462,-8.4012,-3.718446,3.94397,-0.086132,0.067501,-0.030543,30.99,66.7669424453981
5472,-8.414959,-3.722036,3.926024,-0.08262,0.060628,-0.027794,30.97,66.8930990325984
5482,-8.406584,-3.71725,3.919443,-0.078802,0.052382,-0.024282,30.97,66.9062148858191
5492,-8.426325,-3.718446,3.908676,-0.074067,0.043677,-0.020464,31.02,67.0045768394966
5502,-8.420941,-3.725625,3.897908,-0.069639,0.032681,-0.015119,31.02,67.0568453715979
5512,-8.419147,-3.739383,3.881757,-0.065821,0.019853,-0.011301,31,67.1508845123757
5522,-8.42453,-3.732804,3.869194,-0.062003,0.006109,-0.007178,31,67.222272678012
5532,-8.41137,-3.713063,3.868596,-0.057574,-0.007789,-0.001527,30.95,67.1809194571969
5544,-8.422735,-3.719643,3.867399,-0.048869,-0.038179,0.009468,31.02,67.2162955829204
5552,-8.425727,-3.719643,3.872783,-0.048869,-0.053756,0.01405,31.02,67.1939081359007
5562,-8.425129,-3.705884,3.865605,-0.042913,-0.069944,0.020464,31,67.2183242272219
5572,-8.417352,-3.704688,3.866802,-0.040012,-0.084452,0.02642,31,67.1950844757944
5582,-8.419745,-3.705884,3.879364,-0.036346,-0.09896,0.032681,31.02,67.1345713673949
5592,-8.412566,-3.707081,3.887738,-0.034208,-0.111941,0.038179,31.02,67.0767013475466
5602,-8.412566,-3.695715,3.907479,-0.031918,-0.124311,0.043371,31.02,66.9621377794684
5612,-8.405987,-3.689733,3.930809,-0.031001,-0.135001,0.048258,31.02,66.8200330048552
5622,-8.394022,-3.690331,3.938586,-0.029932,-0.143706,0.053909,31,66.7547741612013
5632,-8.396414,-3.678366,3.960122,-0.029932,-0.151495,0.057727,31,66.6353066575903
5642,-8.392226,-3.681358,3.976273,-0.029169,-0.156076,0.061087,31,66.5442760386028
5652,-8.383853,-3.665804,3.999005,-0.029932,-0.158825,0.064752,31,66.392858726658
5662,-8.374281,-3.653242,4.027719,-0.030849,-0.159589,0.067348,31.02,66.2101675540922
5672,-8.368897,-3.658028,4.046263,-0.032376,-0.157756,0.070402,31.02,66.1058603134545
5682,-8.366504,-3.654438,4.063612,-0.034514,-0.15348,0.071624,31,66.0064857347788
5692,-8.36471,-3.649653,4.078567,-0.036194,-0.147677,0.073151,31,65.9198795757462
5702,-8.348558,-3.639483,4.106084,-0.038485,-0.139125,0.073609,31.01,65.7316391754014
5712,-8.365907,-3.646064,4.140181,-0.041233,-0.128129,0.07422,31.01,65.5974700683357
5722,-8.346166,-3.641278,4.155136,-0.044135,-0.10232,0.069639,31.03,65.4721902336744
5732,-8.342576,-3.636492,4.165306,-0.049327,-0.085674,0.068722,30.99,65.4068574323934
5742,-8.349755,-3.63051,4.173681,-0.052382,-0.069791,0.066279,30.99,65.3732803042856
5752,-8.350353,-3.631706,4.174878,-0.055436,-0.052382,0.064446,30.99,65.3695004198253
5762,-8.350951,-3.638885,4.186841,-0.057879,-0.034819,0.061545,30.99,65.3154830610853
5772,-8.352745,-3.628117,4.188038,-0.060781,-0.017257,0.057421,31.02,65.3029384700095
5782,-8.36471,-3.626921,4.186841,-0.063988,0.000305,0.052993,31.02,65.334203500271
5792,-8.38146,-3.628716,4.185047,-0.066737,0.01741,0.049327,31.02,65.3817795503443
5802,-8.375478,-3.644269,4.17727,-0.06918,0.03375,0.045204,31.02,65.4237864965916
5812,-8.379066,-3.632903,4.172484,-0.071319,0.049175,0.041539,31,65.4456870200216
5822,-8.383853,-3.644269,4.150949,-0.073609,0.06353,0.036499,31,65.5786162916168
5832,-8.395219,-3.64068,4.147958,-0.075289,0.0759,0.031918,31.02,65.6153592260809
5842,-8.397013,-3.643072,4.121039,-0.076053,0.086743,0.027794,31.02,65.7614227500597
5852,-8.405987,-3.646662,4.109673,-0.077274,0.0956,0.023366,31,65.843183895233
5862,-8.414959,-3.664608,4.09053,-0.078496,0.102473,0.018479,31,65.9786697282335
5872,-8.425727,-3.647858,4.070191,-0.079107,0.106901,0.014508,30.98,66.0920979565476
5882,-8.419745,-3.661617,4.034299,-0.080176,0.110261,0.009927,30.98,66.2795361543699
5892,-8.431709,-3.678965,4.014558,-0.080787,0.111177,0.001833,31.02,66.423801240053
5902,-8.447262,-3.685545,4.0008,-0.079718,0.106596,-0.002443,31,66.5342261383155
5912,-8.449057,-3.672385,3.983452,-0.080634,0.101709,-0.005803,31,66.6168640634381
5922,-8.457432,-3.689135,3.966702,-0.080023,0.094531,-0.008858,31.01,66.7370958280113
5932,-8.463414,-3.696911,3.949354,-0.079718,0.08659,-0.012523,31.01,66.847365844201
5942,-8.477771,-3.695715,3.940381,-0.079107,0.076969,-0.014813,30.98,66.9228048287527
5952,-8.473583,-3.696911,3.921836,-0.078038,0.066126,-0.017868,30.98,67.0126287417424
5962,-8.469396,-3.699304,3.908676,-0.07758,0.054367,-0.020006,30.98,67.0753813047371
5972,-8.474779,-3.703491,3.911667,-0.076511,0.041386,-0.021533,30.98,67.0743519353684
5982,-8.474181,-3.710072,3.897908,-0.076664,0.027642,-0.022449,31,67.1513258134023
5992,-8.472985,-3.699304,3.89731,-0.074984,0.013592,-0.023824,31,67.1424778495039
6002,-8.457432,-3.701697,3.891926,-0.073457,-0.000305,-0.024129,30.97,67.1413221763054
6012,-8.459227,-3.708875,3.891926,-0.072235,-0.015272,-0.025198,30.97,67.1513689110236
6022,-8.462217,-3.707081,3.888337,-0.071624,-0.029016,-0.02474,30.98,67.1747544332005
6032,-8.444869,-3.71067,3.89073,-0.070708,-0.043066,-0.024893,30.98,67.1300625818214
6042,-8.446067,-3.709473,3.891328,-0.069944,-0.05681,-0.022907,30.99,67.1282781011046
6052,-8.438289,-3.705884,3.893721,-0.069639,-0.069028,-0.021991,30.99,67.0965882489787
6062,-8.41436,-3.696313,3.918845,-0.06857,-0.08094,-0.020617,30.98,66.9063814676161
6072,-8.407781,-3.708875,3.924229,-0.067653,-0.100182,-0.015577,30.98,66.8758239435815
6082,-8.4012,-3.707081,3.942175,-0.066584,-0.107665,-0.012981,31.04,66.7660093480392
6092,-8.385049,-3.703491,3.941577,-0.065821,-0.113926,-0.010996,31.05,66.7324111857453
6102,-8.385648,-3.688536,3.957729,-0.064904,-0.118966,-0.006872,31.05,66.6347809311559
6112,-8.383254,-3.686144,3.966702,-0.064599,-0.122326,-0.003054,31,66.5803089852519
6122,-8.368299,-3.694518,3.981657,-0.063835,-0.123853,0.001527,31,66.477964987285
6132,-8.356335,-3.68734,3.992425,-0.061392,-0.124158,0.006872,30.98,66.3894574424387
6142,-8.353344,-3.67418,4.009772,-0.061087,-0.123853,0.010996,30.98,66.2795756914455
6152,-8.35155,-3.677768,4.016353,-0.060323,-0.121104,0.016646,31.02,66.2444970236932
6162,-8.35155,-3.681358,4.031906,-0.058643,-0.11805,0.021075,31.02,66.1661020732732
6172,-8.342576,-3.674777,4.036692,-0.056963,-0.113926,0.026878,30.98,66.1157098764298
6182,-8.338388,-3.659822,4.051647,-0.055894,-0.108429,0.032223,30.98,66.0141673311026
6192,-8.348558,-3.654438,4.050451,-0.055131,-0.102931,0.036652,31.01,66.0371508773796
6202,-8.341978,-3.664608,4.054638,-0.053145,-0.096822,0.041692,31.01,66.0106382358117
6212,-8.345568,-3.665206,4.064209,-0.051007,-0.089644,0.046578,30.97,65.9686701719391
6222,-8.343175,-3.669394,4.079165,-0.049938,-0.082314,0.050549,30.97,65.8891116914217
6232,-8.338388,-3.661617,4.078567,-0.0478,-0.074678,0.055894,31.02,65.8746271094702
6242,-8.355139,-3.663411,4.089932,-0.046731,-0.060476,0.062766,31.02,65.8528042216939
6252,-8.349156,-3.661617,4.086343,-0.043524,-0.052229,0.066584,31.04,65.8570407581011
6262,-8.352147,-3.657429,4.088736,-0.04215,-0.044135,0.069639,30.99,65.8470023985025
6272,-8.362915,-3.656831,4.083352,-0.040775,-0.037415,0.071319,30.99,65.897718990009
6282,-8.357532,-3.656233,4.102495,-0.040012,-0.030696,0.073762,30.99,65.785525924643
6292,-8.369495,-3.649653,4.097709,-0.038943,-0.02306,0.074526,30.99,65.830073204965
6302,-8.372486,-3.664608,4.1007,-0.037721,-0.016188,0.074984,30.99,65.8349054021227
6312,-8.37129,-3.671786,4.099504,-0.037721,-0.010079,0.075595,30.99,65.845325692408
6322,-8.38804,-3.662813,4.097709,-0.037874,-0.002902,0.074984,31,65.8821477669639
6332,-8.400003,-3.658028,4.098307,-0.038637,0.003512,0.073762,31,65.9001492453452
6342,-8.394022,-3.662813,4.095316,-0.039706,0.010232,0.072235,31.01,65.9074155436025
6352,-8.413164,-3.672385,4.091129,-0.041997,0.01573,0.06857,31.01,65.9789452622384
6362,-8.413763,-3.677768,4.091129,-0.043524,0.021075,0.064446,31.05,65.9852181652183
6372,-8.410771,-3.67059,4.103093,-0.045662,0.027489,0.060934,31.05,65.9099045473764
6382,-8.418548,-3.678366,4.096512,-0.048564,0.032834,0.05681,31.03,65.967929828899
6392,-8.425727,-3.678366,4.09711,-0.051465,0.038485,0.051924,31.03,65.9800722370261
6402,-8.432307,-3.68375,4.083352,-0.054214,0.043524,0.046578,30.97,66.0705550388175
6412,-8.442476,-3.69392,4.085146,-0.058032,0.048258,0.033292,30.97,66.0921084056572
6422,-8.436494,-3.695715,4.076173,-0.063835,0.056352,0.026267,31.02,66.1277985680886
6432,-8.448458,-3.693322,4.070191,-0.067806,0.059254,0.019395,31,66.181904079443
6442,-8.450253,-3.68734,4.06062,-0.070555,0.061392,0.010843,31,66.2299803480597
6452,-8.445468,-3.68734,4.050451,-0.074373,0.06353,0.003207,30.98,66.2728900664126
6462,-8.458628,-3.687938,4.048058,-0.078954,0.063835,-0.003818,30.98,66.3134911545135
6472,-8.450253,-3.689135,4.03729,-0.082161,0.062919,-0.010996,31,66.3531625037457
6482,-8.459825,-3.686741,4.019344,-0.084605,0.061697,-0.017715,31,66.4645848188609
6492,-8.46102,-3.69392,4.00379,-0.087048,0.06017,-0.024129,31.02,66.5547937211055
6502,-8.457432,-3.701099,3.991228,-0.08995,0.056963,-0.029932,31.02,66.6195133236447
6512,-8.444869,-3.701697,3.978068,-0.091783,0.05284,-0.035888,31.04,66.6629211944635
6522,-8.464012,-3.697509,3.979264,-0.092699,0.047495,-0.041233,31.04,66.6924547285448
6532,-8.458628,-3.692126,3.957131,-0.093615,0.040928,-0.045051,31,66.792431208585
6542,-8.439486,-3.691527,3.946362,-0.093921,0.034056,-0.047495,31,66.8089601508837
6552,-8.446067,-3.696911,3.935595,-0.094379,0.025962,-0.050549,30.99,66.8839545745372
6562,-8.429317,-3.684349,3.926024,-0.094226,0.017562,-0.052076,30.99,66.888545065172
6572,-8.439486,-3.686741,3.914658,-0.092699,0.007636,-0.051771,31,66.9714928055935
6582,-8.417352,-3.688536,3.905087,-0.090561,-0.001833,-0.049175,31,66.9781328349824
6592,-8.400003,-3.691527,3.893123,-0.085674,-0.022144,-0.041997,31.04,67.008416991085
6602,-8.400601,-3.689135,3.892524,-0.08262,-0.032987,-0.037415,31.04,67.0106560506388
6612,-8.392825,-3.681956,3.893721,-0.078496,-0.043982,-0.030543,31.04,66.9818306602078
6622,-8.376076,-3.682554,3.887738,-0.074526,-0.054978,-0.023976,31,66.9795496996901
6632,-8.37129,-3.677171,3.886542,-0.069639,-0.065515,-0.014355,31,66.9711320436323
6642,-8.379665,-3.678366,3.893721,-0.065057,-0.075136,-0.004734,30.99,66.9514341398004
6652,-8.365907,-3.675375,3.896114,-0.058948,-0.084605,0.006109,30.99,66.9075715624296
6662,-8.368897,-3.677171,3.908078,-0.053603,-0.093157,0.016035,30.96,66.8519652001855
6672,-8.360522,-3.679563,3.910471,-0.048717,-0.101251,0.025656,30.96,66.8240816485891
6682,-8.350951,-3.676572,3.914658,-0.043371,-0.108887,0.035888,31.03,66.7792384317478
6692,-8.359326,-3.661019,3.937988,-0.038026,-0.114995,0.046884,31.03,66.6588615023241
6702,-8.352147,-3.659224,3.951149,-0.032834,-0.119882,0.055741,31,66.5725260614055
6712,-8.35454,-3.66042,3.961916,-0.028253,-0.123547,0.065668,31,66.5217258558572
6722,-8.358727,-3.668197,3.975077,-0.02474,-0.125075,0.073457,30.98,66.4682091516454
6732,-8.37129,-3.65384,3.991827,-0.021838,-0.126907,0.079412,30.98,66.3931402869931
6742,-8.367103,-3.652644,4.025924,-0.0197,-0.127365,0.084758,31,66.2038063062327
6752,-8.386245,-3.652046,4.055236,-0.017868,-0.125991,0.089339,31,66.0902135041611
6762,-8.388638,-3.649055,4.073183,-0.017104,-0.118661,0.093615,31.02,65.9986585431526
6772,-8.390432,-3.643671,4.09711,-0.018173,-0.113163,0.092852,31.04,65.8725441670643
6782,-8.394022,-3.647858,4.121637,-0.019548,-0.105985,0.090561,31.04,65.7563480788249
6792,-8.406584,-3.644269,4.119842,-0.023213,-0.098349,0.086896,31,65.7893223259128
6802,-8.407183,-3.641278,4.137789,-0.026725,-0.08827,0.083841,31,65.6945366976738
6812,-8.410173,-3.655635,4.153342,-0.030238,-0.077885,0.076205,30.96,65.6336765010009
6822,-8.420941,-3.652644,4.158726,-0.034972,-0.066584,0.070555,30.96,65.6261660353304
6832,-8.415558,-3.651447,4.171886,-0.040928,-0.055283,0.062919,30.98,65.5453098298288
6842,-8.420941,-3.651447,4.165905,-0.045509,-0.042761,0.054672,30.98,65.5878784162835
6852,-8.422735,-3.65384,4.176672,-0.051618,-0.029627,0.046578,31.03,65.5382846164656
6862,-8.418548,-3.671188,4.170092,-0.058032,-0.016493,0.037568,31.03,65.5795506026721
6872,-8.419745,-3.661617,4.174279,-0.065057,-0.003512,0.029016,30.98,65.5514955134942
6882,-8.408379,-3.668197,4.171886,-0.071319,0.009774,0.020769,30.98,65.545543940484
6892,-8.41137,-3.67059,4.163511,-0.076511,0.02138,0.011912,30.97,65.5975923699511
6902,-8.409575,-3.675974,4.153342,-0.08262,0.033139,0.006109,30.97,65.6514604088429
6912,-8.417352,-3.673581,4.145566,-0.087812,0.044135,-0.001527,30.97,65.7062055047204
6922,-8.392825,-3.669992,4.113262,-0.091935,0.054062,-0.008858,30.97,65.8180742382416
6932,-8.404789,-3.687938,4.094718,-0.096211,0.063225,-0.018631,31,65.9569224898805
6942,-8.398808,-3.686741,4.082156,-0.102014,0.076664,-0.022144,30.99,66.0085401213521
6952,-8.395219,-3.69392,4.060022,-0.104305,0.081551,-0.026114,30.99,66.1231286636304
6962,-8.395219,-3.707081,4.040281,-0.104611,0.085216,-0.027031,31,66.2385526691273
6972,-8.385049,-3.704688,4.028317,-0.104916,0.086896,-0.028253,31,66.2775306789958
6982,-8.395219,-3.709473,4.004389,-0.105069,0.086896,-0.029169,30.98,66.4287365317098
6992,-8.402995,-3.707081,3.982255,-0.103847,0.085216,-0.028558,30.98,66.558921399533
7002,-8.388638,-3.709473,3.966702,-0.101251,0.08262,-0.026878,31,66.6129849964411
7012,-8.402995,-3.717848,3.959523,-0.098502,0.077885,-0.024435,31,66.6882630697701
7022,-8.4012,-3.714857,3.947559,-0.095142,0.071777,-0.022755,30.99,66.7447607007601
7032,-8.401799,-3.725027,3.932006,-0.090561,0.064752,-0.020617,30.99,66.837220316325
7042,-8.408379,-3.710072,3.921836,-0.085979,0.0562,-0.016646,30.98,66.8907630075496
7052,-8.408977,-3.717848,3.910471,-0.082009,0.04612,-0.013592,30.98,66.9590094528856
7062,-8.420941,-3.719643,3.906283,-0.076511,0.035583,-0.010079,30.98,67.0072558499063
7072,-8.416155,-3.722634,3.888935,-0.071166,0.024893,-0.005498,30.98,67.0917441203611
7082,-8.417951,-3.708875,3.88714,-0.066432,0.013134,-0.00168,31.03,67.092490163605
7092,-8.416155,-3.729214,3.883551,-0.060628,0.000458,0.00336,31.03,67.1261307501189
7102,-8.421539,-3.715455,3.881158,-0.055131,-0.011606,0.007483,30.96,67.1373505176341
7112,-8.41137,-3.701697,3.89731,-0.045357,-0.036652,0.016188,30.98,67.0188003098742
7122,-8.42812,-3.70409,3.901497,-0.04047,-0.049938,0.020006,30.98,67.0331706032951
7132,-8.438289,-3.692126,3.89731,-0.036346,-0.062156,0.023671,30.97,67.0653333720141
7142,-8.438289,-3.690929,3.911069,-0.033445,-0.073304,0.027489,30.97,66.9917064047535
7152,-8.420941,-3.688536,3.915256,-0.031154,-0.084299,0.030085,31.04,66.9318397596501
7162,-8.431709,-3.689733,3.929613,-0.029322,-0.093615,0.033598,31.04,66.8794194741988
7172,-8.425727,-3.675375,3.942175,-0.027336,-0.102014,0.036652,30.99,66.7879791149129
7182,-8.418548,-3.665804,3.961916,-0.027031,-0.110567,0.038026,30.99,66.6605346063795
7192,-8.410771,-3.662813,3.97388,-0.027184,-0.116675,0.041233,31,66.5786781992365
7202,-8.408977,-3.664608,3.994219,-0.027947,-0.120493,0.043066,31,66.469684068344
7212,-8.415558,-3.664608,4.012166,-0.030238,-0.124006,0.044593,30.96,66.3893464708221
7222,-8.402995,-3.656831,4.027719,-0.031765,-0.125227,0.046273,30.96,66.2742550877431
7232,-8.391629,-3.656831,4.042674,-0.035277,-0.124769,0.046884,30.99,66.1718568178706
7242,-8.38445,-3.649055,4.051647,-0.038026,-0.123395,0.047647,30.99,66.1024161460137
7252,-8.380861,-3.642474,4.066004,-0.041997,-0.119271,0.048106,31.01,66.0134946282216
7262,-8.376674,-3.648456,4.079165,-0.045662,-0.114385,0.048869,31.01,65.9412590177576
7272,-8.373085,-3.628117,4.097709,-0.050244,-0.10797,0.049175,30.99,65.8176601234526
7282,-8.364112,-3.63051,4.109075,-0.057727,-0.092088,0.048717,30.99,65.7411745722724
7292,-8.353942,-3.626323,4.113262,-0.060934,-0.082314,0.048717,30.98,65.693383484402
7302,-8.366504,-3.638885,4.116851,-0.065821,-0.072846,0.047953,31.01,65.7136024886671
7312,-8.367103,-3.627519,4.12044,-0.069486,-0.06185,0.046578,31.01,65.6855055145079
7322,-8.350951,-3.637689,4.122235,-0.070555,-0.049633,0.046273,31,65.6507421370678
7332,-8.363514,-3.642474,4.128816,-0.073762,-0.037874,0.045509,31,65.6481156348281
7342,-8.350951,-3.65384,4.12044,-0.076053,-0.02642,0.044135,31.03,65.6753689172407
7352,-8.349156,-3.643072,4.121637,-0.077427,-0.016341,0.042455,31.03,65.6550592992663
7362,-8.356933,-3.632903,4.116253,-0.077733,-0.005498,0.041997,31.01,65.690418030457
7372,-8.366504,-3.649055,4.110869,-0.078191,0.005651,0.04047,31.01,65.7543701533523
7382,-8.376674,-3.646662,4.109075,-0.078191,0.014508,0.039859,30.96,65.7833786653378
7392,-8.370093,-3.650251,4.102495,-0.077274,0.023976,0.03879,30.96,65.8069267276388
7402,-8.382057,-3.661019,4.092923,-0.075747,0.031918,0.036957,31.02,65.892636546972
7412,-8.388638,-3.665206,4.088138,-0.075442,0.038332,0.035125,31.02,65.935586478834
7422,-8.389236,-3.66042,4.071388,-0.074373,0.044288,0.033292,31.02,66.0198729306655
7432,-8.395219,-3.67059,4.060022,-0.072693,0.048564,0.031918,31.02,66.1014428347696
7442,-8.41137,-3.685545,4.045665,-0.071319,0.051924,0.029627,31,66.2244810696413
7452,-8.425727,-3.692724,4.028317,-0.069791,0.054825,0.025809,31,66.3519283395729
7462,-8.428718,-3.684947,4.024727,-0.067348,0.053451,0.023213,31,66.3698270060207
7472,-8.438289,-3.690331,4.016353,-0.06521,0.052534,0.021075,31.01,66.4385497239523
7482,-8.440681,-3.695116,4.008576,-0.063835,0.050091,0.017257,31.01,66.4885644839555
7492,-8.452645,-3.699304,3.99721,-0.062461,0.047647,0.014355,31.02,66.57668283047
7502,-8.453244,-3.698107,3.991827,-0.062003,0.043219,0.012065,31.02,66.6049897534696
7512,-8.437093,-3.702893,3.983452,-0.062003,0.037721,0.007941,31,66.6196890448869
7522,-8.458031,-3.707081,3.98405,-0.06185,0.031765,0.00504,31,66.663713063877
7532,-8.46102,-3.71725,3.975077,-0.062156,0.025198,0.001527,31.03,66.7260299957904
7545,-8.465807,-3.707679,3.970889,-0.062919,0.018326,-0.002902,31.03,66.7491567673685
7552,-8.465208,-3.709473,3.962514,-0.062766,0.011454,-0.006261,30.97,66.7933848187432
7562,-8.456235,-3.712464,3.961916,-0.063988,0.004123,-0.009927,30.97,66.7807560177102
7572,-8.462217,-3.708875,3.958925,-0.06521,-0.003207,-0.013134,31.02,66.8054948717753
7582,-8.456235,-3.710072,3.96072,-0.066584,-0.011606,-0.016493,31.02,66.7848624369321
7592,-8.455637,-3.71725,3.953541,-0.069028,-0.0197,-0.019548,30.98,66.8277444412312
7602,-8.443074,-3.705286,3.957131,-0.070708,-0.027489,-0.022297,30.98,66.7722408718709
7612,-8.42812,-3.705884,3.966104,-0.072235,-0.034972,-0.023976,30.95,66.6947943851586
7622,-8.429914,-3.705884,3.968496,-0.074067,-0.042455,-0.026267,30.95,66.6859542357874
7632,-8.418548,-3.696911,3.970291,-0.077122,-0.055894,-0.026573,31.03,66.6447903941762
7642,-8.409575,-3.70409,3.97388,-0.078343,-0.060628,-0.026267,30.98,66.6138559747802
7652,-8.395219,-3.68734,3.97747,-0.078954,-0.06521,-0.026114,30.98,66.5497208071753
7662,-8.396414,-3.689135,3.978068,-0.078954,-0.069486,-0.023824,31.02,66.5507185746505
7672,-8.38804,-3.701697,3.982853,-0.080787,-0.073457,-0.021686,31.02,66.5196237775769
7682,-8.379665,-3.69392,3.985246,-0.080481,-0.0759,-0.017868,31,66.4823431754878
7692,-8.370691,-3.693322,3.996612,-0.079412,-0.077274,-0.013592,31,66.4031798096452
7702,-8.376674,-3.693322,3.995416,-0.078496,-0.078802,-0.009163,31.02,66.4220361086025
7712,-8.353942,-3.680161,3.995416,-0.077122,-0.078496,-0.004734,31.02,66.3619869575784
7722,-8.353344,-3.684947,4.012764,-0.075595,-0.078038,0.002443,31.02,66.2738694533537
7732,-8.355738,-3.683152,4.00738,-0.073304,-0.076664,0.009316,31.02,66.3055788788042
7742,-8.326425,-3.677768,4.014558,-0.07025,-0.074526,0.015882,31,66.2006249679035
7752,-8.343773,-3.675375,4.019344,-0.067501,-0.072235,0.023366,31,66.2100344854064
7762,-8.337791,-3.677768,4.017549,-0.064446,-0.069028,0.030391,31.04,66.209020670576
7772,-8.324032,-3.675974,4.028915,-0.060781,-0.065973,0.037263,31.04,66.1182246773867
7782,-8.335398,-3.655036,4.028915,-0.058032,-0.061697,0.045204,31,66.1228154950627
7792,-8.348558,-3.647858,4.040281,-0.054214,-0.058338,0.052229,31,66.0844217855442
7802,-8.344371,-3.665804,4.040879,-0.047647,-0.048717,0.063835,30.98,66.0891238115707
7812,-8.356933,-3.649055,4.046263,-0.04383,-0.044593,0.068875,31,66.0719999022841
7822,-8.362316,-3.664608,4.049852,-0.040775,-0.039706,0.074067,31,66.0791581616715
7832,-8.37129,-3.642474,4.05404,-0.039248,-0.036041,0.077885,30.99,66.0557263415823
7842,-8.365308,-3.646064,4.052245,-0.036957,-0.03146,0.081856,30.99,66.0557055671847
7852,-8.375478,-3.64726,4.051647,-0.034972,-0.027336,0.083383,30.98,66.0816455712772
7862,-8.410173,-3.655635,4.061218,-0.034361,-0.023824,0.084758,30.98,66.1130900267681
7872,-8.401799,-3.652644,4.066602,-0.033139,-0.019548,0.08491,30.98,66.064414028587
7882,-8.4012,-3.655635,4.077968,-0.032681,-0.015272,0.084452,30.98,66.0065539494352
7892,-8.408379,-3.661019,4.077968,-0.033598,-0.011301,0.082467,31,66.0268220204515
7902,-8.419147,-3.649653,4.077968,-0.034361,-0.00733,0.08094,31,66.039218826159
7912,-8.425727,-3.651447,4.076771,-0.036346,-0.003818,0.076816,31,66.0610908365851
7922,-8.44128,-3.659822,4.082754,-0.037874,-0.000305,0.072235,31,66.0706163399122
7932,-8.433504,-3.663411,4.074379,-0.040623,0.002596,0.068111,30.97,66.1010462947202
7942,-8.42812,-3.668197,4.077968,-0.043982,0.006109,0.062919,30.97,66.0753581944696
7952,-8.445468,-3.661617,4.077968,-0.047953,0.009621,0.057574,30.98,66.1060295595784
7962,-8.439486,-3.680161,4.074977,-0.050396,0.012981,0.051771,30.98,66.1259905773131
7972,-8.439486,-3.672983,4.067799,-0.054825,0.018631,0.038485,31,66.1567570820249
7982,-8.447262,-3.689733,4.061816,-0.062461,0.02138,0.031612,31.01,66.2196652818516
7992,-8.440084,-3.686741,4.057031,-0.066279,0.023518,0.025045,31.01,66.2267441495247
8002,-8.452048,-3.679563,4.065406,-0.071471,0.025198,0.017257,30.96,66.2017205524917
8012,-8.436494,-3.68375,4.058825,-0.074984,0.026267,0.011912,30.96,66.2070931954586
8022,-8.439486,-3.684349,4.048656,-0.078191,0.027336,0.005345,31.02,66.2669422988832
8032,-8.434101,-3.681956,4.045067,-0.082009,0.028405,-0.001069,31.02,66.2721508239097
8042,-8.429914,-3.689733,4.031308,-0.085063,0.027642,-0.00672,31.03,66.3423312931182
8052,-8.435298,-3.688536,4.021737,-0.087812,0.026878,-0.013286,31.03,66.4025177148873
8062,-8.439486,-3.688536,4.012166,-0.090866,0.025656,-0.018021,31.02,66.4612992891233
8072,-8.428718,-3.690331,4.005585,-0.092699,0.023366,-0.022449,31.02,66.4748921893301
8082,-8.441879,-3.69392,3.996612,-0.094379,0.019853,-0.02642,30.99,66.5525527681656
8092,-8.428718,-3.695116,3.982853,-0.095906,0.016035,-0.030238,30.99,66.5983577549523
8102,-8.429914,-3.691527,3.975675,-0.096364,0.012217,-0.032834,31,66.6352254201733
8112,-8.425727,-3.698706,3.970291,-0.096822,0.008094,-0.034972,31,66.6613239300344
8122,-8.429317,-3.691527,3.958327,-0.096975,0.000764,-0.037721,31.05,66.725072203917
8132,-8.423933,-3.699902,3.942773,-0.0956,-0.005192,-0.038485,31.05,66.8033130627195
8142,-8.413164,-3.694518,3.93739,-0.094684,-0.011454,-0.037568,31.03,66.8045243030734
8152,-8.419147,-3.696313,3.933203,-0.090866,-0.026267,-0.035888,30.99,66.8405633859493
8162,-8.405987,-3.684349,3.932006,-0.087354,-0.033903,-0.033292,30.99,66.8088339275469
8172,-8.41137,-3.683152,3.9338,-0.084605,-0.041081,-0.030238,30.98,66.8094274747749
8182,-8.395219,-3.688536,3.926622,-0.081092,-0.049327,-0.025962,30.98,66.8187622670414
8192,-8.392825,-3.683152,3.932006,-0.07758,-0.057269,-0.021686,31,66.7804764303568
8202,-8.388638,-3.680161,3.929613,-0.073151,-0.065363,-0.017257,31,66.7817049649684
8212,-8.383254,-3.686144,3.933203,-0.069333,-0.072693,-0.010843,30.99,66.7570194553359
8222,-8.387442,-3.682554,3.932604,-0.064141,-0.079565,-0.004429,30.99,66.7656039347256
8232,-8.377273,-3.67059,3.93739,-0.060323,-0.085368,0.002902,31,66.7082521703613
8242,-8.365308,-3.678965,3.953541,-0.055589,-0.091783,0.009927,31,66.6056203926832
8252,-8.362915,-3.678366,3.958925,-0.050702,-0.096669,0.017715,31.03,66.5716301375349
8262,-8.372486,-3.675974,3.966104,-0.046426,-0.100335,0.025198,31.03,66.5515914041151
8272,-8.352147,-3.675974,3.983452,-0.042761,-0.103694,0.031918,30.98,66.4173728317177
8282,-8.355738,-3.66042,3.994817,-0.039095,-0.105985,0.040164,30.98,66.350621225238
8292,-8.357532,-3.664608,4.001996,-0.035583,-0.106443,0.047342,31.01,66.3204766580295
8302,-8.350951,-3.657429,4.023531,-0.034208,-0.105985,0.055131,31.01,66.1865105509947
8312,-8.356335,-3.669394,4.044468,-0.032223,-0.104458,0.060018,31,66.0991335897397
8322,-8.338388,-3.653242,4.058227,-0.030849,-0.096364,0.069333,31.03,65.973433677224
8332,-8.347363,-3.655036,4.08395,-0.031307,-0.090561,0.072998,31.03,65.8595171954782
8342,-8.353344,-3.665206,4.098905,-0.03146,-0.083536,0.075442,31.01,65.8037316009093
8352,-8.353344,-3.658626,4.099504,-0.032529,-0.075442,0.077733,31.01,65.7943957723591
8362,-8.36471,-3.656233,4.118048,-0.036041,-0.065668,0.077733,30.99,65.7198062050525
8372,-8.371889,-3.65384,4.132405,-0.03879,-0.055283,0.076969,30.99,65.6582246433673
8382,-8.370093,-3.650251,4.135994,-0.041692,-0.043982,0.076205,31.02,65.6322757573553
8392,-8.376076,-3.654438,4.135396,-0.045662,-0.032376,0.07422,31.02,65.652256851001
8402,-8.38445,-3.658626,4.14736,-0.049786,-0.020464,0.071013,30.97,65.6120686272751
8412,-8.376674,-3.667001,4.137789,-0.054367,-0.008552,0.067195,30.97,65.6529411027311
8422,-8.390432,-3.662813,4.146762,-0.058185,0.003971,0.062461,31,65.6320216789949
8432,-8.397612,-3.666403,4.149154,-0.063377,0.015577,0.056963,31,65.6384509926047
8442,-8.406584,-3.669394,4.13719,-0.067195,0.027794,0.051313,31.02,65.7226327344072
8452,-8.404191,-3.67059,4.13061,-0.071929,0.038026,0.045509,31.02,65.7527852048358
8462,-8.413763,-3.684349,4.122834,-0.077122,0.047495,0.039401,30.98,65.8265149343633
8472,-8.413763,-3.668197,4.110271,-0.080329,0.056658,0.032681,30.98,65.8767245489669
8482,-8.425727,-3.69392,4.084548,-0.084147,0.064599,0.026878,31,66.059828880778
8492,-8.436494,-3.691527,4.076173,-0.08659,0.073915,0.01573,31,66.1239312031683
8502,-8.43111,-3.696313,4.064209,-0.092088,0.077274,0.010996,31.02,66.17928078364
8512,-8.442476,-3.697509,4.039085,-0.093921,0.078038,0.006109,31.04,66.3351891338204
8522,-8.438289,-3.690331,4.019942,-0.09499,0.077274,0.00168,31.04,66.419792589182
8532,-8.446067,-3.690331,4.003192,-0.095906,0.074373,-0.002596,31.03,66.5235771017697
8542,-8.440681,-3.696911,3.991228,-0.096364,0.071013,-0.005192,31.03,66.580966810268
8552,-8.436494,-3.702893,3.967898,-0.096059,0.065668,-0.007636,31.02,66.6999898711211
8562,-8.440084,-3.7005,3.963113,-0.094837,0.058796,-0.009927,31.02,66.7303458107224
8572,-8.442476,-3.702295,3.930809,-0.093004,0.050549,-0.01069,30.98,66.9065869961389
8582,-8.449057,-3.710072,3.932604,-0.092088,0.040623,-0.012217,30.98,66.9176585180336
8592,-8.446067,-3.709473,3.924827,-0.089339,0.029932,-0.012523,31.01,66.9518740440665
8602,-8.447262,-3.708875,3.926622,-0.087201,0.019548,-0.011454,31.01,66.9443453562067
8612,-8.443074,-3.719643,3.91406,-0.083689,0.008094,-0.01069,31.02,67.0115485553429
8622,-8.438289,-3.713063,3.908078,-0.080023,-0.004276,-0.010996,31.02,67.0273475075744
8632,-8.450851,-3.718446,3.899703,-0.076358,-0.016799,-0.008705,31,67.1019192629159
8642,-8.430512,-3.716054,3.905685,-0.072846,-0.029474,-0.006261,31,67.0267513548088
8652,-8.420941,-3.710072,3.901497,-0.069028,-0.041692,-0.003665,31,67.0238618586237
8662,-8.415558,-3.695116,3.902694,-0.06521,-0.052382,0.002138,31,66.9930149316758
8672,-8.416155,-3.696313,3.914658,-0.058185,-0.073762,0.00504,31.04,66.932165541998
8682,-8.400601,-3.699902,3.917051,-0.05452,-0.083994,0.009316,31.03,66.8907489962379
8702,-8.410173,-3.680759,3.943372,-0.048411,-0.099418,0.015577,31.03,66.7543289427296
8712,-8.393424,-3.680759,3.954738,-0.046578,-0.106138,0.019853,31.03,66.6596295455356
8722,-8.39462,-3.689135,3.964309,-0.044899,-0.111483,0.023366,30.98,66.6193668357545
8732,-8.388638,-3.672385,3.985844,-0.042913,-0.115606,0.025809,30.98,66.4781760735405
8742,-8.38445,-3.677768,4.001996,-0.042455,-0.117286,0.029627,31,66.389420067565
8752,-8.383254,-3.679563,4.004987,-0.042302,-0.117897,0.032223,31,66.3728475115444
8762,-8.38146,-3.662215,4.025924,-0.042761,-0.11805,0.034056,30.98,66.2431039594645
8772,-8.377273,-3.665206,4.041477,-0.043371,-0.116523,0.036041,30.98,66.1554299389142
8782,-8.369495,-3.658028,4.049254,-0.045357,-0.113163,0.038026,31,66.0914509920083
8792,-8.373085,-3.651447,4.063013,-0.047495,-0.108887,0.039859,31,66.0208899330346
8802,-8.37129,-3.657429,4.084548,-0.050091,-0.104,0.039706,31,65.9099710700452
8812,-8.368299,-3.649055,4.085745,-0.05284,-0.097738,0.039859,31,65.889468880432
8822,-8.368897,-3.652046,4.098307,-0.0562,-0.091019,0.039095,30.96,65.8279079127944
8832,-8.373085,-3.638885,4.106682,-0.059254,-0.082925,0.040164,30.96,65.7808605657928
8842,-8.368897,-3.646064,4.110869,-0.065821,-0.066126,0.038943,31.03,65.7567166541194
8852,-8.366504,-3.644269,4.119244,-0.069028,-0.056047,0.038943,31,65.706177752948
8862,-8.35813,-3.637689,4.121039,-0.07254,-0.046884,0.037874,31,65.6725260022217
8872,-8.373085,-3.6341,4.11386,-0.075747,-0.037721,0.036194,31,65.7389233397941
8882,-8.362915,-3.629314,4.118048,-0.078038,-0.0281,0.036805,31,65.6906143274832
8892,-8.359326,-3.654438,4.116253,-0.081092,-0.01909,0.035736,30.99,65.7158679429617
8902,-8.379665,-3.641278,4.115655,-0.083383,-0.01069,0.034514,30.99,65.7504634585705
8912,-8.35813,-3.649653,4.106682,-0.085979,-0.001833,0.032834,31,65.7587475974026
8922,-8.362316,-3.654438,4.096512,-0.086896,0.005803,0.03375,31,65.8253878956952
8932,-8.377273,-3.650251,4.104289,-0.087506,0.013744,0.034208,31.04,65.8129945841884
8942,-8.368299,-3.662215,4.082156,-0.089339,0.019548,0.034667,31.04,65.9205523339291
8952,-8.382057,-3.66401,4.070191,-0.089339,0.025809,0.034819,31.02,66.0141722762092
8962,-8.379665,-3.667001,4.068397,-0.088575,0.030391,0.035277,31.02,66.0212429675735
8972,-8.372486,-3.659224,4.049852,-0.08827,0.034667,0.034819,30.98,66.0957973431527
8982,-8.378469,-3.661019,4.046861,-0.087048,0.037568,0.036957,30.98,66.1258647895667
8992,-8.391031,-3.67418,4.042674,-0.08491,0.039401,0.037874,31.01,66.186644829596
9002,-8.396414,-3.702295,4.018147,-0.082925,0.040928,0.038485,31.01,66.3524839622607
9012,-8.397612,-3.680759,4.005585,-0.07926,0.040775,0.039859,30.97,66.4009896050443
9022,-8.397612,-3.692724,4.008576,-0.075747,0.039859,0.039706,31.01,66.3963232843292
9032,-8.4012,-3.705286,4.00379,-0.072693,0.037874,0.039706,31.01,66.4405244258189
9042,-8.409575,-3.693322,3.991228,-0.070555,0.035277,0.039706,31,66.5129123784528
9052,-8.426325,-3.706482,3.986442,-0.067959,0.032681,0.039248,31,66.5849417078268
9062,-8.419745,-3.702893,3.991827,-0.065821,0.029322,0.038332,31.02,66.5397462577614
9072,-8.426923,-3.711866,3.994817,-0.064294,0.025351,0.036957,31.02,66.5472339716195
9082,-8.435897,-3.714857,3.980461,-0.062156,0.02138,0.034056,30.95,66.6437800704171
9092,-8.450851,-3.71067,3.990032,-0.061239,0.01573,0.032376,30.95,66.6208282992628
9102,-8.447262,-3.715455,3.985246,-0.060781,0.011148,0.029169,31.05,66.6427910913646
9112,-8.455039,-3.705286,3.989433,-0.060018,0.006261,0.025656,31.05,66.6277418807395
9122,-8.452645,-3.709473,3.989433,-0.061087,0.000916,0.021533,30.98,66.6265872072152
9132,-8.460423,-3.713661,3.99063,-0.062003,-0.005498,0.01741,30.98,66.6402186843814
9142,-8.462815,-3.716652,3.991228,-0.06353,-0.011759,0.013592,31.02,66.6447498318241
9152,-8.462815,-3.701697,3.987639,-0.065515,-0.017562,0.008247,31.02,66.6499607730562
9162,-8.46102,-3.708277,3.987639,-0.068111,-0.023213,0.003665,30.98,66.6522060308736
9172,-8.453843,-3.70409,3.985844,-0.070402,-0.028863,-0.000458,30.98,66.64295557023
9182,-8.453244,-3.706482,3.985844,-0.074373,-0.041386,-0.008858,30.97,66.6438856017813
9192,-8.446067,-3.704688,3.988835,-0.080481,-0.046884,-0.013439,30.99,66.6117421273778
9202,-8.447861,-3.697509,3.979862,-0.083383,-0.052534,-0.016493,30.99,66.6559205788405
9212,-8.430512,-3.693322,3.989433,-0.08659,-0.058032,-0.018937,31.04,66.5659606262184
9222,-8.432905,-3.69392,3.978068,-0.089034,-0.063225,-0.021533,31.04,66.63105785012
9232,-8.435298,-3.691527,3.993023,-0.092088,-0.067501,-0.021686,31.02,66.5554752649407
9242,-8.423933,-3.689733,3.991228,-0.093615,-0.072082,-0.021991,31.02,66.539578406903
9252,-8.416155,-3.687938,3.992425,-0.095906,-0.0759,-0.021228,31.01,66.5154381114658
9262,-8.395219,-3.686144,3.982255,-0.096211,-0.07926,-0.01909,31.01,66.5234629405761
9272,-8.383254,-3.693322,3.999603,-0.096364,-0.082314,-0.017104,31,66.413845017191
9282,-8.378469,-3.675375,3.993621,-0.096669,-0.08491,-0.012675,31,66.4186636455749
9292,-8.369495,-3.677171,3.990032,-0.096211,-0.086896,-0.008247,31.03,66.4203345630719
9302,-8.365308,-3.672385,3.992425,-0.094226,-0.08827,-0.002749,31.03,66.3944940710192
9312,-8.345568,-3.667001,4.000201,-0.092088,-0.089034,0.003512,31.02,66.3068378560457
9322,-8.35155,-3.663411,4.007978,-0.089492,-0.088881,0.009621,31.02,66.2752015002294
9332,-8.3348,-3.672385,4.007978,-0.085674,-0.088423,0.017715,31.02,66.2480457165244
9342,-8.327023,-3.664608,4.00738,-0.08262,-0.087506,0.025045,31.02,66.2274021874598
9352,-8.323434,-3.668197,4.015755,-0.078496,-0.086437,0.041233,31.05,66.1789666205301
9362,-8.335398,-3.656233,4.012764,-0.068875,-0.080787,0.049633,31,66.2090030825007
9372,-8.333604,-3.662813,4.035496,-0.064294,-0.077427,0.057116,31,66.091644099061
9382,-8.325827,-3.657429,4.04387,-0.059559,-0.073304,0.064294,31,66.0259059204496
9392,-8.333005,-3.652046,4.054638,-0.055131,-0.068875,0.071013,31,65.9796179550885
9402,-8.330612,-3.658028,4.049254,-0.051465,-0.06353,0.076816,30.98,66.0084071633159
9412,-8.328219,-3.65384,4.065406,-0.048564,-0.056963,0.082314,30.98,65.9144733422999
9422,-8.349156,-3.659822,4.073781,-0.045815,-0.05116,0.085674,31.01,65.9211274882073
9432,-8.356335,-3.658028,4.074379,-0.043524,-0.044593,0.089339,31.01,65.9316984070441
9442,-8.350951,-3.650251,4.089334,-0.041692,-0.037721,0.091324,31.02,65.8345488079074
9452,-8.362915,-3.658028,4.092923,-0.040164,-0.030085,0.093462,31.02,65.8488017877014
9462,-8.379066,-3.659822,4.093522,-0.04047,-0.022297,0.093157,31,65.8819873027796
9472,-8.383853,-3.642474,4.09711,-0.041386,-0.014661,0.091935,31,65.8573205418885
9482,-8.389835,-3.658028,4.110271,-0.042761,-0.008247,0.089034,31.03,65.8160466062885
9492,-8.4012,-3.655036,4.113262,-0.045051,-0.000153,0.086437,31.03,65.8220407381427
9502,-8.403594,-3.661019,4.109075,-0.047953,0.00733,0.082467,30.99,65.8545342122989
9512,-8.417951,-3.655635,4.106682,-0.052229,0.01405,0.076969,30.99,65.8926613793015
9522,-8.420342,-3.659224,4.099504,-0.05681,0.020922,0.071166,31.03,65.9384294158012
9532,-8.44128,-3.665206,4.105485,-0.066584,0.031307,0.057421,31.03,65.9574225426559
9546,-8.445468,-3.67059,4.099504,-0.071319,0.036041,0.05116,30.98,66.0023333016664
9552,-8.447861,-3.671188,4.086343,-0.077733,0.038943,0.042608,31,66.0763234582329
9562,-8.455637,-3.675375,4.072584,-0.083078,0.041081,0.034819,31,66.1681037402208
9572,-8.452645,-3.673581,4.061218,-0.087965,0.043066,0.027794,30.98,66.21929910831
9582,-8.453244,-3.682554,4.058227,-0.09331,0.042608,0.019548,30.98,66.2443361253943
9592,-8.462815,-3.682554,4.046861,-0.09896,0.042913,0.013134,30.99,66.3235802901989
9602,-8.449057,-3.692724,4.035496,-0.103084,0.040623,0.005498,30.99,66.3632950963611
9612,-8.453843,-3.688536,4.02413,-0.107512,0.03711,-0.001374,31,66.4287663370819
9622,-8.449656,-3.697509,4.011567,-0.110567,0.033292,-0.007025,31,66.4938058656677
9632,-8.449656,-3.701697,3.993621,-0.114079,0.027794,-0.012675,30.97,66.5914246040581
9642,-8.446664,-3.695116,3.975675,-0.116828,0.022144,-0.017715,30.97,66.6732093863268
9652,-8.446067,-3.691527,3.97388,-0.118202,0.015882,-0.020464,30.98,66.6781315236708
9662,-8.446067,-3.704688,3.964309,-0.118966,0.008552,-0.023366,30.98,66.7402220175779
9672,-8.435897,-3.698107,3.955934,-0.119271,0.000458,-0.025198,31,66.7572121167163
9682,-8.436494,-3.711866,3.94397,-0.118813,-0.007636,-0.02642,31,66.833748983089
9692,-8.440084,-3.709473,3.9338,-0.117439,-0.01573,-0.027642,31,66.8924187509343
9702,-8.416155,-3.702893,3.934398,-0.115759,-0.033139,-0.025198,31,66.8340626272771
9712,-8.419147,-3.696313,3.9338,-0.110414,-0.041844,-0.023518,30.98,66.8374187843261
9722,-8.406584,-3.708277,3.923631,-0.107207,-0.050855,-0.021533,30.98,66.8759676873054
9732,-8.39462,-3.701697,3.942175,-0.103542,-0.058948,-0.016952,30.98,66.7474640098049
9742,-8.4012,-3.695715,3.934398,-0.098349,-0.067195,-0.012981,31,66.7966400941456
9752,-8.39462,-3.695116,3.930212,-0.094073,-0.073915,-0.008705,31,66.8045607272422
9762,-8.38445,-3.698706,3.938586,-0.089492,-0.080634,-0.004276,31,66.7425667774468
9772,-8.388638,-3.695715,3.947559,-0.085063,-0.087048,0.000458,31,66.7011925189453
9782,-8.365308,-3.693322,3.955336,-0.080787,-0.093004,0.005345,31,66.6093654244095
9792,-8.369495,-3.684947,3.9673,-0.076205,-0.096669,0.011759,31,66.547282464474
9802,-8.360522,-3.685545,3.972086,-0.071929,-0.100335,0.018021,31.03,66.5037896101273
9812,-8.359925,-3.680759,3.981657,-0.067959,-0.102931,0.022602,31.03,66.4476432173339
9822,-8.369495,-3.672983,3.987639,-0.064904,-0.104458,0.029169,31.02,66.4290659184346
9832,-8.365308,-3.671786,4.005585,-0.061697,-0.105069,0.034667,31.02,66.3246766905537
9842,-8.344371,-3.675974,4.023531,-0.058338,-0.104763,0.040317,30.97,66.1898383188442
9852,-8.353942,-3.667599,4.031308,-0.056658,-0.102778,0.046731,30.97,66.1614663097301
9862,-8.362915,-3.661019,4.045665,-0.055131,-0.100945,0.050549,31,66.0990458017935
9872,-8.357532,-3.654438,4.06062,-0.05284,-0.098197,0.060018,31,66.0029879232623
9882,-8.352147,-3.668197,4.07737,-0.053451,-0.088728,0.064446,30.99,65.9166185856554
9892,-8.352147,-3.648456,4.089334,-0.054062,-0.082925,0.066432,30.98,65.835434473798
9902,-8.350353,-3.659822,4.083352,-0.055436,-0.075747,0.069028,30.98,65.8735757753195
9912,-8.352745,-3.656233,4.091727,-0.057116,-0.068722,0.07086,30.97,65.8315158052446
9922,-8.368897,-3.661019,4.109075,-0.059865,-0.061087,0.072388,30.97,65.780127762141
9932,-8.372486,-3.662813,4.109673,-0.062614,-0.05284,0.072693,30.98,65.7864091888778
9942,-8.363514,-3.657429,4.113262,-0.065821,-0.044288,0.072693,30.98,65.7433206812156
9952,-8.38445,-3.65384,4.116851,-0.069028,-0.036041,0.073151,30.99,65.7662884968185
9962,-8.370093,-3.651447,4.118646,-0.074067,-0.027336,0.07086,30.99,65.7237860631506
9972,-8.385049,-3.659224,4.131807,-0.07758,-0.018937,0.069791,30.98,65.6947759077191
9982,-8.386245,-3.661617,4.124628,-0.081092,-0.010232,0.067959,30.98,65.7369477623669
9992,-8.389236,-3.665804,4.113262,-0.085216,-0.002596,0.06521,31.04,65.8064616310486
10002,-8.393424,-3.664608,4.115057,-0.089186,0.005345,0.062308,31.04,65.8049740189332
10012,-8.395219,-3.665206,4.1007,-0.092393,0.013134,0.059559,30.99,65.8841442666554
10022,-8.402995,-3.67418,4.092325,-0.096211,0.018173,0.056658,30.99,65.9527401277495
10032,-8.399406,-3.66401,4.091727,-0.099266,0.023518,0.053603,31.03,65.9387369588288
10042,-8.413763,-3.679563,4.067201,-0.101098,0.029016,0.050091,31.03,66.1115751040299
10052,-8.456833,-3.679563,4.009772,-0.105527,0.034972,0.042761,30.96,66.5018225277031
10062,-8.646465,-3.61376,3.883551,-0.091019,0.041233,0.020922,31,67.490368648831
10072,-8.359326,-3.681956,4.029513,-0.072693,0.049022,-0.00733,31,66.1957254808406
10082,-8.428718,-3.695116,4.034299,-0.073457,0.049327,-0.006109,31,66.3291454087242
10092,-8.365907,-3.7005,4.015156,-0.074373,0.049633,-0.005956,31,66.3023315798587
10102,-8.417352,-3.705286,4.002594,-0.073304,0.047647,-0.004276,31.02,66.480535361092
10112,-8.385648,-3.705286,3.985246,-0.072082,0.045204,-0.00504,31.02,66.5053576398193
10122,-8.421539,-3.7005,3.985844,-0.070555,0.041233,-0.003054,30.99,66.5726594477268
10132,-8.407183,-3.705286,3.964907,-0.069791,0.036041,-0.003971,30.99,66.657134378515
10142,-8.417951,-3.707679,3.962514,-0.068722,0.030085,-0.00336,31.01,66.6942268653779
10152,-8.435897,-3.703491,3.933203,-0.065973,0.023213,-0.002749,31.01,66.8815541440049
10162,-8.52144,-3.667599,3.835695,-0.054672,0.020311,-0.011148,31,67.5371331519151
10172,-8.413164,-3.722036,3.951746,-0.039859,0.020769,-0.023213,31,66.7540294592217
10182,-8.430512,-3.714857,3.947559,-0.036499,0.012981,-0.020922,30.97,66.8052850745507
10192,-8.415558,-3.717848,3.940381,-0.034667,0.004276,-0.020311,30.97,66.8149299970279
10202,-8.428718,-3.715455,3.951149,-0.033292,-0.003971,-0.020617,31.03,66.7832686466078
10212,-8.42812,-3.714857,3.941577,-0.031154,-0.012675,-0.019242,31.03,66.8318006799103
10222,-8.430512,-3.725625,3.949952,-0.029322,-0.029016,-0.017562,31,66.8025003651628
10232,-8.419745,-3.712464,3.948756,-0.026725,-0.037874,-0.015882,31.02,66.7746108235655
10242,-8.431709,-3.711268,3.958327,-0.025198,-0.045357,-0.016035,31.02,66.7479369157916
10252,-8.414959,-3.707679,3.96072,-0.024129,-0.052229,-0.016035,31.02,66.6974562656443
10262,-8.417352,-3.719045,3.979264,-0.023671,-0.057879,-0.014508,31.02,66.6154473077812
10272,-8.404191,-3.712464,3.981059,-0.02306,-0.06353,-0.013897,30.99,66.5726392431762
10282,-8.403594,-3.709473,3.993621,-0.02306,-0.067806,-0.01237,30.99,66.5027163007442
10292,-8.397013,-3.697509,3.997808,-0.024435,-0.071319,-0.01069,31,66.455972444107
10302,-8.392226,-3.699902,4.012166,-0.024282,-0.073915,-0.009927,31,66.3728275886719
10312,-8.385049,-3.705884,4.020541,-0.025351,-0.074984,-0.007025,30.97,66.3193902541349
10322,-8.380861,-3.696313,4.025326,-0.026878,-0.076205,-0.005956,30.97,66.2765930104148
10332,-8.408977,-3.66042,4.014558,-0.027184,-0.074984,-0.003971,31.02,66.3591396314314
10342,-8.370093,-3.681956,4.034299,-0.026573,-0.073151,-0.004123,31.02,66.1934242454616
10352,-8.370093,-3.691527,4.041477,-0.027489,-0.071777,-0.002443,31.01,66.1647221073995
10362,-8.352147,-3.676572,4.058825,-0.028863,-0.068417,0.00168,31.01,66.0216374751522
10372,-8.359326,-3.67059,4.059424,-0.030238,-0.064446,0.006109,31,66.028203663257
10382,-8.347363,-3.674777,4.07737,-0.032834,-0.059407,0.008399,31,65.912568077082
10392,-8.331809,-3.67418,4.075575,-0.034819,-0.054672,0.01741,31,65.8880523273904
10402,-8.355738,-3.662215,4.080959,-0.037263,-0.041692,0.020159,31.01,65.8999046910281
10412,-8.340781,-3.663411,4.074977,-0.038485,-0.034972,0.024129,31.01,65.9002721344473
10422,-8.353942,-3.668197,4.088736,-0.039554,-0.029322,0.02642,30.99,65.8609968933442
10432,-8.344969,-3.661019,4.08395,-0.040623,-0.022449,0.029627,30.99,65.8600078083594
10442,-8.35813,-3.66042,4.079762,-0.041233,-0.01573,0.033445,31,65.9096106054151
10452,-8.346166,-3.659224,4.074977,-0.041386,-0.008705,0.036346,31,65.9078855823253
10462,-8.356335,-3.665206,4.076173,-0.041997,-0.003054,0.038332,31,65.9290431576688
10472,-8.367702,-3.662813,4.077968,-0.04215,0.003207,0.041233,31,65.9417349201036
10482,-8.362316,-3.65384,4.074379,-0.041844,0.008858,0.043677,31.03,65.9405870820704
10492,-8.367103,-3.661617,4.080361,-0.041844,0.013744,0.044288,31.03,65.9268181313123
10502,-8.364112,-3.667599,4.064209,-0.041386,0.018326,0.045968,31.04,66.0105504384255
10512,-8.359326,-3.650849,4.064807,-0.04047,0.021991,0.047189,31.04,65.9815243666401
10522,-8.376674,-3.661019,4.064209,-0.04047,0.025809,0.047953,31.02,66.0312009222592
10532,-8.388638,-3.666403,4.057031,-0.039095,0.028711,0.048564,31.02,66.0992243323477
10542,-8.38804,-3.669992,4.044468,-0.03879,0.03146,0.048564,31,66.1670358103433
10552,-8.397013,-3.672983,4.034299,-0.038332,0.033139,0.048106,31,66.2420358377503
10562,-8.400003,-3.664608,4.039683,-0.037874,0.033598,0.047037,31.02,66.2124334912086
10572,-8.411968,-3.67059,4.034897,-0.03543,0.034972,0.045509,31.02,66.2682545389712
10582,-8.413164,-3.672385,4.027719,-0.035583,0.033598,0.045357,31.02,66.3099848164026
10592,-8.414959,-3.671786,4.019344,-0.035888,0.032834,0.042608,31,66.3570566720643
10602,-8.429317,-3.662813,4.031906,-0.036346,0.031001,0.040164,31,66.3132984944109
10612,-8.432307,-3.681358,4.01396,-0.036041,0.028711,0.038332,30.97,66.4303659931811
10622,-8.422137,-3.68734,4.001398,-0.035277,0.026114,0.035888,30.97,66.4803428936498
10632,-8.430512,-3.677171,4.009174,-0.035736,0.022144,0.033445,31.03,66.4478359891234
10642,-8.422735,-3.68734,3.997808,-0.036041,0.019242,0.030849,31.03,66.5004035564229
10652,-8.434101,-3.691527,4.005585,-0.037721,0.015882,0.027489,31,66.4872169805373
10662,-8.449057,-3.692126,3.998407,-0.038943,0.010996,0.023671,31,66.556453064248
10672,-8.44427,-3.691527,3.996014,-0.041233,0.006872,0.019548,31,66.5584776321414
10682,-8.446067,-3.679563,3.999603,-0.043066,0.002749,0.016188,31,66.532570809906
10692,-8.452645,-3.681956,4.00379,-0.045051,-0.002138,0.01237,31,66.5265370170946
10702,-8.447262,-3.691527,4.009174,-0.047189,-0.007178,0.007025,31,66.4958783265332
10712,-8.440084,-3.690331,4.004389,-0.048717,-0.010996,0.003665,31.02,66.5048563543327
10722,-8.447861,-3.686741,3.996612,-0.052382,-0.016188,-0.000153,31.02,66.5584684056676
10732,-8.442476,-3.680759,3.992425,-0.054978,-0.020311,-0.004734,31.01,66.5637563385839
10742,-8.445468,-3.696313,4.007978,-0.06017,-0.029932,-0.012523,31.01,66.5027524650102
10752,-8.433504,-3.684947,3.997808,-0.063225,-0.034667,-0.018021,31,66.5206849286338
10762,-8.429914,-3.677171,3.998407,-0.065821,-0.038637,-0.021075,31,66.5029748922486
10772,-8.450253,-3.676572,3.973282,-0.069028,-0.042608,-0.025045,31,66.6764278255986
10782,-8.625527,-3.572484,3.854239,-0.060781,-0.041997,-0.040164,30.99,67.5675609471491
10792,-8.366504,-3.684349,3.994817,-0.0478,-0.03879,-0.062766,30.99,66.3954983244444
10802,-8.444869,-3.68375,4.016353,-0.048564,-0.040623,-0.061087,31.02,66.4462879328667
10812,-8.368897,-3.688536,3.996612,-0.050091,-0.041997,-0.061239,31.02,66.3949701825336
10822,-8.416155,-3.680759,4.009772,-0.050855,-0.044135,-0.058948,31.02,66.4179294721192
10832,-8.362915,-3.695715,4.000201,-0.052076,-0.045051,-0.058032,31.02,66.3701716057702
10842,-8.392825,-3.692724,4.016951,-0.05284,-0.046731,-0.054825,31.01,66.342357043757
10852,-8.365907,-3.681956,4.00738,-0.053145,-0.048411,-0.051771,31.01,66.3259367218108
10862,-8.374879,-3.689733,4.01396,-0.052076,-0.048869,-0.047189,31,66.3175043089662
10872,-8.359326,-3.686144,4.008576,-0.051924,-0.050244,-0.043524,31,66.3096518034878
10882,-8.367103,-3.695116,4.015156,-0.050549,-0.050091,-0.038943,31.01,66.299835932334
10892,-8.359326,-3.692126,4.004389,-0.048564,-0.049786,-0.033445,31.01,66.3372428668215
10902,-8.352745,-3.686144,4.0337,-0.046731,-0.049786,-0.028558,30.96,66.1636983330796
10912,-8.344371,-3.68375,4.028915,-0.044288,-0.048411,-0.016799,30.96,66.1688134930297
10922,-8.342576,-3.684947,4.031308,-0.039248,-0.04612,-0.009774,31,66.1535460205323
10932,-8.339585,-3.683152,4.027121,-0.035125,-0.043982,-0.002902,31,66.1675169709125
10942,-8.338388,-3.675974,4.0337,-0.032834,-0.041081,0.003971,31,66.1236412343456
10952,-8.328219,-3.688536,4.042674,-0.029932,-0.037568,0.011148,31.01,66.066630116807
10962,-8.337193,-3.680759,4.052245,-0.026267,-0.033598,0.018937,31.01,66.0281731689657
10972,-8.327023,-3.691527,4.04746,-0.023824,-0.029474,0.025045,30.99,66.0417598494186
10982,-8.318647,-3.679563,4.05404,-0.020769,-0.024587,0.03207,30.99,65.9779540245746
10992,-8.333604,-3.685545,4.062415,-0.018021,-0.020311,0.038332,30.99,65.9716589856543
11002,-8.340183,-3.693322,4.071388,-0.016188,-0.01405,0.043524,30.99,65.9460523135335
11012,-8.331809,-3.682554,4.064807,-0.013744,-0.007178,0.049786,31,65.9524418544118
11022,-8.336594,-3.680759,4.079165,-0.013134,-0.001069,0.054367,31,65.8857375948805
11032,-8.346166,-3.682554,4.073781,-0.011759,0.005192,0.059865,31,65.9361356680811
11042,-8.355139,-3.687938,4.081557,-0.011912,0.010843,0.063072,31,65.9197173164433
11052,-8.347363,-3.688536,4.073781,-0.010996,0.016493,0.064752,31.02,65.9443439517802
11062,-8.365308,-3.699304,4.080959,-0.011606,0.023366,0.067501,31.02,65.9552720055269
11072,-8.372486,-3.68734,4.084548,-0.012675,0.028711,0.06857,30.98,65.9405746109461
11082,-8.385049,-3.698107,4.078567,-0.015119,0.033139,0.067806,30.98,66.008651442147
11092,-8.404191,-3.701697,4.072584,-0.018784,0.042455,0.067348,31,66.0838047750582
11102,-8.409575,-3.692126,4.070789,-0.021533,0.045357,0.064752,31,66.0956504431525
11112,-8.420941,-3.692724,4.060022,-0.025198,0.047953,0.06185,31,66.1763561035558
11122,-8.436494,-3.687938,4.062415,-0.028405,0.049327,0.058338,30.99,66.1922424500019
11132,-8.44427,-3.686144,4.051647,-0.032376,0.049327,0.054367,30.99,66.2630464807738
11142,-8.447262,-3.699304,4.034299,-0.036499,0.0478,0.048411,31,66.3718029691965
11152,-8.457432,-3.705286,4.036692,-0.040623,0.045815,0.043219,31,66.3860354438972
11162,-8.459227,-3.696313,4.03071,-0.04444,0.044135,0.037568,31.01,66.4127636401406
11172,-8.468199,-3.689135,4.010969,-0.048564,0.040775,0.032987,31.01,66.5278862177416
11182,-8.466404,-3.694518,4.002594,-0.052534,0.035736,0.025351,31.04,66.572753785879
11192,-8.472386,-3.701697,4.00379,-0.055131,0.029932,0.020311,31.04,66.5854031231247
11202,-8.471789,-3.697509,3.984648,-0.058032,0.022907,0.013286,30.99,66.6803609527035
11212,-8.477771,-3.694518,3.980461,-0.060628,0.016188,0.008858,30.99,66.7119009504484
11222,-8.467003,-3.69392,3.984648,-0.063225,0.007941,0.002596,31.01,66.6672354444752
11232,-8.458031,-3.690929,3.966702,-0.065363,-0.000916,-0.002291,31.01,66.7399488626163
11242,-8.467602,-3.688536,3.95055,-0.067042,-0.009468,-0.007025,30.99,66.8421929181613
11252,-8.450851,-3.686144,3.954139,-0.068111,-0.018784,-0.010537,30.99,66.7867100362428
11262,-8.457432,-3.680161,3.951746,-0.067348,-0.036499,-0.016341,31,66.8074682756175
11272,-8.453843,-3.684349,3.949354,-0.066737,-0.045204,-0.018784,30.98,66.8163855707464
11282,-8.450253,-3.689733,3.939782,-0.065668,-0.054062,-0.020159,30.98,66.8641046278927
11292,-8.429914,-3.680161,3.958925,-0.063835,-0.062003,-0.020922,31.01,66.7128710443295
11302,-8.410771,-3.674777,3.958327,-0.061697,-0.06918,-0.021075,31.01,66.6713823165674
11312,-8.410771,-3.672385,3.9673,-0.060323,-0.075747,-0.0197,31.04,66.6219932830091
11322,-8.395219,-3.676572,3.964309,-0.057727,-0.081245,-0.018479,31.04,66.6091237271601
11332,-8.401799,-3.666403,3.974478,-0.055589,-0.085521,-0.016341,31,66.5600547677632
11342,-8.379665,-3.662215,3.983452,-0.052534,-0.089797,-0.013744,31,66.4625851609924
11352,-8.369495,-3.65384,3.99063,-0.050244,-0.091783,-0.010232,31,66.3956585758449
11362,-8.366504,-3.66042,3.999603,-0.047953,-0.093768,-0.00672,31,66.3481620126014
11372,-8.35813,-3.655635,4.005585,-0.045662,-0.093768,-0.003818,30.98,66.2945268426862
11382,-8.365907,-3.643072,4.009174,-0.043371,-0.092393,-0.000153,30.98,66.2804952524526
11392,-8.469995,-3.561118,3.961916,-0.036499,-0.089644,-0.003054,31.02,66.6744037042581
11402,-8.304291,-3.638287,4.0337,-0.028253,-0.085216,-0.010996,31.02,66.0152504354242
11412,-8.350353,-3.649055,4.064209,-0.026725,-0.080023,-0.005192,30.97,65.9637640718183
11422,-8.309675,-3.644269,4.07737,-0.026267,-0.073457,-0.000153,30.97,65.8026094698544
11432,-8.310272,-3.657429,4.08395,-0.026114,-0.058948,0.008705,31.02,65.7818439574214
11442,-8.3348,-3.64726,4.092923,-0.027794,-0.049633,0.014203,30.97,65.7781332036693
11452,-8.322237,-3.643671,4.092325,-0.029169,-0.04047,0.018021,30.97,65.7507230087911
11462,-8.328219,-3.652644,4.111467,-0.030849,-0.031918,0.019548,31.01,65.6719366225166
11472,-8.34138,-3.649653,4.119244,-0.033139,-0.021838,0.022449,31.01,65.6569460039245
11482,-8.350353,-3.648456,4.108477,-0.036805,-0.012675,0.023824,30.98,65.7314662545127
11492,-8.362316,-3.658028,4.116851,-0.039095,-0.003512,0.02474,30.98,65.7225808156913
11502,-8.363514,-3.655036,4.11745,-0.042302,0.005192,0.024129,31,65.7192188378002
11512,-8.374281,-3.651447,4.118646,-0.045509,0.013744,0.024129,31,65.7328096827615
11522,-8.366504,-3.667599,4.104887,-0.048717,0.021838,0.023366,30.97,65.8030284971965
11532,-8.387442,-3.669992,4.106084,-0.051771,0.028863,0.022755,30.97,65.8439295677213
11542,-8.386245,-3.662215,4.095316,-0.054062,0.035736,0.020922,30.98,65.8902295693616
11552,-8.389835,-3.668795,4.089932,-0.05849,0.040928,0.019853,30.98,65.9321317373586
11562,-8.405987,-3.680759,4.082156,-0.060018,0.045662,0.01909,30.98,66.0182195284364
11572,-8.39821,-3.680161,4.067799,-0.062614,0.048717,0.016952,30.98,66.0760510563031
11582,-8.406584,-3.689733,4.063013,-0.065668,0.051465,0.015577,31.05,66.1276636867502
11592,-8.400601,-3.681358,4.039085,-0.06689,0.053298,0.014203,31.05,66.2322994265439
11602,-8.425129,-3.701697,4.034897,-0.068264,0.053909,0.011301,31.03,66.3245534915615
11612,-8.417951,-3.701099,4.030112,-0.07025,0.052993,0.010385,31.03,66.3339519663838
11622,-8.417951,-3.699902,4.01396,-0.069944,0.050855,0.010079,31.03,66.4173294033599
11632,-8.422137,-3.716054,3.993621,-0.069333,0.048258,0.010232,30.99,66.5473860052105
11642,-8.420342,-3.721437,3.997808,-0.069028,0.044288,0.010385,30.99,66.5266681531058
11652,-8.426325,-3.716054,3.982853,-0.067959,0.039095,0.010079,31,66.6125035640923
11662,-8.417951,-3.724428,3.976871,-0.066584,0.033903,0.010385,31,66.6341765833033
11672,-8.420941,-3.728616,3.969693,-0.06521,0.028558,0.011301,31.01,66.6818589408217
11682,-8.410173,-3.738187,3.960122,-0.062461,0.022755,0.011454,31.01,66.7186255071907
11692,-8.407781,-3.720839,3.958327,-0.061239,0.016188,0.01405,30.96,66.7072047671047
11702,-8.410173,-3.725625,3.961318,-0.058948,0.008858,0.01573,30.96,66.7008194727144
11712,-8.419745,-3.729812,3.958925,-0.056047,0.001527,0.017104,30.99,66.7370027622971
11722,-8.420342,-3.72383,3.952943,-0.053603,-0.005651,0.018021,30.99,66.7641935363151
11732,-8.422735,-3.731009,3.949952,-0.050702,-0.013134,0.019548,30.98,66.791391669487
11742,-8.412566,-3.729214,3.945167,-0.048717,-0.021075,0.0197,30.98,66.7939520041204
11752,-8.416155,-3.733402,3.954738,-0.047342,-0.028253,0.021228,31.01,66.7548710116404
11762,-8.423334,-3.734598,3.958327,-0.045204,-0.03543,0.022297,31.01,66.7519213607545
11772,-8.420342,-3.734,3.971487,-0.042761,-0.04215,0.021991,31,66.6761420947709
11782,-8.599805,-3.613162,3.811168,-0.038026,-0.053756,0.020769,30.96,67.7764059734101
11792,-8.469396,-3.68734,3.955934,-0.018021,-0.053451,-0.007178,30.96,66.8165853217389
11802,-8.377273,-3.716652,3.978666,-0.011148,-0.056047,-0.014508,30.95,66.5329760010307
11812,-8.400003,-3.714259,3.986442,-0.010996,-0.059407,-0.010843,30.95,66.5373099916005
11822,-8.400601,-3.713063,3.995416,-0.011148,-0.062003,-0.008247,31.03,66.4903635914363
11832,-8.377871,-3.71067,4.004389,-0.011759,-0.06353,-0.007025,31.03,66.3934951833077
11842,-8.395817,-3.710072,4.018147,-0.012675,-0.064904,-0.003818,31.02,66.3584344432963
11852,-8.379066,-3.706482,4.023531,-0.014203,-0.065668,-0.002902,31.02,66.2916843884233
11862,-8.44128,-3.674777,4.007978,-0.015119,-0.066584,-0.000764,30.99,66.4744193250091
11872,-8.46102,-3.6341,3.990032,-0.012523,-0.067806,-0.009468,30.99,66.5728584020456
11882,-8.372486,-3.701099,4.034897,-0.009163,-0.067042,-0.01741,30.99,66.2132092391402
11892,-8.385648,-3.696911,4.049852,-0.011148,-0.065668,-0.016188,30.99,66.158824593469
11902,-8.38146,-3.691527,4.041477,-0.012828,-0.063377,-0.013897,31.02,66.1887803447117
11912,-8.379066,-3.680759,4.057031,-0.014813,-0.060781,-0.010843,31.02,66.092254546306
11922,-8.358727,-3.683152,4.061218,-0.017562,-0.058338,-0.009927,31.01,66.0293095590636
11932,-8.382656,-3.674777,4.067799,-0.018784,-0.054367,-0.00733,31.01,66.0379904359612
11942,-8.37129,-3.669992,4.077968,-0.020922,-0.050396,-0.005651,31.02,65.9561269782668
11952,-8.367103,-3.684349,4.074379,-0.021686,-0.041081,-0.002443,31.02,65.9794180214093
11962,-8.368897,-3.67059,4.067799,-0.024435,-0.037415,-0.000764,31,66.004766002719
11972,-8.365907,-3.673581,4.074977,-0.025656,-0.03207,0.001527,31,65.9636327904582
11982,-8.359326,-3.665804,4.079762,-0.027184,-0.027184,0.003665,31,65.9172279943926
11992,-8.365308,-3.658028,4.077968,-0.027336,-0.021686,0.006261,30.98,65.9321316138063
12002,-8.365308,-3.658028,4.076173,-0.027947,-0.016341,0.007025,30.98,65.9415232814972
12012,-8.362915,-3.659224,4.085146,-0.0281,-0.010385,0.009927,31,65.8905806822482
12022,-8.343175,-3.662813,4.080959,-0.028558,-0.004581,0.012523,31,65.8735079972488
12032,-8.367702,-3.662813,4.085745,-0.028558,0.001374,0.014508,30.99,65.9010727669651
12042,-8.349755,-3.656233,4.079165,-0.027794,0.007483,0.016493,30.99,65.8908379779317
12052,-8.345568,-3.661617,4.079165,-0.026267,0.013744,0.019548,30.97,65.8869155630025
12062,-8.358727,-3.655635,4.077968,-0.025656,0.018784,0.022755,30.97,65.915790888888
12072,-8.345568,-3.652046,4.070191,-0.025198,0.025045,0.024893,31.01,65.9249400296972
12082,-8.35155,-3.658626,4.070789,-0.023976,0.030238,0.027794,31.01,65.9408113218011
12092,-8.359326,-3.665804,4.069593,-0.023518,0.034667,0.029322,31.05,65.9704530623747
12102,-8.340183,-3.661019,4.063013,-0.022755,0.04047,0.03146,31.05,65.9594721209333
12112,-8.36112,-3.664608,4.054638,-0.021991,0.045509,0.033598,30.98,66.0515161485309
12122,-8.382656,-3.667001,4.05404,-0.021075,0.053603,0.036499,30.98,66.1027222343134
12132,-8.370691,-3.672385,4.040879,-0.020006,0.056505,0.038026,30.98,66.1512701532906
12142,-8.38445,-3.665206,4.045665,-0.019395,0.059407,0.039248,30.99,66.148716658471
12152,-8.38146,-3.66401,4.036692,-0.0197,0.061087,0.038637,30.99,66.1882864688404
12162,-8.4012,-3.672385,4.0337,-0.020617,0.061545,0.037415,31.03,66.2534599882024
12172,-8.402397,-3.675974,4.035496,-0.020464,0.061697,0.036652,31.03,66.2498962341259
12182,-8.408977,-3.668197,4.025326,-0.021075,0.061545,0.035125,31.01,66.3098503229931
12192,-8.416155,-3.671188,4.013362,-0.021991,0.06017,0.034208,31.01,66.3903542530072
12202,-8.4347,-3.67418,4.015156,-0.023366,0.058032,0.03146,31,66.4225666089643
12212,-8.429317,-3.681358,4.005585,-0.025045,0.054978,0.028863,31,66.4679481598583
12222,-8.442476,-3.686144,3.998407,-0.027489,0.050702,0.025351,30.99,66.537328930192
12232,-8.450253,-3.692724,3.993621,-0.029322,0.045204,0.022449,30.99,66.5845163680494
12242,-8.453244,-3.689135,3.981657,-0.031001,0.039859,0.019548,31.02,66.6500893639063
12252,-8.459825,-3.686741,3.976871,-0.032987,0.032987,0.015119,31.02,66.6866130036667
12262,-8.453244,-3.684349,3.975675,-0.035583,0.025962,0.010232,31.01,66.6770989169804
12272,-8.476574,-3.691527,3.971487,-0.038637,0.018173,0.005498,31.01,66.7536765794806
12282,-8.472386,-3.689733,3.969693,-0.040317,0.010385,0.002291,30.98,66.7528230675859
12292,-8.468798,-3.693322,3.963711,-0.042455,0.00168,-0.00733,30.98,66.7799737162873
12302,-8.474779,-3.682554,3.970889,-0.047495,-0.016799,-0.011759,30.98,66.7450576270588
12312,-8.467003,-3.68734,3.970889,-0.048869,-0.025198,-0.015119,30.95,66.7333077663176
12322,-8.472985,-3.690331,3.963113,-0.050702,-0.033445,-0.018631,30.95,66.7890431324066
12332,-8.469995,-3.691527,3.961916,-0.05284,-0.04215,-0.022144,30.99,66.7902289378633
12342,-8.462217,-3.694518,3.971487,-0.054062,-0.04948,-0.025198,30.99,66.7267580830152
12352,-8.459825,-3.692724,3.964907,-0.055436,-0.057727,-0.028405,30.98,66.75467444963
12362,-8.449656,-3.695116,3.975675,-0.05681,-0.065515,-0.03146,30.98,66.6794021981643
12372,-8.440084,-3.694518,3.972086,-0.057116,-0.071471,-0.031765,31.03,66.6778563974761
12382,-8.430512,-3.686144,3.981059,-0.057727,-0.076969,-0.033903,31.03,66.6033297100753
12392,-8.42812,-3.684947,3.98405,-0.058338,-0.082161,-0.034972,31,66.5815767876805
12402,-8.415558,-3.686741,3.996612,-0.058796,-0.085674,-0.034361,31,66.4911371007584
12412,-8.411968,-3.687938,3.99063,-0.057574,-0.089339,-0.033292,31.01,66.5161140034658
12422,-8.400601,-3.68375,4.004389,-0.056658,-0.091172,-0.032223,31.01,66.4162894100957
12432,-8.391031,-3.678965,4.016353,-0.055894,-0.092699,-0.030391,30.99,66.3290030764976
12442,-8.372486,-3.673581,4.016951,-0.055131,-0.093157,-0.0281,30.99,66.2817593315292
12452,-8.37129,-3.684947,4.02413,-0.053909,-0.09163,-0.026114,30.96,66.2520945912186
12462,-8.356335,-3.677171,4.042674,-0.052229,-0.090255,-0.022907,30.96,66.1158215912701
12472,-8.353344,-3.672385,4.052245,-0.048869,-0.084452,-0.012675,30.99,66.0547621057214
12482,-8.343175,-3.675974,4.051049,-0.047342,-0.079412,-0.008552,30.99,66.0427148853821
12492,-8.331809,-3.671188,4.063013,-0.045509,-0.073762,-0.004734,30.99,65.951110593105
12502,-8.336594,-3.662813,4.058825,-0.042913,-0.067348,0.001069,30.95,65.9754486611356
12512,-8.335996,-3.669992,4.067201,-0.041997,-0.06017,0.006414,30.95,65.93698384586
12522,-8.322237,-3.671188,4.073183,-0.040012,-0.053298,0.012065,30.97,65.8771996402846
12532,-8.323434,-3.665804,4.092923,-0.038026,-0.045204,0.017562,30.97,65.7711730774974
12542,-8.316854,-3.671188,4.094718,-0.036499,-0.036041,0.022602,31.01,65.7526909390079
12552,-8.319246,-3.666403,4.082754,-0.035277,-0.027642,0.027947,31.01,65.8160136728474
12562,-8.321639,-3.669394,4.093522,-0.034056,-0.018784,0.033445,31,65.7675756555995
12572,-8.325229,-3.666403,4.089932,-0.033903,-0.010537,0.036652,31,65.7912833827928
12582,-8.330013,-3.67059,4.089334,-0.033292,-0.002138,0.040164,31.01,65.8086963958291
12592,-8.337193,-3.678366,4.095316,-0.032376,0.006567,0.044746,31.01,65.800214734374
12602,-8.347363,-3.684947,4.092923,-0.032987,0.015119,0.046731,30.96,65.840811959177
12612,-8.344371,-3.675375,4.085146,-0.033139,0.022907,0.049938,30.96,65.8660140597858
12622,-8.352745,-3.681358,4.089932,-0.034208,0.030391,0.051771,30.97,65.8645930023568
12632,-8.36471,-3.668795,4.074977,-0.034819,0.03711,0.053451,30.97,65.956587436223
12642,-8.383254,-3.676572,4.075575,-0.035888,0.047953,0.053909,30.98,66.0003052491039
12652,-8.390432,-3.680759,4.064807,-0.039248,0.053145,0.053756,30.97,66.0757287344792
12662,-8.398808,-3.688536,4.066602,-0.041539,0.056047,0.052382,30.97,66.0913577654435
12672,-8.409575,-3.683152,4.056432,-0.042913,0.058796,0.051007,30.96,66.1622406396931
12682,-8.413164,-3.685545,4.044468,-0.045051,0.060018,0.049175,30.96,66.2345168136465
12692,-8.510075,-3.643671,3.974478,-0.047495,0.060018,0.04612,31.03,66.7644980944179
12702,-8.517851,-3.661617,3.999603,-0.039248,0.060476,0.027489,31.03,66.6653309452923
12712,-8.389835,-3.705884,4.012764,-0.035888,0.059559,0.014355,30.97,66.3702141667828
12722,-8.42812,-3.703491,4.018147,-0.037568,0.057727,0.014508,30.97,66.4199812770925
12732,-8.417951,-3.684947,4.00379,-0.039248,0.054062,0.013744,30.97,66.4568695033435
12742,-8.423334,-3.695715,4.003192,-0.040928,0.050396,0.012523,30.97,66.4811090845814
12752,-8.43111,-3.70409,3.980461,-0.041692,0.046273,0.011912,31.04,66.6240437217083
12762,-8.462815,-3.690929,3.954139,-0.04383,0.040775,0.009774,31.04,66.8156690919624
12772,-8.493324,-3.691527,3.921238,-0.039095,0.037568,0.000916,30.98,67.0512521254905
12782,-8.423334,-3.705286,3.958327,-0.033292,0.035277,-0.007636,30.98,66.7251880451093
12792,-8.462815,-3.713063,3.966104,-0.032376,0.027642,-0.009316,30.96,66.7729027324234
12802,-8.437093,-3.697509,3.932006,-0.032681,0.020159,-0.011148,30.96,66.8849147146841
12812,-8.454441,-3.7005,3.953541,-0.030696,0.013439,-0.018631,31,66.8101752349787
12822,-8.443074,-3.717848,3.955336,-0.025962,-0.001833,-0.021228,31.04,66.7930371392095
12832,-8.448458,-3.713661,3.955336,-0.026114,-0.01069,-0.022755,31.04,66.8003272856884
12842,-8.449656,-3.716652,3.953541,-0.025045,-0.018937,-0.02306,31.01,66.814911718428
12852,-8.46461,-3.68734,3.932006,-0.023976,-0.027794,-0.025504,31.01,66.9323063688412
12862,-8.443673,-3.707679,3.961318,-0.021838,-0.036041,-0.028405,30.96,66.7536766120752
12872,-8.436494,-3.713063,3.963113,-0.020769,-0.043524,-0.029627,30.96,66.7343295204355
12882,-8.423334,-3.705884,3.962514,-0.01909,-0.051313,-0.030543,31.02,66.7037372906087
12892,-8.423334,-3.704688,3.969095,-0.018326,-0.056505,-0.030391,31.02,66.6680905679947
12902,-8.410173,-3.704688,3.972086,-0.016952,-0.062156,-0.030085,31,66.6250701785714
12912,-8.405987,-3.69392,3.986442,-0.01573,-0.066737,-0.028558,31,66.5310923378749
12922,-8.398808,-3.689733,4.000201,-0.015424,-0.071013,-0.029016,31,66.4400107837122
12932,-8.393424,-3.675375,3.989433,-0.01405,-0.073609,-0.027489,31,66.4720848037389
12942,-8.386245,-3.677768,4.007978,-0.012523,-0.076053,-0.026725,31,66.3617759621597
12952,-8.382057,-3.686741,4.028317,-0.011454,-0.0759,-0.023976,31,66.2545418891922
12962,-8.377273,-3.68375,4.028915,-0.011912,-0.075442,-0.021533,31.01,66.2385225738564
12972,-8.368897,-3.68375,4.042076,-0.011454,-0.074526,-0.01909,31.01,66.1517849354018
12982,-8.362915,-3.667599,4.061218,-0.010079,-0.071929,-0.014966,30.98,66.0236613427808
12992,-8.344969,-3.673581,4.063612,-0.010232,-0.064904,-0.009621,30.98,65.9783975288149
13002,-8.34138,-3.678965,4.076173,-0.010232,-0.059712,-0.005192,31,65.9099717036942
13012,-8.340781,-3.664608,4.070191,-0.010537,-0.053298,-0.000611,30.98,65.9264871733256
13022,-8.34796,-3.66042,4.080959,-0.010996,-0.0478,0.002749,30.98,65.8815287460433
13032,-8.348558,-3.661617,4.093522,-0.011606,-0.041844,0.005956,30.99,65.8181960221308
13042,-8.3348,-3.672385,4.098905,-0.01405,-0.034819,0.00901,30.99,65.7706124338791
13052,-8.3348,-3.665206,4.091129,-0.014355,-0.027031,0.014355,31.02,65.8045012770758
13062,-8.336594,-3.672983,4.105485,-0.015272,-0.0197,0.01741,31.02,65.7406367796879
13072,-8.342576,-3.668795,4.09711,-0.016646,-0.011301,0.020006,31.01,65.7933424515921
13082,-8.349755,-3.671188,4.103093,-0.017715,-0.003971,0.022755,31.01,65.7797805149204
13092,-8.342576,-3.669992,4.102495,-0.01909,0.003971,0.025351,30.95,65.7663199648539
13102,-8.353344,-3.669394,4.09711,-0.021075,0.010996,0.026878,30.95,65.8170642190318
13112,-8.349156,-3.667001,4.103093,-0.021533,0.018784,0.028711,31,65.7745318695563
13122,-8.372486,-3.672983,4.097709,-0.024435,0.025198,0.029322,31,65.8583802455796
13132,-8.376076,-3.671188,4.095914,-0.026114,0.031918,0.030085,31.01,65.8737489401457
13142,-8.37129,-3.668197,4.092325,-0.027794,0.037415,0.029627,31.01,65.879430434931
13152,-8.391629,-3.672983,4.073183,-0.028558,0.041692,0.030085,30.99,66.0272782682799
13162,-8.404789,-3.672983,4.071986,-0.030696,0.048411,0.027947,30.99,66.0614919155662
13172,-8.403594,-3.668795,4.05404,-0.03207,0.050549,0.027336,30.98,66.1488023557717
13182,-8.401799,-3.677768,4.052843,-0.032376,0.052687,0.025809,30.99,66.1595624001345
13192,-8.400601,-3.677171,4.027121,-0.033445,0.053298,0.02474,30.99,66.2910645677305
13202,-8.421539,-3.692126,4.034897,-0.034361,0.05284,0.023213,30.99,66.3082085589948
13212,-8.413164,-3.688536,4.017549,-0.033598,0.051618,0.021228,30.99,66.3780668871024
13222,-8.419147,-3.681956,4.010969,-0.03375,0.050091,0.020617,30.97,66.4190240318943
13232,-8.42812,-3.681358,4.005585,-0.034208,0.046273,0.018631,30.97,66.4654466755002
13242,-8.419147,-3.688536,3.99721,-0.033598,0.042913,0.017562,30.99,66.4971406747162
13252,-8.420941,-3.687938,3.989433,-0.032681,0.03879,0.016035,30.99,66.5411153554509
13262,-8.429914,-3.686741,3.981059,-0.032834,0.034208,0.01573,31,66.6026290971921
13272,-8.431709,-3.696313,3.985246,-0.031612,0.028863,0.013439,31,66.5931187918794
13282,-8.43111,-3.688536,3.98405,-0.031154,0.024129,0.01237,31.03,66.5910633291574
13292,-8.427522,-3.692724,3.98405,-0.030085,0.018021,0.012523,31.03,66.5874148309475
13302,-8.427522,-3.689135,3.973282,-0.030238,0.011301,0.010996,30.98,66.640641781883
13312,-8.4347,-3.695116,3.976273,-0.030238,0.005345,0.010079,30.98,66.6452827792706
13322,-8.438289,-3.688536,3.979264,-0.02978,-0.000764,0.008858,31.01,66.6310719230601
13332,-8.422137,-3.691527,3.978068,-0.02978,-0.006872,0.006414,31.01,66.6065079495035
13342,-8.527422,-3.611966,3.915256,-0.02642,-0.017104,0.000764,30.96,67.0825588368574
13352,-8.397013,-3.690929,3.979264,-0.020769,-0.020769,-0.012675,30.98,66.5473273482868
13362,-8.432905,-3.694518,3.99721,-0.020159,-0.025656,-0.013134,30.98,66.531293221709
13372,-8.401799,-3.686144,3.980461,-0.020769,-0.02978,-0.012217,31.01,66.5466410083751
13382,-8.446067,-3.669394,3.986442,-0.022449,-0.033139,-0.011912,31.01,66.5922781227978
13392,-8.453843,-3.64726,3.978068,-0.021686,-0.036957,-0.018021,31.01,66.6324158146458
13402,-8.395817,-3.692724,4.007978,-0.019853,-0.040623,-0.022297,31.01,66.3956939168015
13412,-8.406584,-3.689733,4.005585,-0.020922,-0.043371,-0.022144,31.02,66.4280593839957
13422,-8.397612,-3.684349,4.002594,-0.02306,-0.045357,-0.022449,31.02,66.419989690582
13432,-8.452645,-3.656233,4.002594,-0.022907,-0.045662,-0.023824,31.02,66.5095179635856
13442,-8.39821,-3.685545,4.016353,-0.022907,-0.047342,-0.029016,31.02,66.3501805737108
13452,-8.396414,-3.702295,4.027121,-0.022907,-0.047189,-0.029322,31,66.3054838515484
13462,-8.393424,-3.692724,4.036094,-0.024282,-0.047189,-0.027642,31,66.243339807994
13472,-8.412566,-3.675375,4.019942,-0.02474,-0.046578,-0.027947,31.01,66.3521893046577
13482,-8.406584,-3.67059,4.039085,-0.025656,-0.045051,-0.029169,31.01,66.2349859879773
13492,-8.380263,-3.697509,4.041477,-0.025809,-0.043066,-0.030391,30.99,66.1918248074333
13502,-8.370691,-3.68734,4.057629,-0.026267,-0.04215,-0.030391,30.99,66.0774842132167
13512,-8.386844,-3.685545,4.052245,-0.028863,-0.037721,-0.026878,31.01,66.1382498342829
13522,-8.376076,-3.691527,4.054638,-0.029474,-0.034208,-0.025809,30.96,66.1084856709147
13532,-8.373683,-3.681358,4.063013,-0.029932,-0.03207,-0.02474,30.96,66.050075194522
13542,-8.387442,-3.685545,4.066004,-0.029932,-0.0281,-0.023366,30.98,66.0675878517815
13552,-8.373085,-3.688536,4.062415,-0.030543,-0.026573,-0.02138,30.98,66.0586488601739
13562,-8.38146,-3.681956,4.061816,-0.030696,-0.023976,-0.01909,31.04,66.0734267455212
13572,-8.364112,-3.688536,4.061816,-0.030238,-0.0197,-0.016646,31.04,66.0426997970663
13582,-8.36471,-3.68375,4.059424,-0.029474,-0.016035,-0.014661,31.01,66.0520062197957
13592,-8.36471,-3.690331,4.063013,-0.029016,-0.01237,-0.011454,31.01,66.0393922141292
13602,-8.365308,-3.679563,4.065406,-0.028711,-0.008552,-0.007483,31.01,66.0180403386426
13612,-8.356335,-3.677768,4.059424,-0.028558,-0.004123,-0.004734,31.01,66.0285545408654
13622,-8.349156,-3.690331,4.060022,-0.027336,-0.000305,-0.001069,31.03,66.0219288375792
13632,-8.345568,-3.683152,4.065406,-0.025962,0.003818,0.003971,31.03,65.9792922107141
13642,-8.348558,-3.690929,4.066602,-0.025198,0.008247,0.008705,31.02,65.9867463017852
13652,-8.340183,-3.699902,4.052245,-0.024129,0.012675,0.013134,31.02,66.0526126226045
13662,-8.348558,-3.692126,4.059424,-0.023213,0.016493,0.018631,30.95,66.025479400628
13672,-8.353942,-3.680161,4.052843,-0.021991,0.020922,0.022907,30.95,66.060193735957
13682,-8.339585,-3.693322,4.048058,-0.020159,0.028863,0.03146,31.02,66.0670956462034
13692,-8.35813,-3.699902,4.035496,-0.019242,0.032681,0.036652,30.99,66.1785809345895
13702,-8.358727,-3.689135,4.038486,-0.018937,0.035583,0.040775,30.99,66.1540734669823
13712,-8.35813,-3.682554,4.041477,-0.018021,0.038485,0.044288,31,66.1309546731949
13722,-8.359925,-3.681358,4.039683,-0.018021,0.040164,0.048106,31,66.1430597407455
13732,-8.374879,-3.69392,4.029513,-0.018326,0.041539,0.050549,31,66.2397915382567
13742,-8.375478,-3.702295,4.027719,-0.017868,0.042913,0.052382,31,66.2582663863643
13752,-8.385049,-3.690929,4.016353,-0.017715,0.043066,0.053909,31,66.3274743455396
13762,-8.405987,-3.699304,4.022933,-0.018326,0.042761,0.05452,31,66.3447478268043
13772,-8.401799,-3.689733,4.012166,-0.018631,0.040928,0.05452,30.98,66.3835276634098
13782,-8.419745,-3.693322,4.001996,-0.020311,0.039706,0.053756,30.98,66.4776891560287
13792,-8.423933,-3.692724,4.007978,-0.021228,0.036499,0.052076,31,66.4545607715558
13802,-8.425727,-3.692724,3.993621,-0.022297,0.032987,0.049786,31,66.5335046173753
13812,-8.4347,-3.694518,3.988237,-0.023671,0.029169,0.047189,31,66.5820263263814
13822,-8.452048,-3.692126,3.985844,-0.025045,0.023976,0.04444,31,66.6283965848929
13832,-8.456833,-3.691527,3.974478,-0.027336,0.018173,0.040317,30.96,66.6972742592847
13842,-8.457432,-3.689135,3.979862,-0.029016,0.012828,0.03543,30.96,66.6681605050741
13852,-8.462217,-3.684947,3.980461,-0.031612,0.005498,0.025045,31.01,66.6711507521386
13862,-8.649456,-3.576672,3.844069,-0.031154,-0.006261,0.014813,31,67.6720273136357
13872,-8.465807,-3.684349,3.988835,-0.01741,-0.005498,-0.012217,31,66.6342333039937
13882,-8.459825,-3.692126,3.985844,-0.016188,-0.010232,-0.018173,30.99,66.6445085789518
13892,-8.44427,-3.690331,3.98405,-0.019395,-0.017868,-0.021228,30.99,66.620032187136
13902,-8.466404,-3.681956,3.990032,-0.020464,-0.024129,-0.021533,30.97,66.6270535546896
13912,-8.42453,-3.687938,3.981059,-0.022602,-0.030696,-0.024587,30.97,66.5925194930413
13922,-8.464012,-3.686741,3.988237,-0.023824,-0.03711,-0.024893,31.02,66.6357997589039
13932,-8.417352,-3.687938,3.979862,-0.025656,-0.042761,-0.027947,31.02,66.5838599388696
13942,-8.449057,-3.687938,3.982853,-0.025962,-0.049327,-0.028253,30.99,66.6340642970687
13952,-8.403594,-3.683152,3.995416,-0.027947,-0.054825,-0.030543,30.99,66.4691006917672
13962,-8.445468,-3.676572,4.002594,-0.028711,-0.059712,-0.031154,30.97,66.5129577535889
13972,-8.415558,-3.685545,4.004389,-0.029016,-0.063988,-0.032834,30.97,66.4492719394717
13982,-8.419745,-3.666403,4.011567,-0.028711,-0.067195,-0.032834,30.99,66.4029161576881
13992,-8.412566,-3.667599,4.018147,-0.028711,-0.069944,-0.033445,30.99,66.3544578502422
14002,-8.394022,-3.673581,4.027121,-0.029016,-0.072082,-0.033903,30.98,66.2738781317086
14012,-8.38146,-3.675974,4.027719,-0.030085,-0.072693,-0.033139,30.98,66.2464269515523
