t_ms,ax,ay,az,gx,gy,gz,temp,ang_deg
12,-8.438888,-3.794419,4.02413,-0.074373,-0.223729,0.048564,30.96,66.4950955371846
22,-8.416155,-3.777071,4.043272,-0.087354,-0.217163,0.040164,30.96,66.3320643988868
32,-8.378469,-3.779463,4.066602,-0.099571,-0.206167,0.033445,30.95,66.1338554170054
42,-8.34138,-3.773481,4.073781,-0.113163,-0.194866,0.027642,30.95,66.0124260457043
52,-8.326425,-3.782454,4.080361,-0.124617,-0.180816,0.024893,30.94,65.9549662192281
62,-8.303694,-3.775874,4.084548,-0.135918,-0.166003,0.02474,30.94,65.878349979714
72,-8.288737,-3.760321,4.084548,-0.145386,-0.152105,0.026267,30.99,65.8312908682368
82,-8.28156,-3.754937,4.066004,-0.154091,-0.138819,0.028863,30.99,65.907978438506
92,-8.275578,-3.753142,4.070191,-0.164323,-0.112857,0.041997,30.95,65.8714447312174
102,-8.287541,-3.738187,4.052843,-0.166461,-0.102778,0.04948,30.95,65.9737222192431
112,-8.297112,-3.741776,4.037888,-0.167072,-0.093615,0.058032,30.95,66.0762174411058
122,-8.301898,-3.723232,4.03071,-0.166919,-0.085827,0.065973,30.94,66.1064272967012
132,-8.315059,-3.713063,4.025326,-0.164323,-0.079871,0.074067,30.94,66.1530737255301
142,-8.330612,-3.716054,4.010371,-0.162185,-0.076358,0.082161,30.97,66.267574377215
152,-8.343773,-3.707081,4.003192,-0.156229,-0.072998,0.088423,30.97,66.3247144016034
162,-8.379066,-3.706482,3.996014,-0.150426,-0.072235,0.093462,30.98,66.4361009101934
172,-8.403594,-3.68375,3.980461,-0.143859,-0.073457,0.096517,30.98,66.5481968571677
182,-8.420342,-3.668795,3.975077,-0.13607,-0.075289,0.09896,30.93,66.5977938573912
192,-8.446664,-3.661019,3.981657,-0.128129,-0.078802,0.098502,30.93,66.6110393970634
202,-8.466404,-3.66042,3.974478,-0.118966,-0.082467,0.097433,30.98,66.68911339387
212,-8.474779,-3.642474,3.97747,-0.110719,-0.08659,0.095142,30.98,66.6747653356704
222,-8.486146,-3.628117,3.988237,-0.102778,-0.090561,0.091324,30.96,66.6292318711603
232,-8.487941,-3.626323,3.991827,-0.094073,-0.096059,0.087201,30.96,66.6125930191047
242,-8.492128,-3.625725,3.994817,-0.086132,-0.100335,0.081856,30.98,66.6051376149412
252,-8.475378,-3.61735,4.021138,-0.078343,-0.103542,0.076053,30.98,66.4251749995023
262,-8.452645,-3.603591,4.044468,-0.070402,-0.10568,0.065057,30.96,66.2430918478225
272,-8.443074,-3.596412,4.065406,-0.059559,-0.103236,0.061697,30.97,66.1069793803538
282,-8.416754,-3.598207,4.082754,-0.056047,-0.098655,0.058032,30.97,65.9618887695183
292,-8.390432,-3.605386,4.106682,-0.053603,-0.091935,0.055589,30.99,65.787045931986
302,-8.374281,-3.602395,4.11745,-0.054214,-0.082009,0.053909,30.99,65.6931622898654
312,-8.353344,-3.604189,4.136592,-0.054978,-0.06918,0.053756,30.99,65.549447694897
322,-8.318049,-3.609573,4.162315,-0.057116,-0.053756,0.055283,30.99,65.3430624662577
332,-8.303095,-3.606582,4.167699,-0.061239,-0.036194,0.05849,30.96,65.2791742155699
342,-8.282157,-3.605984,4.179065,-0.065973,-0.017257,0.061087,30.96,65.1729416585155
352,-8.261221,-3.604787,4.188636,-0.072235,0.003971,0.064752,30.96,65.075255774637
362,-8.260622,-3.61376,4.186243,-0.080023,0.025504,0.068722,30.96,65.0951562526905
372,-8.252247,-3.620341,4.188038,-0.088575,0.047647,0.071777,30.98,65.0735548731262
382,-8.250452,-3.628117,4.183252,-0.097128,0.070708,0.0759,30.98,65.1021868980865
392,-8.2678,-3.629912,4.172484,-0.106901,0.091935,0.079412,30.96,65.1987135178387
402,-8.3013,-3.631706,4.161119,-0.117439,0.112552,0.080023,30.96,65.3336927851855
412,-8.306085,-3.642474,4.141976,-0.128434,0.130725,0.078802,30.95,65.454530996594
422,-8.338987,-3.658028,4.096512,-0.138666,0.145386,0.076358,30.95,65.7785535509928
432,-8.405388,-3.656233,4.068397,-0.15012,0.158061,0.066432,30.94,66.0659871182212
442,-8.439486,-3.664608,4.036692,-0.171348,0.169362,0.05849,30.96,66.3113111798169
452,-8.469995,-3.671786,3.997808,-0.180663,0.16753,0.048411,30.96,66.5846911840278
462,-8.503493,-3.688536,3.962514,-0.187688,0.161574,0.038637,30.95,66.853245699525
472,-8.542974,-3.689135,3.930809,-0.195171,0.149662,0.025504,30.95,67.0999130897139
482,-8.553144,-3.695116,3.888337,-0.200669,0.133932,0.013439,30.95,67.3478042796103
492,-8.587841,-3.70409,3.851846,-0.203876,0.114232,0.001833,30.95,67.6158228952481
502,-8.598608,-3.715455,3.827918,-0.205709,0.090255,-0.010537,30.96,67.7721277385689
512,-8.606983,-3.721437,3.792624,-0.205556,0.062919,-0.021075,30.96,67.9787508465774
522,-8.606385,-3.73041,3.766901,-0.203876,0.034056,-0.029474,31,68.1203283590449
532,-8.608777,-3.737589,3.735196,-0.199906,0.001985,-0.036346,31,68.2978904535422
542,-8.587841,-3.737589,3.720839,-0.193797,-0.03146,-0.041844,30.96,68.3333630799687
552,-8.586046,-3.735795,3.708277,-0.185703,-0.066432,-0.044135,30.96,68.3948196826521
562,-8.568698,-3.753142,3.69392,-0.176387,-0.101862,-0.044899,30.96,68.4520707176723
572,-8.55135,-3.760919,3.690929,-0.164781,-0.137597,-0.043677,30.96,68.4412075587774
582,-8.52443,-3.750151,3.698706,-0.152105,-0.172569,-0.040164,30.98,68.3389678639471
592,-8.505288,-3.759125,3.697509,-0.138666,-0.206167,-0.034667,30.98,68.3159740252868
602,-8.451449,-3.753142,3.741776,-0.124769,-0.236863,-0.02642,30.97,67.9701079161005
612,-8.42453,-3.74058,3.772883,-0.097586,-0.290772,-0.005956,30.97,67.740137778219
622,-8.385648,-3.736392,3.803392,-0.084758,-0.311541,0.006109,30.97,67.4960238936352
632,-8.363514,-3.744768,3.854837,-0.073609,-0.326507,0.018631,30.87,67.1850586310452
642,-8.335398,-3.734598,3.904488,-0.062766,-0.335976,0.031154,30.87,66.8543865377696
652,-8.300103,-3.737589,3.945765,-0.054367,-0.341779,0.044593,30.93,66.5648908343916
662,-8.285748,-3.734598,3.995416,-0.047495,-0.339947,0.057727,30.93,66.2691220510629
672,-8.264212,-3.712464,4.066004,-0.042761,-0.332311,0.069639,30.98,65.8295867774537
682,-8.242078,-3.71725,4.105485,-0.040775,-0.318566,0.080481,30.98,65.5787096903908
692,-8.240283,-3.705286,4.16411,-0.040928,-0.30024,0.089339,30.97,65.255683850669
702,-8.222337,-3.696911,4.211368,-0.042455,-0.276722,0.097433,30.97,64.9608211912807
712,-8.212766,-3.684947,4.255635,-0.045662,-0.248164,0.104305,30.95,64.6968275404999
722,-8.226524,-3.69392,4.284947,-0.05116,-0.215941,0.108581,30.95,64.5845513171736
732,-8.227122,-3.69392,4.317849,-0.058032,-0.18158,0.111483,30.89,64.4156008554027
742,-8.236095,-3.679563,4.32742,-0.066737,-0.144164,0.112246,30.89,64.3719035731973
752,-8.24148,-3.682554,4.356134,-0.075595,-0.106596,0.110261,30.97,64.2390821696573
762,-8.251051,-3.67418,4.359125,-0.085521,-0.067653,0.108429,30.97,64.23692574616
772,-8.254042,-3.668197,4.354339,-0.094684,-0.029932,0.103542,30.93,64.2623022635076
782,-8.300103,-3.669394,4.337589,-0.104,0.039859,0.090255,30.93,64.4536144765664
792,-8.324032,-3.674777,4.311268,-0.121257,0.07254,0.08323,30.97,64.6478005548808
802,-8.349755,-3.678965,4.290331,-0.12874,0.100945,0.074831,30.97,64.8166977947275
812,-8.370691,-3.676572,4.252046,-0.135001,0.12538,0.066737,30.97,65.0575802368235
822,-8.38804,-3.675375,4.218546,-0.139735,0.14508,0.058338,30.97,65.2671092393332
832,-8.397612,-3.691527,4.18086,-0.143859,0.160352,0.049633,30.97,65.4979295125026
842,-8.419147,-3.677768,4.149753,-0.146608,0.171653,0.041539,30.96,65.692280141631
852,-8.426923,-3.677768,4.106084,-0.147829,0.178831,0.035736,30.96,65.9354172945286
862,-8.443673,-3.7005,4.066602,-0.149204,0.180969,0.029322,30.97,66.1971176558972
872,-8.453843,-3.684349,4.050451,-0.149357,0.179594,0.024435,30.97,66.2877238035176
882,-8.466404,-3.689733,4.013362,-0.149662,0.175013,0.020769,30.95,66.5122090748487
892,-8.472386,-3.695715,3.997808,-0.15012,0.167224,0.018784,30.95,66.6112228406499
902,-8.481958,-3.696911,3.954738,-0.150273,0.157603,0.016341,30.97,66.8572299223488
912,-8.488539,-3.696911,3.937988,-0.150273,0.145233,0.016952,30.97,66.9584428661108
922,-8.477173,-3.690929,3.92722,-0.151189,0.131183,0.016646,30.96,66.9863652556434
932,-8.490333,-3.692724,3.898506,-0.1518,0.115912,0.01741,30.96,67.1656020993312
942,-8.487342,-3.698706,3.876971,-0.151953,0.099113,0.020464,30.99,67.2781115510075
952,-8.47119,-3.693322,3.85723,-0.152716,0.081245,0.026573,30.99,67.3448182692048
962,-8.474779,-3.68734,3.835695,-0.152258,0.042761,0.031918,30.97,67.4605986754219
972,-8.453244,-3.699902,3.826722,-0.152105,0.023518,0.036957,30.98,67.4757853919853
982,-8.458628,-3.694518,3.817749,-0.151647,0.003054,0.042302,30.98,67.529429311378
992,-8.44128,-3.690331,3.81715,-0.149051,-0.016341,0.048869,30.95,67.4940190026861
1002,-8.42453,-3.695116,3.814758,-0.146455,-0.035736,0.054978,30.95,67.4771698907733
1012,-8.429914,-3.708875,3.811168,-0.143859,-0.055131,0.061087,30.96,67.5192721660149
1022,-8.411968,-3.707081,3.806981,-0.13943,-0.073151,0.067959,30.96,67.503794339395
1032,-8.412566,-3.697509,3.812365,-0.133932,-0.090255,0.074526,31,67.4678563566086
1042,-8.403594,-3.714259,3.815954,-0.12874,-0.10736,0.081245,31,67.4455550881221
1052,-8.382656,-3.70409,3.818945,-0.122478,-0.123395,0.087812,30.98,67.3781250516763
1062,-8.385049,-3.692724,3.824927,-0.115454,-0.138361,0.093768,30.98,67.3409369804088
1072,-8.389236,-3.70409,3.828516,-0.107207,-0.151953,0.099418,31,67.3405370364173
1082,-8.383853,-3.699304,3.845266,-0.097586,-0.164323,0.104153,31,67.236189216358
1092,-8.377273,-3.694518,3.856034,-0.087659,-0.176082,0.108734,30.94,67.1611794133526
1102,-8.373085,-3.701099,3.871587,-0.077885,-0.185398,0.113774,30.94,67.0759299642496
1112,-8.390432,-3.697509,3.89073,-0.068111,-0.194102,0.116064,30.96,67.0068197916246
1122,-8.389835,-3.67059,3.9338,-0.059101,-0.201738,0.118813,30.96,66.7533652783504
1132,-8.385049,-3.668197,3.96072,-0.041539,-0.211665,0.120493,30.98,66.5991390986283
1142,-8.402995,-3.667001,3.98405,-0.034972,-0.213803,0.118966,30.96,66.5127639497329
1152,-8.402397,-3.66401,4.01396,-0.02978,-0.215177,0.115912,30.96,66.3517182605851
1162,-8.413164,-3.658626,4.051049,-0.027642,-0.214719,0.11133,30.97,66.1753148573833
1172,-8.422137,-3.650251,4.076173,-0.027336,-0.212581,0.105985,30.97,66.055483162898
1182,-8.42453,-3.633501,4.094718,-0.02978,-0.208152,0.09896,30.98,65.948525313417
1192,-8.435298,-3.631108,4.133601,-0.034972,-0.202349,0.090408,30.98,65.7672527253978
1202,-8.446664,-3.625725,4.16411,-0.041997,-0.195324,0.081398,30.96,65.6286723246107
1212,-8.447262,-3.623332,4.186243,-0.05284,-0.185092,0.070402,30.96,65.5133806161646
1222,-8.447861,-3.62393,4.219144,-0.065057,-0.173028,0.059559,30.96,65.3456122220721
1232,-8.455637,-3.61376,4.24068,-0.079412,-0.160199,0.047342,30.96,65.2422898432039
1242,-8.443074,-3.608975,4.260421,-0.09728,-0.14508,0.035125,30.98,65.1089779863598
1252,-8.451449,-3.600002,4.275974,-0.115454,-0.12874,0.021838,30.98,65.0391534799686
1262,-8.440084,-3.602395,4.283153,-0.133932,-0.111483,0.008705,30.93,64.979611563283
1272,-8.443673,-3.597011,4.290929,-0.153174,-0.092241,-0.00336,30.93,64.942608401835
1282,-8.420342,-3.608975,4.302295,-0.171348,-0.071166,-0.013897,30.95,64.8441530705061
1292,-8.391031,-3.614359,4.27717,-0.190132,-0.050396,-0.025198,30.95,64.9134325035311
1302,-8.392825,-3.62393,4.274179,-0.208458,-0.008552,-0.042302,30.96,64.9419014361011
1312,-8.386844,-3.635894,4.242475,-0.235336,0.011454,-0.049938,30.98,65.1034099423488
1322,-8.356933,-3.64068,4.226922,-0.245262,0.031307,-0.05452,30.98,65.1225817326121
1332,-8.355738,-3.647858,4.197011,-0.252593,0.049633,-0.058796,30.99,65.2817452409792
1342,-8.337791,-3.661019,4.161119,-0.256411,0.066432,-0.061545,30.99,65.4416178849611
1352,-8.339585,-3.656233,4.127619,-0.257022,0.081551,-0.061697,30.96,65.6155687505188
1362,-8.323434,-3.668197,4.092923,-0.253967,0.094837,-0.061087,30.96,65.7734474343519
1372,-8.309675,-3.690331,4.072584,-0.248164,0.104458,-0.058032,30.95,65.8715551498517
1382,-8.315658,-3.699902,4.033103,-0.238543,0.112399,-0.052993,30.95,66.1009405654999
1392,-8.298907,-3.715455,4.00379,-0.22602,0.11805,-0.047495,30.93,66.2345658766416
1402,-8.291729,-3.713063,3.965506,-0.211359,0.120646,-0.03879,30.93,66.4195450755267
1412,-8.29472,-3.736991,3.939782,-0.194713,0.121104,-0.029322,30.95,66.5847701546708
1422,-8.280961,-3.723232,3.922434,-0.176235,0.118202,-0.018479,30.95,66.6351074942528
1432,-8.298907,-3.74058,3.892524,-0.157451,0.113163,-0.006567,30.97,66.847914398919
1442,-8.287541,-3.756732,3.879364,-0.138819,0.107054,0.006414,30.97,66.9095662756955
1452,-8.300103,-3.762115,3.865605,-0.11973,0.098349,0.020617,30.93,67.0138415574536
1462,-8.316854,-3.76391,3.848257,-0.100029,0.088575,0.035736,30.93,67.1423409134061
1472,-8.32463,-3.771687,3.841677,-0.08262,0.077122,0.066737,30.94,67.2004873797549
1482,-8.335996,-3.764508,3.8339,-0.05284,0.050549,0.083383,30.98,67.2584659105285
1492,-8.34796,-3.768098,3.842275,-0.041844,0.036652,0.097586,30.98,67.2415200871582
1502,-8.36471,-3.77408,3.846462,-0.032681,0.023366,0.112705,30.95,67.2587775059302
1512,-8.376674,-3.763312,3.856632,-0.02642,0.008552,0.125533,30.95,67.2192517245115
1522,-8.402397,-3.756134,3.862016,-0.022907,-0.006414,0.137597,30.97,67.2364066975289
1532,-8.426923,-3.763312,3.884149,-0.021838,-0.021228,0.147982,30.97,67.175685494668
1542,-8.440084,-3.751946,3.886542,-0.022755,-0.036499,0.156534,30.95,67.1794778864154
1552,-8.460423,-3.75733,3.900899,-0.027794,-0.050549,0.161116,30.95,67.1499533852956
1562,-8.488539,-3.742374,3.92064,-0.034361,-0.064904,0.163559,30.97,67.089891194759
1572,-8.503493,-3.759125,3.92722,-0.043677,-0.078649,0.162948,30.97,67.1006668543014
1582,-8.537591,-3.751946,3.946961,-0.054825,-0.093768,0.158825,30.95,67.0600938320736
1592,-8.542974,-3.74058,3.963711,-0.06689,-0.107054,0.152716,30.95,66.9736781990976
1602,-8.548359,-3.734598,3.968496,-0.08094,-0.12034,0.143553,30.97,66.9543968531279
1612,-8.5681,-3.726821,3.993023,-0.095142,-0.131947,0.132252,30.97,66.8602171196713
1622,-8.569895,-3.718446,4.0008,-0.109956,-0.143248,0.119271,30.95,66.8161522819339
1632,-8.566306,-3.715455,4.020541,-0.124006,-0.153327,0.106138,30.95,66.7039314512974
1642,-8.566306,-3.706482,4.023531,-0.138514,-0.161727,0.075442,30.96,66.6804988672233
1652,-8.541779,-3.711866,4.026522,-0.164475,-0.176235,0.060323,30.95,66.6194759810347
1662,-8.52144,-3.701697,4.034299,-0.175929,-0.179594,0.046884,30.95,66.5281244981229
1672,-8.495717,-3.7005,4.030112,-0.183565,-0.181732,0.034514,30.95,66.4955519799504
1682,-8.463414,-3.687938,4.037888,-0.19059,-0.184176,0.023213,30.95,66.3764693049823
1692,-8.457432,-3.680161,4.03071,-0.194561,-0.184787,0.013592,30.95,66.3943112198929
1702,-8.422735,-3.68375,4.022335,-0.195935,-0.183718,0.006261,30.95,66.3686959912671
1712,-8.4012,-3.678965,4.022335,-0.195477,-0.182343,0.002902,30.96,66.3190525419823
1722,-8.361719,-3.666403,4.020541,-0.191659,-0.1799,0.001222,30.96,66.2334434154265
1732,-8.35155,-3.667001,4.012166,-0.18555,-0.176235,0.000916,30.91,66.256493461821
1742,-8.330612,-3.661617,4.009772,-0.177304,-0.172569,0.003512,30.91,66.2196230493973
1752,-8.304291,-3.659224,4.018745,-0.16753,-0.168599,0.007025,30.95,66.1138951844091
1762,-8.286345,-3.656831,4.018745,-0.155465,-0.163101,0.014508,30.95,66.0731887514603
1772,-8.272586,-3.650849,4.028317,-0.141568,-0.156992,0.022144,30.94,65.987328783036
1782,-8.252846,-3.640081,4.03729,-0.127365,-0.149815,0.03146,30.94,65.8869411630596
1792,-8.246863,-3.636492,4.042674,-0.111788,-0.141415,0.041233,30.96,65.8420338652677
1802,-8.248658,-3.624528,4.059424,-0.097433,-0.13271,0.050702,30.96,65.7458851772166
1812,-8.242676,-3.61735,4.082156,-0.08262,-0.122784,0.061239,30.9,65.605826265859
1822,-8.243275,-3.617948,4.106084,-0.057421,-0.098349,0.079412,30.9,65.48152331696
1832,-8.254042,-3.608377,4.123432,-0.045662,-0.084299,0.088575,30.94,65.404695321527
1842,-8.267202,-3.618546,4.141378,-0.038179,-0.068722,0.096364,31,65.3492803146306
1852,-8.273185,-3.61077,4.161717,-0.033139,-0.052993,0.103084,31,65.2484199828276
1862,-8.292327,-3.601198,4.179663,-0.029932,-0.035888,0.10797,30.95,65.1877368453215
1872,-8.313264,-3.6006,4.199404,-0.030085,-0.017868,0.111788,30.95,65.1305997567481
1882,-8.330013,-3.598805,4.201199,-0.032529,0.000153,0.114385,30.96,65.1565939790354
1892,-8.337193,-3.603591,4.21735,-0.036652,0.017868,0.113468,30.96,65.0931440634699
1902,-8.383254,-3.593421,4.228117,-0.044135,0.035277,0.112552,30.92,65.1293846656201
1912,-8.38146,-3.598207,4.21735,-0.054062,0.05284,0.107665,30.92,65.1856519850917
1922,-8.394022,-3.613162,4.222135,-0.066584,0.067959,0.100945,30.93,65.2026068103168
1932,-8.435298,-3.61376,4.216752,-0.079718,0.082925,0.092699,30.93,65.3211363567694
1942,-8.46102,-3.61735,4.218546,-0.094837,0.096822,0.083689,30.95,65.3711329147478
1952,-8.450253,-3.617948,4.203591,-0.112399,0.108276,0.071166,30.95,65.4253645807205
1962,-8.484351,-3.625725,4.190431,-0.128434,0.118508,0.05849,30.95,65.5739409886667
1972,-8.49452,-3.632903,4.155136,-0.145233,0.12706,0.045357,30.95,65.784169647429
1982,-8.502296,-3.648456,4.125825,-0.161727,0.132405,0.029474,30.95,65.9661525392235
1992,-8.510672,-3.643671,4.089334,-0.177456,0.137597,-0.000458,30.95,66.1682299340697
2002,-8.498708,-3.668795,4.053442,-0.206472,0.136528,-0.016035,31,66.351932852997
2012,-8.515458,-3.682554,4.034299,-0.217621,0.133169,-0.028253,30.98,66.4985711795874
2022,-8.496913,-3.685545,3.99721,-0.226173,0.127976,-0.04047,30.98,66.655905648446
2032,-8.489736,-3.702295,3.96072,-0.233656,0.119577,-0.05116,30.91,66.8466916050006
2042,-8.493324,-3.716054,3.929015,-0.23839,0.108734,-0.059101,30.91,67.0322532274768
2052,-8.473583,-3.72383,3.891926,-0.240528,0.0956,-0.064294,30.95,67.1938147163968
2062,-8.462217,-3.732205,3.855436,-0.240375,0.079718,-0.067195,30.95,67.3705784576972
2072,-8.459227,-3.728616,3.818347,-0.237016,0.061392,-0.066126,30.95,67.5574613244456
2082,-8.435897,-3.748955,3.792026,-0.23106,0.041539,-0.062614,30.95,67.6684121087294
2092,-8.422137,-3.746562,3.767499,-0.223729,0.0197,-0.056047,30.93,67.7693360378422
2102,-8.406584,-3.765705,3.748357,-0.212887,-0.003512,-0.046731,30.93,67.8574735573916
2112,-8.401799,-3.761517,3.724428,-0.201127,-0.028711,-0.036346,30.93,67.9721371761817
2122,-8.398808,-3.762714,3.715455,-0.186772,-0.055131,-0.021838,30.93,68.0153055148723
2132,-8.390432,-3.757928,3.701099,-0.171653,-0.081245,-0.005498,30.98,68.0714879440359
2142,-8.383254,-3.768098,3.702295,-0.155923,-0.108429,0.011606,30.98,68.0599208012666
2152,-8.373085,-3.763312,3.716054,-0.138819,-0.13439,0.029932,30.97,67.9617939739656
2162,-8.378469,-3.75733,3.729812,-0.121715,-0.161574,0.065973,30.97,67.8934096607608
2172,-8.382656,-3.752544,3.741776,-0.088881,-0.212428,0.083383,30.96,67.8334231088419
2182,-8.39462,-3.748955,3.777669,-0.072235,-0.236099,0.098349,30.95,67.6623809855813
2192,-8.392825,-3.750151,3.808177,-0.056963,-0.257174,0.112094,30.95,67.4973702309263
2202,-8.404789,-3.739982,3.832105,-0.043524,-0.273973,0.124158,30.95,67.3852049538293
2212,-8.400601,-3.73041,3.891328,-0.030849,-0.288328,0.13271,30.95,67.0543574379969
2222,-8.407183,-3.719045,3.934398,-0.02138,-0.299477,0.139735,31,66.8302551219691
2232,-8.397612,-3.713063,3.992425,-0.014966,-0.304974,0.144317,31,66.4998184436227
2242,-8.400003,-3.69392,4.050451,-0.010385,-0.306196,0.14615,30.98,66.1832456738115
2252,-8.397612,-3.7005,4.098905,-0.008858,-0.302684,0.145539,30.98,65.9316095448277
2262,-8.393424,-3.690331,4.143771,-0.009163,-0.293215,0.143706,31,65.6799196263052
2272,-8.38146,-3.679563,4.195216,-0.014203,-0.278402,0.137597,31,65.3773433170368
2282,-8.365907,-3.679563,4.246662,-0.021686,-0.258701,0.131641,30.96,65.077720298971
2292,-8.359326,-3.669394,4.28734,-0.031765,-0.235489,0.123242,30.96,64.8439385087321
2302,-8.35155,-3.667599,4.322036,-0.044593,-0.208458,0.113774,30.95,64.6467455970039
2312,-8.33121,-3.650849,4.347161,-0.059254,-0.177609,0.104305,30.95,64.4560012593427
2322,-8.332406,-3.647858,4.367499,-0.074678,-0.14447,0.09499,30.93,64.3515465640027
2332,-8.315059,-3.647858,4.383053,-0.091477,-0.109345,0.085521,30.93,64.2327869241821
2342,-8.312666,-3.638885,4.369893,-0.125227,-0.039401,0.064752,30.96,64.2858807935398
2352,-8.313862,-3.638287,4.357928,-0.141721,-0.004734,0.0562,30.98,64.3493473038496
2362,-8.325827,-3.635296,4.328018,-0.156382,0.027031,0.047037,30.98,64.5269300024952
2372,-8.317451,-3.644867,4.30409,-0.169668,0.056658,0.039248,30.96,64.6406797051409
2382,-8.325827,-3.637091,4.277769,-0.180663,0.083994,0.032987,30.96,64.7875173542538
2392,-8.333005,-3.643072,4.247859,-0.189215,0.10736,0.027489,30.97,64.9637976929585
2402,-8.339585,-3.644867,4.20718,-0.196546,0.126907,0.021686,30.97,65.1907292790237
2412,-8.365308,-3.652644,4.168896,-0.199753,0.141873,0.017868,30.94,65.4530755047703
2422,-8.350951,-3.658028,4.132405,-0.201891,0.153633,0.015577,30.94,65.6169215038298
2432,-8.364112,-3.658028,4.095316,-0.201891,0.161727,0.013592,30.95,65.8388674502997
2442,-8.396414,-3.651447,4.056432,-0.199753,0.164475,0.012523,30.95,66.1050254700801
2452,-8.404191,-3.672385,4.015755,-0.196699,0.165239,0.010996,30.93,66.3537739434896
2462,-8.410771,-3.661617,3.969693,-0.191659,0.161574,0.011912,30.93,66.5996136921569
2472,-8.42812,-3.676572,3.961916,-0.186772,0.154854,0.012981,30.96,66.6901819816784
2482,-8.438888,-3.669394,3.926622,-0.180205,0.146302,0.013744,30.96,66.8916828023321
2492,-8.452048,-3.668197,3.896114,-0.172569,0.133779,0.016952,30.94,67.0784582905779
2502,-8.457432,-3.675375,3.859025,-0.165086,0.119882,0.020617,30.94,67.2916602649983
2512,-8.479566,-3.669992,3.832105,-0.157298,0.084452,0.025198,30.97,67.4740701765938
2522,-8.475378,-3.667599,3.828516,-0.140194,0.064599,0.029169,30.94,67.4825445178086
2532,-8.477173,-3.677768,3.822534,-0.131336,0.043982,0.032834,30.94,67.5266909134671
2542,-8.467602,-3.679563,3.813561,-0.123547,0.023671,0.038943,30.94,67.5565686521203
2552,-8.458031,-3.680759,3.805186,-0.115454,0.001069,0.043066,30.94,67.5828209174663
2562,-8.460423,-3.677171,3.803392,-0.108734,-0.020311,0.048106,30.95,67.5940135022132
2572,-8.452645,-3.68375,3.81057,-0.102014,-0.040317,0.053298,30.95,67.5460387727855
2582,-8.446664,-3.689733,3.809972,-0.096364,-0.06185,0.058032,31,67.5424354552131
2592,-8.448458,-3.675974,3.815954,-0.090255,-0.081703,0.063835,31,67.5022142986793
2602,-8.422735,-3.680759,3.835097,-0.086437,-0.099876,0.06918,30.96,67.3527788016927
2612,-8.417352,-3.675974,3.845864,-0.082467,-0.117439,0.073762,30.96,67.2804299558923
2622,-8.426325,-3.681956,3.879364,-0.080481,-0.133016,0.076816,30.98,67.1265763282416
2632,-8.400601,-3.685545,3.878766,-0.078954,-0.145233,0.081703,30.98,67.0802737414573
2642,-8.392825,-3.684349,3.905685,-0.079718,-0.156992,0.086132,30.96,66.9206700391931
2652,-8.4012,-3.678366,3.941577,-0.079718,-0.166308,0.08995,30.96,66.7430007289556
2662,-8.396414,-3.678366,3.945167,-0.081856,-0.173028,0.091324,30.99,66.7141261857387
2672,-8.388638,-3.681358,3.999005,-0.084452,-0.178678,0.093615,30.99,66.4172454543053
2682,-8.379066,-3.675375,4.007978,-0.087659,-0.180969,0.095295,30.95,66.3444451418111
2692,-8.387442,-3.671188,4.0337,-0.096364,-0.180053,0.095906,30.96,66.2232852449245
2702,-8.39462,-3.680759,4.04746,-0.10064,-0.177762,0.094837,30.96,66.1752930808308
2712,-8.386245,-3.675974,4.075575,-0.105985,-0.172875,0.092546,30.98,66.0061161420757
2722,-8.398808,-3.668795,4.073781,-0.11133,-0.167224,0.089339,30.98,66.0355294659092
2732,-8.383254,-3.684947,4.08754,-0.11637,-0.160352,0.08491,30.94,65.9456780763336
2742,-8.392825,-3.671786,4.101896,-0.120951,-0.152105,0.081398,30.94,65.8789424676663
2752,-8.395219,-3.671786,4.11386,-0.124311,-0.143553,0.077274,30.95,65.8217674457469
2762,-8.4012,-3.675375,4.106682,-0.128129,-0.135765,0.07086,30.95,65.8752666358849
2772,-8.419745,-3.672983,4.112664,-0.131489,-0.126755,0.065057,30.98,65.8815003317182
2782,-8.425129,-3.669992,4.113262,-0.13439,-0.118661,0.057727,30.98,65.8870918202219
2792,-8.422137,-3.666403,4.112664,-0.136834,-0.111177,0.051313,30.96,65.8804863965086
2802,-8.422137,-3.662215,4.111467,-0.138666,-0.104763,0.044746,30.96,65.8828194408324
2812,-8.42453,-3.661019,4.107878,-0.139735,-0.097738,0.037721,30.93,65.9054684123759
2822,-8.435897,-3.669992,4.113262,-0.140194,-0.092088,0.029627,30.93,65.9100247929939
2832,-8.425727,-3.661019,4.109075,-0.142026,-0.086437,0.022144,30.96,65.901798964808
2842,-8.432307,-3.67059,4.125226,-0.142637,-0.081551,0.015119,30.96,65.8408552517438
2852,-8.423933,-3.647858,4.134199,-0.143553,-0.076969,0.008858,30.95,65.7552857993171
2862,-8.423933,-3.652046,4.122235,-0.145691,-0.067348,-0.003207,30.95,65.8212806271573
2872,-8.412566,-3.659822,4.128816,-0.146913,-0.06185,-0.007789,30.95,65.7699935992473
2882,-8.410771,-3.652644,4.12044,-0.148135,-0.055283,-0.011148,30.92,65.802982991341
2892,-8.396414,-3.656831,4.119842,-0.149357,-0.048564,-0.013286,30.92,65.7792112624145
2902,-8.387442,-3.659224,4.127021,-0.150884,-0.041692,-0.014203,30.97,65.7248239051333
2912,-8.359326,-3.671188,4.131208,-0.151953,-0.033598,-0.014203,30.97,65.6537352943991
2922,-8.356335,-3.663411,4.124628,-0.152258,-0.02474,-0.012981,30.97,65.6742061087945
2932,-8.344371,-3.674777,4.131208,-0.153022,-0.014813,-0.010232,30.97,65.6248415935655
2942,-8.332406,-3.667599,4.130012,-0.153174,-0.004581,-0.006109,30.96,65.5983411497132
2952,-8.315658,-3.664608,4.11745,-0.153174,0.00672,-0.000764,30.96,65.6248142445429
2962,-8.30788,-3.675375,4.118646,-0.151953,0.01909,0.005498,30.95,65.6119986670563
2972,-8.288737,-3.679563,4.111467,-0.150273,0.030696,0.01237,30.95,65.6120704130789
2982,-8.288139,-3.692126,4.096512,-0.147829,0.042761,0.020006,30.97,65.7012942857562
2992,-8.286345,-3.695116,4.089334,-0.14508,0.054825,0.028253,30.97,65.7379607628651
3002,-8.292327,-3.701099,4.065406,-0.141721,0.066432,0.036652,30.97,65.8822818461381
3012,-8.287541,-3.701697,4.06062,-0.137139,0.076205,0.044593,30.97,65.8977365525433
3022,-8.300702,-3.714259,4.023531,-0.131794,0.085368,0.051924,30.92,66.1331377787401
3032,-8.31446,-3.721437,4.009772,-0.126144,0.098349,0.064599,30.92,66.241652132026
3042,-8.337193,-3.716054,3.996014,-0.114537,0.102625,0.069486,30.94,66.3570578131935
3052,-8.338987,-3.720241,3.969693,-0.109039,0.104153,0.074984,30.94,66.5035238593872
3062,-8.357532,-3.726821,3.963711,-0.103236,0.102931,0.078649,30.94,66.5799793737561
3072,-8.38445,-3.729812,3.943372,-0.098044,0.099266,0.080634,30.95,66.7458809354271
3082,-8.382656,-3.726223,3.931407,-0.093615,0.093157,0.082925,30.95,66.8019688925908
3092,-8.425129,-3.732804,3.909274,-0.090713,0.085063,0.083078,30.95,67.0119636362943
3102,-8.440681,-3.729812,3.898506,-0.087812,0.074526,0.083078,30.95,67.0977226778909
3112,-8.450253,-3.728616,3.881158,-0.086132,0.061697,0.082925,30.98,67.2075265986944
3122,-8.464012,-3.722634,3.873382,-0.085216,0.046578,0.081398,30.98,67.2710370836414
3132,-8.466404,-3.714857,3.867399,-0.085674,0.029474,0.081551,30.95,67.3005144386393
3142,-8.487342,-3.719643,3.853043,-0.086437,0.010537,0.081092,30.95,67.4226073850095
3152,-8.496913,-3.718446,3.846462,-0.089034,-0.009468,0.079412,30.96,67.4754372292733
3162,-8.52144,-3.711866,3.851248,-0.091783,-0.030696,0.07926,30.96,67.4935543767052
3172,-8.516654,-3.707081,3.846462,-0.0956,-0.05284,0.078954,30.9,67.505012776931
3182,-8.517252,-3.703491,3.856632,-0.098502,-0.0759,0.079412,30.9,67.4495524029081
3192,-8.513064,-3.699902,3.854837,-0.102778,-0.098349,0.078954,30.95,67.4474780065833
3202,-8.522635,-3.699902,3.875176,-0.10736,-0.143706,0.080023,30.95,67.3597329206603
3212,-8.520243,-3.695715,3.883551,-0.115454,-0.16417,0.081703,30.94,67.3072785517118
3222,-8.509476,-3.685545,3.885346,-0.120493,-0.184939,0.081551,31,67.267231427173
3232,-8.510672,-3.680161,3.914658,-0.123547,-0.202349,0.08323,31,67.1110397473613
3242,-8.510672,-3.665804,3.934398,-0.127976,-0.217926,0.082314,30.95,66.9949461695822
3252,-8.499905,-3.656831,3.932006,-0.130878,-0.232282,0.081398,30.95,66.9775659840659
3262,-8.48136,-3.661019,3.961318,-0.133321,-0.243124,0.080787,30.95,66.7895126686491
3272,-8.46461,-3.656831,3.992425,-0.13439,-0.251982,0.077885,30.95,66.5882003663085
3282,-8.457432,-3.64726,4.010969,-0.13439,-0.256869,0.075442,30.93,66.4676126179563
3292,-8.435897,-3.653242,4.039085,-0.133932,-0.258396,0.072082,30.93,66.2808917816813
3302,-8.423334,-3.6341,4.046263,-0.132863,-0.25748,0.067348,30.98,66.1993730754042
3312,-8.402397,-3.641278,4.072584,-0.129809,-0.253662,0.063835,30.98,66.0239325584866
3322,-8.376674,-3.641876,4.09711,-0.126602,-0.246637,0.058796,30.95,65.841349930516
3332,-8.357532,-3.6341,4.12044,-0.122937,-0.235641,0.053909,30.95,65.6709799650325
3342,-8.348558,-3.632903,4.143172,-0.11805,-0.222813,0.048564,30.96,65.5317932785778
3352,-8.327023,-3.618546,4.157529,-0.11301,-0.206625,0.043524,30.96,65.3962774815687
3362,-8.313862,-3.628117,4.19402,-0.10736,-0.188757,0.03879,30.93,65.1863798717714
3372,-8.273782,-3.620341,4.212564,-0.102167,-0.168446,0.031918,30.93,64.9934741356248
3382,-8.249256,-3.619144,4.219743,-0.091324,-0.122173,0.028253,30.91,64.9001356302949
3393,-8.235497,-3.619144,4.216752,-0.086743,-0.098197,0.02642,30.98,64.8849364330207
3402,-8.229516,-3.622135,4.238287,-0.08262,-0.071471,0.025656,30.98,64.7620948811138
3412,-8.221141,-3.615555,4.237689,-0.080023,-0.045357,0.02474,30.91,64.7398388226389
3422,-8.229516,-3.629912,4.24068,-0.078649,-0.019242,0.024435,30.91,64.7573266213907
3432,-8.23789,-3.622734,4.239483,-0.077274,0.006872,0.027184,30.93,64.7752797145731
3442,-8.230114,-3.626323,4.234099,-0.078343,0.032223,0.028863,30.93,64.7894230335104
3452,-8.242676,-3.615555,4.236493,-0.081092,0.05681,0.03146,30.96,64.7945284863288
3462,-8.263614,-3.627519,4.221537,-0.084299,0.079871,0.03543,30.96,64.9310757899354
3472,-8.278568,-3.631108,4.208377,-0.088881,0.100335,0.038485,30.95,65.0364195559075
3482,-8.289336,-3.637091,4.200002,-0.095295,0.119882,0.041386,30.95,65.1097323105343
3492,-8.330013,-3.641876,4.179065,-0.101251,0.135459,0.044593,30.98,65.3129123526713
3502,-8.355738,-3.635894,4.169494,-0.10965,0.148288,0.046731,30.98,65.413230071713
3512,-8.369495,-3.640081,4.144369,-0.117592,0.159283,0.047189,30.96,65.5777986535908
3522,-8.404191,-3.646064,4.110869,-0.12706,0.166003,0.046578,30.96,65.8325537609546
3532,-8.43111,-3.641278,4.09711,-0.135918,0.168752,0.046273,30.9,65.9572644315978
3542,-8.48136,-3.658626,4.04387,-0.144928,0.169362,0.043677,30.9,66.3562683020317
3552,-8.499905,-3.665804,4.022335,-0.161879,0.160047,0.036041,30.93,66.5134988376617
3562,-8.52443,-3.672983,4.004987,-0.169515,0.151647,0.030543,30.97,66.6609657957155
3572,-8.545966,-3.689135,3.976273,-0.176693,0.140194,0.02474,30.97,66.8688951512408
3582,-8.552546,-3.688536,3.947559,-0.183412,0.126449,0.017257,30.98,67.0313671567013
3592,-8.560324,-3.694518,3.923631,-0.188299,0.111788,0.010385,30.98,67.1771770857211
3602,-8.555537,-3.707679,3.902096,-0.191964,0.094226,0.003054,30.96,67.2915150329019
3612,-8.563314,-3.709473,3.88056,-0.194561,0.076053,-0.003971,30.96,67.4213159747959
3622,-8.550154,-3.720241,3.857828,-0.194866,0.055741,-0.010079,31.01,67.5235256049315
3632,-8.556136,-3.722036,3.842873,-0.194255,0.033598,-0.014813,31.01,67.6154497161706
3642,-8.522635,-3.735196,3.820141,-0.19227,0.010537,-0.018784,30.98,67.6800009362664
3652,-8.513663,-3.73041,3.81057,-0.188299,-0.011912,-0.021228,30.98,67.7085380877244
3662,-8.509476,-3.736991,3.799803,-0.182954,-0.035888,-0.023824,30.97,67.7628097823296
3672,-8.479566,-3.743571,3.796811,-0.176387,-0.058948,-0.02306,30.97,67.7251348630335
3682,-8.458031,-3.752544,3.777071,-0.168752,-0.083078,-0.021686,30.96,67.7949548715678
3692,-8.443673,-3.752544,3.783053,-0.158978,-0.105985,-0.017868,30.96,67.7347140377237
3702,-8.423933,-3.75075,3.781856,-0.147524,-0.127518,-0.012217,30.95,67.7002082188529
3712,-8.39462,-3.734,3.802794,-0.135918,-0.148135,-0.002749,30.95,67.5151384762606
3722,-8.343175,-3.753142,3.81715,-0.123395,-0.18387,0.018021,30.95,67.3519416297994
3732,-8.31446,-3.748357,3.819543,-0.097128,-0.199447,0.031001,30.96,67.2763389093054
3742,-8.299506,-3.744169,3.845266,-0.085368,-0.212276,0.042913,30.96,67.1044149735866
3752,-8.301898,-3.738187,3.868596,-0.072235,-0.221439,0.058185,30.94,66.9793121556172
3762,-8.277372,-3.733402,3.893123,-0.060781,-0.227395,0.073457,30.94,66.7932300853538
3772,-8.279166,-3.725625,3.924229,-0.050091,-0.230143,0.08827,30.95,66.6240562209599
3782,-8.266006,-3.714857,3.959523,-0.041539,-0.230907,0.103542,30.95,66.3986216582981
3792,-8.263614,-3.701099,3.982255,-0.033903,-0.2277,0.11805,30.95,66.2598418203278
3802,-8.274979,-3.70409,4.021138,-0.028405,-0.22266,0.131183,30.95,66.0811895116326
3812,-8.282756,-3.692126,4.042674,-0.024587,-0.215025,0.142484,30.94,65.9727810533164
3822,-8.300103,-3.679563,4.077968,-0.023366,-0.20464,0.152105,30.94,65.8124025490392
3832,-8.317451,-3.682554,4.109673,-0.023366,-0.193186,0.158672,30.93,65.6865402677251
3842,-8.327621,-3.67418,4.13719,-0.026573,-0.181427,0.164323,30.93,65.5567980554538
3852,-8.348558,-3.661019,4.165905,-0.031765,-0.167224,0.166003,30.95,65.4401588704432
3862,-8.374879,-3.661617,4.188636,-0.039248,-0.153327,0.166308,30.95,65.3800203811258
3872,-8.385648,-3.656233,4.212564,-0.047189,-0.137292,0.16417,30.96,65.2745543804817
3882,-8.410173,-3.647858,4.252644,-0.057269,-0.121409,0.158214,30.96,65.1135597932316
3892,-8.432307,-3.635894,4.25743,-0.07025,-0.104611,0.140194,30.95,65.1260653546132
3902,-8.447861,-3.635894,4.260421,-0.097128,-0.071166,0.128587,30.96,65.1446911888224
3912,-8.458628,-3.627519,4.27059,-0.110261,-0.054062,0.116064,30.96,65.1082200690592
3922,-8.457432,-3.632305,4.255635,-0.124464,-0.036652,0.100793,30.93,65.1867433230858
3932,-8.475378,-3.631108,4.252644,-0.138666,-0.020464,0.085063,30.93,65.2400005182891
3942,-8.477173,-3.633501,4.238885,-0.151647,-0.003665,0.069791,30.94,65.3166539214122
3952,-8.460423,-3.626921,4.231707,-0.16249,0.012217,0.052687,30.94,65.3110576594944
3962,-8.473583,-3.619144,4.208975,-0.17318,0.027947,0.036499,30.98,65.4492346717325
3972,-8.466404,-3.626323,4.195216,-0.180511,0.040775,0.021686,30.98,65.5111998575887
3982,-8.450253,-3.639483,4.17069,-0.187383,0.054214,0.007178,31,65.6151135045936
3992,-8.449057,-3.632305,4.148556,-0.192117,0.064446,-0.005956,31,65.7203703862479
4002,-8.438289,-3.6341,4.131208,-0.19395,0.073762,-0.018479,30.98,65.7888395504496
4012,-8.437093,-3.629314,4.103691,-0.194713,0.081551,-0.028711,30.98,65.9247943094839
4022,-8.422735,-3.641278,4.07737,-0.193186,0.087812,-0.036346,30.96,66.0422570811277
4032,-8.408379,-3.649653,4.052843,-0.189826,0.091783,-0.042761,30.96,66.1475413756663
4042,-8.402397,-3.667599,4.013362,-0.184787,0.094531,-0.047342,30.99,66.3581501162874
4052,-8.38146,-3.647858,4.002594,-0.178525,0.094684,-0.050091,30.99,66.3524333486072
4062,-8.365308,-3.656831,3.946961,-0.171348,0.09331,-0.049938,30.97,66.620079106368
4072,-8.361719,-3.678366,3.939184,-0.155465,0.086437,-0.043066,30.94,66.673446790163
4082,-8.35155,-3.671188,3.923033,-0.146455,0.080481,-0.036499,30.94,66.7311474682844
4092,-8.352745,-3.662813,3.911667,-0.137445,0.07422,-0.027642,30.96,66.7862476752055
4102,-8.338388,-3.669992,3.899703,-0.128893,0.067042,-0.017257,30.96,66.8264449889851
4112,-8.330013,-3.68375,3.877569,-0.121409,0.058032,-0.005498,30.99,66.9394144700133
4122,-8.329416,-3.67059,3.867998,-0.113468,0.048411,0.008094,30.99,66.9771313335286
4132,-8.341978,-3.686144,3.860221,-0.10736,0.03879,0.021075,30.96,67.0587539654582
4142,-8.345568,-3.680759,3.853043,-0.101251,0.027336,0.035583,30.96,67.0995065126868
4152,-8.35813,-3.686741,3.851846,-0.096211,0.016799,0.04948,30.97,67.1371562589918
4162,-8.360522,-3.679563,3.859025,-0.092241,0.005345,0.062919,30.97,67.0973513240472
4172,-8.375478,-3.67418,3.851846,-0.089339,-0.008247,0.074526,30.92,67.1614311973254
4182,-8.39821,-3.672983,3.85065,-0.087506,-0.021838,0.086437,30.92,67.2132834152336
4192,-8.410771,-3.684349,3.858427,-0.085827,-0.035277,0.094531,30.94,67.2078286845148
4202,-8.425727,-3.68375,3.870989,-0.084758,-0.050396,0.102931,30.94,67.1712693267093
4212,-8.447861,-3.684947,3.867998,-0.085979,-0.06521,0.108276,30.96,67.2332486663573
4222,-8.46461,-3.687938,3.889533,-0.088117,-0.080634,0.112857,30.96,67.1563135944961
4232,-8.468798,-3.694518,3.915256,-0.089797,-0.095295,0.113316,30.96,67.0353018738488
4242,-8.483154,-3.702893,3.923033,-0.092699,-0.123547,0.110261,30.96,67.0311981054892
4252,-8.488539,-3.692126,3.933203,-0.099113,-0.136376,0.106443,30.93,66.9792692057263
4262,-8.497512,-3.68375,3.948756,-0.103847,-0.147524,0.101556,30.96,66.9087019883118
4272,-8.491529,-3.687938,3.965506,-0.107512,-0.15852,0.095295,30.96,66.8125193826196
4282,-8.509476,-3.704688,3.980461,-0.112399,-0.167224,0.089797,30.98,66.7862121905023
4292,-8.483154,-3.693322,4.007978,-0.117897,-0.173638,0.081703,30.98,66.578292136771
4302,-8.493324,-3.68734,4.016951,-0.122631,-0.179442,0.07254,30.98,66.5472151975973
4312,-8.496913,-3.689733,4.024727,-0.126602,-0.182649,0.064752,30.98,66.5163317873427
4322,-8.47119,-3.698107,4.043272,-0.130114,-0.183718,0.055894,30.97,66.3739277968182
4332,-8.464012,-3.698706,4.045665,-0.132558,-0.185092,0.049327,30.97,66.347038207178
4342,-8.462217,-3.698107,4.052843,-0.135918,-0.183718,0.042761,30.96,66.305388753066
4352,-8.442476,-3.692126,4.063013,-0.137445,-0.180663,0.034972,30.96,66.2055709064209
4362,-8.419745,-3.682554,4.085745,-0.139125,-0.176845,0.029169,30.95,66.0303890972514
4372,-8.419147,-3.693322,4.081557,-0.138972,-0.171959,0.024435,30.95,66.0609167144594
4382,-8.397612,-3.690929,4.080959,-0.138972,-0.165239,0.020159,30.96,66.01614829337
4392,-8.385049,-3.683152,4.094718,-0.137292,-0.158978,0.017104,30.96,65.9103871225994
4402,-8.383254,-3.68375,4.102495,-0.13607,-0.150731,0.014813,30.96,65.8665767384003
4412,-8.341978,-3.690929,4.098307,-0.133474,-0.141721,0.013439,30.96,65.8067876175914
4422,-8.335996,-3.687938,4.108477,-0.127824,-0.121562,0.013897,30.95,65.7379385007448
4432,-8.344371,-3.681358,4.119244,-0.125533,-0.110567,0.015882,30.98,65.6935055489705
4442,-8.318647,-3.686144,4.118646,-0.121562,-0.099724,0.018326,30.98,65.6456470944728
4452,-8.310871,-3.679563,4.125825,-0.118202,-0.087506,0.022297,30.96,65.584967158382
4462,-8.313862,-3.671188,4.138387,-0.115301,-0.074831,0.025504,30.96,65.5177934801295
4472,-8.298308,-3.656233,4.132405,-0.112857,-0.062308,0.028558,30.96,65.5008064450369
4482,-8.289934,-3.663411,4.136592,-0.108887,-0.048411,0.034361,30.96,65.4675344940324
4492,-8.305488,-3.671188,4.132405,-0.10736,-0.034819,0.038179,30.98,65.5308291872024
4502,-8.3013,-3.656831,4.145566,-0.105985,-0.021228,0.04383,30.98,65.4391030468855
4512,-8.303095,-3.662813,4.133003,-0.104916,-0.007941,0.048258,30.98,65.5144407566029
4522,-8.300103,-3.666403,4.128816,-0.104611,0.006567,0.051924,30.98,65.5332741615209
4532,-8.313862,-3.666403,4.143771,-0.103694,0.020769,0.055894,30.95,65.4850884807766
4542,-8.313264,-3.667599,4.132405,-0.105222,0.034056,0.059101,30.95,65.5442941808494
4552,-8.331809,-3.662813,4.145566,-0.105527,0.046884,0.061697,30.95,65.5113380309976
4562,-8.337791,-3.668795,4.130012,-0.10736,0.059407,0.063377,30.95,65.6111460176625
4572,-8.349156,-3.675375,4.13061,-0.109803,0.071471,0.065057,30.98,65.6388682742315
4582,-8.355738,-3.675375,4.110271,-0.111636,0.082161,0.06521,30.98,65.7591318464597
4592,-8.375478,-3.671188,4.092325,-0.117439,0.100487,0.064599,30.96,65.8912008780336
4602,-8.401799,-3.675375,4.084548,-0.121104,0.108123,0.062003,30.93,65.9918387574032
4612,-8.397612,-3.681956,4.065406,-0.123853,0.114079,0.058948,30.93,66.0889468362721
4622,-8.417951,-3.68734,4.050451,-0.126755,0.117897,0.057116,30.93,66.2150150693729
4632,-8.426923,-3.683152,4.031308,-0.13042,0.118966,0.052687,30.93,66.3300187135252
4642,-8.437093,-3.690331,4.001398,-0.132863,0.118966,0.049022,30.95,66.5142747791138
4652,-8.449057,-3.672983,3.978666,-0.134085,0.115912,0.044899,30.95,66.6424853776317
4662,-8.456833,-3.682554,3.954738,-0.136987,0.110108,0.040928,30.96,66.7926796715934
4672,-8.46102,-3.698706,3.934997,-0.138208,0.102014,0.038026,30.96,66.9194066681536
4682,-8.475977,-3.69392,3.914658,-0.138972,0.09163,0.035736,30.93,67.052563235844
4692,-8.469995,-3.698107,3.89731,-0.13943,0.078496,0.033139,30.93,67.1353348704701
4702,-8.470592,-3.695715,3.869792,-0.138819,0.063225,0.032681,30.95,67.2794241092502
4712,-8.473583,-3.692724,3.849453,-0.138056,0.046426,0.03146,30.95,67.3901948887439
4722,-8.481958,-3.699902,3.835097,-0.136987,0.026725,0.031612,30.99,67.4891884150257
4732,-8.472985,-3.702295,3.823731,-0.134543,0.005192,0.03375,30.99,67.5333838130722
4742,-8.481958,-3.696313,3.812365,-0.132252,-0.016341,0.035888,30.97,67.6062808621787
4752,-8.474779,-3.693322,3.801597,-0.129656,-0.039554,0.039401,30.97,67.6463677589717
4762,-8.470592,-3.686741,3.802794,-0.122478,-0.08659,0.048106,30.98,67.6259137496281
4772,-8.462815,-3.683152,3.794419,-0.118202,-0.110108,0.054062,30.94,67.651664338927
4782,-8.459825,-3.681358,3.802794,-0.11469,-0.133474,0.059407,30.94,67.5996420436334
4792,-8.461619,-3.682554,3.815954,-0.111025,-0.154854,0.064904,30.93,67.5344732271411
4802,-8.459825,-3.672385,3.834498,-0.106596,-0.175929,0.07086,30.93,67.4236758661775
4812,-8.458031,-3.675375,3.860221,-0.102625,-0.194561,0.074831,30.98,67.2865526827031
4822,-8.465807,-3.672385,3.87398,-0.099571,-0.211665,0.078954,30.98,67.2270274658091
4832,-8.458031,-3.675974,3.896712,-0.0956,-0.22602,0.082772,30.95,67.0944430095909
4843,-8.458031,-3.656831,3.917051,-0.09163,-0.238543,0.08491,30.95,66.9702770598522
4852,-8.444869,-3.654438,3.948158,-0.088575,-0.248469,0.086743,30.96,66.7772937038462
4862,-8.431709,-3.650849,3.982255,-0.085827,-0.255036,0.086743,30.96,66.5675487595986
4872,-8.429317,-3.647858,4.015156,-0.083689,-0.258549,0.08659,30.96,66.3873107984485
4882,-8.41436,-3.645465,4.048656,-0.081551,-0.25916,0.085674,30.96,66.1782613582787
4892,-8.405388,-3.650251,4.078567,-0.081551,-0.256411,0.08262,30.98,66.0073636550685
4902,-8.385648,-3.642474,4.109075,-0.080329,-0.249691,0.079565,30.98,65.7987585885795
4912,-8.379665,-3.647858,4.131807,-0.080634,-0.24007,0.076816,31,65.6724931392094
4922,-8.365308,-3.643671,4.184449,-0.081551,-0.2277,0.072082,31,65.3638197396866
4932,-8.337791,-3.637091,4.211368,-0.083383,-0.191964,0.063072,30.93,65.1575949257932
4942,-8.327621,-3.646064,4.229314,-0.089644,-0.170431,0.057574,30.96,65.0507866242312
4952,-8.303694,-3.652046,4.248456,-0.092546,-0.147066,0.052993,30.96,64.9044490333055
4962,-8.292327,-3.64068,4.25384,-0.096211,-0.121104,0.048869,30.97,64.8401486532109
4972,-8.295916,-3.646662,4.267001,-0.101404,-0.095753,0.043677,30.97,64.7858497121489
4982,-8.282157,-3.637689,4.269393,-0.107207,-0.068111,0.039706,30.96,64.7339080905979
4992,-8.279764,-3.635894,4.273581,-0.111636,-0.039401,0.03543,30.96,64.7050902897265
5002,-8.296515,-3.645465,4.269992,-0.116675,-0.010996,0.03146,30.96,64.7705354340798
5012,-8.282157,-3.65384,4.256832,-0.121104,0.015577,0.028253,30.96,64.81487907336
5022,-8.290532,-3.649055,4.243073,-0.125686,0.041233,0.025351,30.97,64.9001775406107
5032,-8.3013,-3.650251,4.229912,-0.130572,0.065515,0.02138,30.97,64.9935302211795
5042,-8.315059,-3.661019,4.215555,-0.135459,0.087812,0.018479,30.99,65.1089036613864
5052,-8.324032,-3.651447,4.197011,-0.138819,0.107665,0.01573,30.99,65.2156796690024
5062,-8.329416,-3.664608,4.167699,-0.143248,0.124311,0.012675,30.95,65.3925524373025
5072,-8.35155,-3.665804,4.15394,-0.14615,0.138361,0.010996,30.95,65.5134525013517
5082,-8.375478,-3.675375,4.115057,-0.148898,0.148898,0.007636,30.96,65.7765908700666
5092,-8.402995,-3.677171,4.04746,-0.151647,0.155923,0.006872,30.96,66.189678843688
5102,-8.437093,-3.68734,4.025326,-0.152869,0.160047,0.002443,30.94,66.3864262929527
5112,-8.442476,-3.686144,4.000201,-0.154549,0.156076,0.000916,30.98,66.5279404293324
5122,-8.463414,-3.689733,3.978068,-0.154091,0.149357,0.000764,30.98,66.6904653054586
5132,-8.466404,-3.696911,3.940979,-0.153785,0.140804,0.000458,30.95,66.8974396734116
5142,-8.478369,-3.692724,3.921836,-0.153022,0.128434,-0.000153,30.95,67.0186746836349
5152,-8.492725,-3.705884,3.893721,-0.151495,0.112399,-0.000305,30.98,67.2072201200967
5162,-8.500502,-3.708277,3.885346,-0.149204,0.095295,0.001985,30.98,67.2690631409667
5172,-8.499306,-3.722634,3.864408,-0.146608,0.076511,0.004123,30.93,67.389397922226
5182,-8.499905,-3.705286,3.853043,-0.144317,0.056352,0.004734,30.93,67.4352292574463
5192,-8.502296,-3.715455,3.836293,-0.141873,0.034514,0.00733,30.98,67.5372016283504
5202,-8.499905,-3.724428,3.836293,-0.138666,0.012828,0.010537,30.98,67.5402682475246
5212,-8.487941,-3.729214,3.826722,-0.134543,-0.008552,0.014966,30.94,67.5710828559819
5222,-8.491529,-3.720241,3.823133,-0.131489,-0.029932,0.018937,30.94,67.589341320362
5232,-8.484351,-3.727419,3.820141,-0.127213,-0.051313,0.023366,30.96,67.5971121954449
5242,-8.46461,-3.726821,3.8339,-0.121715,-0.071929,0.028711,30.96,67.4843772793591
5252,-8.462217,-3.714259,3.838686,-0.118202,-0.091172,0.033445,31,67.4431763989264
5262,-8.44427,-3.724428,3.842873,-0.113316,-0.10965,0.03879,31,67.393904555648
5272,-8.419745,-3.716054,3.870391,-0.108887,-0.126144,0.044746,30.98,67.1911649463004
5282,-8.413164,-3.720839,3.888935,-0.099418,-0.15348,0.055894,30.98,67.0840144358961
5292,-8.386844,-3.720241,3.901497,-0.094226,-0.165086,0.062156,30.95,66.9631280442724
5302,-8.369495,-3.709473,3.914658,-0.088728,-0.173638,0.067959,30.96,66.8478880496434
5312,-8.360522,-3.720241,3.922434,-0.083841,-0.180663,0.072235,30.96,66.798075798376
5322,-8.35155,-3.699304,3.937988,-0.078954,-0.185092,0.07758,30.97,66.6778397630846
5332,-8.343773,-3.705286,3.961318,-0.073762,-0.186925,0.084147,30.97,66.5438206806235
5342,-8.330013,-3.701697,3.979862,-0.07025,-0.18723,0.089797,30.97,66.4136513558363
5352,-8.313264,-3.686741,4.0008,-0.066584,-0.185398,0.094226,30.97,66.2536634566422
5362,-8.318049,-3.690929,4.027121,-0.063988,-0.180816,0.098197,30.94,66.1290273038942
5372,-8.309077,-3.684947,4.044468,-0.060628,-0.175013,0.102778,30.94,66.0129028661923
5382,-8.313264,-3.682554,4.065406,-0.059865,-0.167835,0.106901,30.94,65.9095401954335
5394,-8.319845,-3.686144,4.079165,-0.059101,-0.15852,0.109956,30.94,65.8548944314939
5402,-8.318647,-3.680759,4.08395,-0.06017,-0.148593,0.112552,30.97,65.8221059339332
5412,-8.326425,-3.67059,4.109075,-0.061545,-0.138056,0.11469,30.97,65.6976389540549
5422,-8.344969,-3.662215,4.121637,-0.064141,-0.12706,0.115912,30.95,65.6641236565087
5432,-8.345568,-3.656233,4.133601,-0.066584,-0.115148,0.116523,30.95,65.5973237678155
5442,-8.362316,-3.64726,4.158726,-0.070708,-0.103847,0.115301,30.93,65.494317521927
5452,-8.399406,-3.652644,4.150351,-0.075747,-0.081856,0.109345,30.93,65.6231856534985
5462,-8.410173,-3.641278,4.158726,-0.087659,-0.07254,0.105069,30.93,65.5923344433885
5472,-8.417951,-3.636492,4.159324,-0.093462,-0.063072,0.099418,30.95,65.60155507679
5482,-8.4347,-3.628716,4.163511,-0.101556,-0.053603,0.092852,30.95,65.6087652631981
5492,-8.441879,-3.635894,4.16411,-0.108276,-0.04444,0.084452,30.96,65.6277842027963
5502,-8.458031,-3.642474,4.167699,-0.11469,-0.037415,0.076205,30.96,65.6500412513267
5512,-8.46102,-3.637091,4.154539,-0.121257,-0.02978,0.067501,30.99,65.7194778171022
5522,-8.480165,-3.633501,4.150351,-0.12706,-0.022144,0.057269,30.99,65.7787751180533
5532,-8.479566,-3.628716,4.156931,-0.132405,-0.015424,0.0478,31.02,65.7391347203396
5542,-8.467003,-3.642474,4.146762,-0.137292,-0.009927,0.036805,31.02,65.7774342836903
5552,-8.472386,-3.636492,4.138985,-0.141415,-0.003971,0.026267,30.93,65.8236534258821
5562,-8.474181,-3.633501,4.138985,-0.144775,0.002749,0.016799,30.93,65.8247456172156
5572,-8.465208,-3.628117,4.131208,-0.147066,0.00901,0.006567,30.97,65.8409156127664
5582,-8.450253,-3.637689,4.112664,-0.14844,0.015272,-0.00168,30.97,65.9139305122084
5592,-8.427522,-3.643072,4.105485,-0.149357,0.020922,-0.010537,30.96,65.9076990214991
5602,-8.429914,-3.648456,4.095316,-0.148593,0.026573,-0.018173,30.96,65.9706617492023
5612,-8.423334,-3.650251,4.063612,-0.147677,0.03207,-0.024587,30.92,66.1235443322436
5622,-8.390432,-3.649653,4.052843,-0.145539,0.037568,-0.03207,30.92,66.1094314433318
5632,-8.385049,-3.658028,4.051647,-0.13943,0.048564,-0.035277,30.93,66.1120052036872
5642,-8.353942,-3.662813,4.036094,-0.135459,0.05284,-0.035583,30.95,66.1318562824198
5652,-8.346764,-3.671188,4.041477,-0.131947,0.05681,-0.035583,30.95,66.0961286689184
5662,-8.34796,-3.664608,4.016353,-0.127976,0.060628,-0.033598,30.97,66.2246116871582
5672,-8.343773,-3.671786,4.004389,-0.124769,0.062919,-0.03146,30.97,66.2854236707846
5682,-8.324032,-3.681956,3.993023,-0.120188,0.064904,-0.02642,30.96,66.3130553312438
5692,-8.325827,-3.677171,3.978068,-0.116981,0.065057,-0.02138,30.96,66.3913730768982
5702,-8.322237,-3.680161,3.967898,-0.114385,0.06521,-0.014508,30.94,66.4403615616709
5712,-8.322835,-3.681956,3.953541,-0.11133,0.064446,-0.008094,30.94,66.5192909857575
5722,-8.329416,-3.693322,3.94397,-0.110108,0.061392,-0.001069,31,66.594369218454
5732,-8.339585,-3.694518,3.929613,-0.107818,0.057421,0.008552,31,66.6927943019461
5742,-8.350951,-3.691527,3.918247,-0.107512,0.051771,0.01741,30.97,66.7739426130526
5752,-8.365907,-3.692126,3.906881,-0.106596,0.044899,0.025351,30.97,66.8657601705965
5762,-8.363514,-3.704688,3.897908,-0.106749,0.035277,0.033598,30.93,66.9198532397289
5772,-8.38804,-3.702295,3.889533,-0.106901,0.025351,0.043524,30.93,67.0125805541087
5782,-8.397013,-3.706482,3.891926,-0.107054,0.013439,0.050702,30.94,67.0221385001602
5792,-8.435298,-3.707081,3.879962,-0.10736,-0.000305,0.058032,30.94,67.1641905424569
5802,-8.44427,-3.709473,3.866203,-0.108734,-0.031612,0.072235,30.98,67.2572431401807
5812,-8.473583,-3.712464,3.872185,-0.110108,-0.048258,0.076969,30.94,67.2876662885934
5822,-8.478967,-3.692724,3.869792,-0.110108,-0.066126,0.081398,30.94,67.2937328443679
5832,-8.480165,-3.70409,3.882355,-0.110261,-0.083536,0.085827,30.96,67.2399986014474
5842,-8.490931,-3.697509,3.879364,-0.111483,-0.102473,0.089034,30.96,67.2717147149822
5852,-8.499306,-3.702295,3.876971,-0.109956,-0.119424,0.090408,30.95,67.3054247850168
5862,-8.504689,-3.711866,3.897908,-0.10965,-0.13607,0.09163,30.95,67.2147049606599
5872,-8.493923,-3.705884,3.913461,-0.109498,-0.152564,0.09163,30.95,67.1059906135697
5882,-8.489137,-3.705286,3.92064,-0.108276,-0.166613,0.091172,30.95,67.0580662223823
5892,-8.497512,-3.703491,3.939184,-0.106749,-0.1799,0.08995,31,66.9763498121287
5902,-8.492128,-3.713661,3.946362,-0.104,-0.190895,0.087965,31,66.9368514911345
5912,-8.484351,-3.707679,3.973282,-0.101862,-0.20128,0.08491,30.93,66.7747919474947
5922,-8.472985,-3.704688,3.986442,-0.100182,-0.209069,0.081245,30.93,66.6799288273294
5932,-8.459227,-3.695116,4.004987,-0.097128,-0.214719,0.077274,30.91,66.545902464929
5942,-8.449057,-3.687938,4.021138,-0.093004,-0.216704,0.073609,30.91,66.4338512298894
5952,-8.438888,-3.692724,4.031906,-0.090103,-0.218232,0.067959,30.97,66.3607497094546
5962,-8.402995,-3.681956,4.089932,-0.085979,-0.216246,0.063225,30.97,65.9724528297517
5972,-8.386245,-3.683152,4.108477,-0.084299,-0.204182,0.051618,30.94,65.8412475847522
5982,-8.36112,-3.690929,4.125825,-0.079412,-0.194713,0.0478,30.99,65.7043631215222
5992,-8.355738,-3.671188,4.143771,-0.077427,-0.181885,0.043677,30.99,65.5805670394054
6002,-8.343773,-3.675974,4.171288,-0.076664,-0.167072,0.03879,30.98,65.416069701309
6012,-8.328219,-3.669394,4.192824,-0.075747,-0.149967,0.035736,30.98,65.2639170689284
6022,-8.31147,-3.669992,4.204189,-0.076205,-0.131183,0.032529,30.99,65.1687203607961
6032,-8.288139,-3.659822,4.216154,-0.077733,-0.110719,0.031001,30.99,65.0451814314057
6042,-8.287541,-3.672983,4.22094,-0.079718,-0.088575,0.028711,30.94,65.0318681107812
6052,-8.277372,-3.656233,4.229912,-0.082161,-0.065821,0.027642,30.94,64.9462880463744
6062,-8.274979,-3.642474,4.225725,-0.086132,-0.042302,0.027794,30.99,64.9492449971988
6072,-8.267202,-3.650251,4.232903,-0.088575,-0.018173,0.028253,30.99,64.9022368946461
6082,-8.268997,-3.646064,4.232305,-0.092699,0.004734,0.029322,30.95,64.9052293407593
6092,-8.27139,-3.658626,4.222734,-0.097738,0.027642,0.031154,30.95,64.9726661063473
6102,-8.279166,-3.644867,4.217948,-0.102625,0.049633,0.033292,30.93,65.0013471636386
6112,-8.292327,-3.646662,4.200002,-0.107512,0.069486,0.036652,30.93,65.1256421158843
6132,-8.315059,-3.643671,4.142574,-0.116675,0.104611,0.040317,30.93,65.4721579008407
6142,-8.35454,-3.665206,4.118048,-0.121104,0.118661,0.044288,30.94,65.7063507219632
6152,-8.372486,-3.644867,4.098905,-0.129351,0.138972,0.045357,30.95,65.8257732499797
6162,-8.382656,-3.652046,4.070789,-0.131641,0.145386,0.046426,30.95,66.0011866358844
6172,-8.39821,-3.659224,4.049254,-0.133779,0.148898,0.046426,30.93,66.1535762985195
6182,-8.410771,-3.662813,4.02413,-0.135918,0.148898,0.045968,30.93,66.3149502083919
6192,-8.440681,-3.662813,4.004987,-0.137292,0.145844,0.04444,30.98,66.4779564651196
6202,-8.456235,-3.674777,3.981059,-0.13775,0.141568,0.042913,30.98,66.6464595415279
6212,-8.468798,-3.662215,3.957131,-0.138056,0.133474,0.041081,30.95,66.7866037021694
6222,-8.474181,-3.673581,3.937988,-0.137292,0.122784,0.038026,30.95,66.9082657590394
6232,-8.495118,-3.681956,3.92064,-0.136528,0.11133,0.035888,30.94,67.049579817635
6242,-8.516654,-3.681358,3.900301,-0.135612,0.096211,0.032376,30.94,67.199544481644
6252,-8.504689,-3.678965,3.879962,-0.133932,0.080329,0.028863,30.93,67.2801101128476
6262,-8.517252,-3.684947,3.875176,-0.131641,0.06185,0.026114,30.93,67.3358588917975
6272,-8.517851,-3.678965,3.852444,-0.12874,0.042302,0.022907,30.97,67.4514833172786
6282,-8.514859,-3.683152,3.842873,-0.125533,0.02138,0.020006,30.97,67.4995442519637
6292,-8.513663,-3.684947,3.837489,-0.12202,0.000764,0.017715,30.95,67.5270919492088
6302,-8.502895,-3.681358,3.829114,-0.118813,-0.020311,0.01573,30.95,67.546618147222
6312,-8.484949,-3.680161,3.832704,-0.115606,-0.041844,0.01405,30.95,67.4905969304876
6322,-8.477771,-3.690331,3.833302,-0.106749,-0.082314,0.014508,30.95,67.4818891998647
6332,-8.461619,-3.689135,3.842873,-0.101862,-0.102014,0.015424,30.95,67.3976814823046
6342,-8.452048,-3.686144,3.861418,-0.098502,-0.12034,0.016799,30.95,67.2775967362371
6352,-8.434101,-3.684947,3.85065,-0.094073,-0.137597,0.01909,30.95,67.2970871696183
6362,-8.437692,-3.678366,3.872783,-0.090408,-0.153174,0.023366,30.96,67.181396883406
6372,-8.417951,-3.685545,3.893721,-0.087506,-0.166461,0.028253,30.96,67.0367245661855
6382,-8.395219,-3.679563,3.90389,-0.083994,-0.178067,0.031918,30.97,66.9307750671206
6392,-8.386245,-3.681956,3.926622,-0.081092,-0.186772,0.039095,30.97,66.7941774686042
6402,-8.370691,-3.677768,3.944568,-0.078343,-0.194102,0.044746,30.92,66.6631645031745
6412,-8.367702,-3.669992,3.966702,-0.076511,-0.198837,0.050396,30.92,66.5329069448538
6422,-8.368299,-3.665206,3.987639,-0.074831,-0.202349,0.057269,30.96,66.4193708162707
6432,-8.350951,-3.658626,4.006782,-0.074067,-0.202502,0.063377,30.96,66.2757839228752
6442,-8.344371,-3.667001,4.030112,-0.072693,-0.200975,0.069791,30.95,66.1468353077164
6452,-8.353942,-3.659224,4.04746,-0.072235,-0.198226,0.075289,30.95,66.0688246552733
6462,-8.349156,-3.66401,4.067799,-0.072235,-0.193186,0.079871,30.96,65.9564081363917
6472,-8.338987,-3.658028,4.082156,-0.073915,-0.186467,0.082925,30.96,65.8537228750198
6482,-8.347363,-3.668795,4.136592,-0.075747,-0.178067,0.086132,30.96,65.5975569688385
6492,-8.346764,-3.655036,4.140181,-0.079107,-0.156992,0.089339,30.96,65.5644753398098
6502,-8.337791,-3.672385,4.158726,-0.082314,-0.144775,0.088728,30.95,65.4649492634629
6512,-8.348558,-3.659822,4.173681,-0.085521,-0.131183,0.087048,30.95,65.3985981709827
6522,-8.35155,-3.655635,4.189234,-0.089339,-0.115759,0.08491,30.95,65.3203632971106
6532,-8.358727,-3.662813,4.191627,-0.093157,-0.099724,0.081092,30.94,65.3304784433121
6542,-8.366504,-3.655036,4.199404,-0.097128,-0.08323,0.076511,30.94,65.2997223326876
6552,-8.357532,-3.652046,4.210171,-0.101404,-0.066126,0.071319,30.94,65.2214816012186
6562,-8.368897,-3.658626,4.208975,-0.10568,-0.047953,0.064904,30.94,65.2588261020355
6572,-8.35813,-3.663411,4.20718,-0.109956,-0.029627,0.058338,30.94,65.2491631147006
6582,-8.371889,-3.669992,4.201797,-0.115454,-0.012828,0.050549,30.94,65.3133507658967
6592,-8.389835,-3.67418,4.202394,-0.118813,0.004734,0.043371,30.97,65.3532912087876
6602,-8.38804,-3.67059,4.202394,-0.123089,0.021991,0.035277,30.97,65.3459767753331
6612,-8.385049,-3.672385,4.189833,-0.126144,0.037415,0.026878,30.94,65.4061526151713
6622,-8.395817,-3.68375,4.173083,-0.128587,0.052229,0.019853,30.94,65.5269266631611
6632,-8.393424,-3.669992,4.158128,-0.131641,0.065668,0.012217,30.93,65.5862524345199
6642,-8.404191,-3.680161,4.135994,-0.133321,0.077427,0.006109,30.93,65.7338032791382
6652,-8.4012,-3.671188,4.103093,-0.135001,0.087201,0,30.98,65.8900401130836
6662,-8.407781,-3.681358,4.076173,-0.135307,0.100793,-0.010385,30.98,66.0537746095902
6672,-8.412566,-3.689135,4.057031,-0.134696,0.104916,-0.013592,30.93,66.1709693206415
6682,-8.413763,-3.692126,4.030112,-0.13439,0.106138,-0.01573,30.93,66.3168906389962
6692,-8.408379,-3.701099,4.018147,-0.13271,0.105374,-0.018173,30.93,66.3764745954875
6702,-8.408977,-3.691527,3.996612,-0.130725,0.102778,-0.018631,30.96,66.4817703067073
6712,-8.418548,-3.696313,3.981657,-0.128282,0.097738,-0.017257,30.96,66.584574503427
6722,-8.432905,-3.69392,3.946961,-0.125227,0.091172,-0.014203,30.91,66.7943924663626
6732,-8.426325,-3.696313,3.936791,-0.122784,0.082925,-0.011759,30.91,66.8364770307525
6742,-8.416754,-3.707081,3.924827,-0.119424,0.072846,-0.008552,30.97,66.889520966331
6752,-8.428718,-3.696911,3.895515,-0.11637,0.060628,-0.003971,30.97,67.0595150630853
6762,-8.423334,-3.702295,3.896712,-0.11301,0.048258,0.000916,30.95,67.0470139389374
6772,-8.415558,-3.70409,3.879962,-0.109498,0.03375,0.006567,30.95,67.1212465888516
6782,-8.422735,-3.692126,3.879364,-0.106596,0.020006,0.012828,30.93,67.128336187147
6792,-8.42812,-3.7005,3.879364,-0.104153,0.00504,0.020464,30.93,67.1468302904409
6802,-8.421539,-3.685545,3.869194,-0.101251,-0.009774,0.027336,30.95,67.1738246906467
6812,-8.407781,-3.691527,3.870391,-0.098044,-0.025198,0.034361,30.95,67.1447317877097
6822,-8.422735,-3.69392,3.872185,-0.095448,-0.039706,0.042302,30.95,67.1679220868102
6832,-8.407183,-3.690331,3.879364,-0.093004,-0.054825,0.055741,30.95,67.0949057145775
6842,-8.413164,-3.695715,3.89073,-0.089797,-0.081703,0.06185,30.94,67.0518663924483
6852,-8.396414,-3.684947,3.893123,-0.087354,-0.093768,0.067653,30.97,66.9950906308331
6862,-8.407183,-3.68375,3.906881,-0.086132,-0.104458,0.074373,30.97,66.9434137773514
6872,-8.407183,-3.677768,3.923631,-0.084758,-0.114385,0.078954,30.98,66.8495388886314
6882,-8.400601,-3.677171,3.935595,-0.083383,-0.122478,0.083383,30.98,66.7722257726109
6892,-8.39821,-3.689733,3.945167,-0.083536,-0.129656,0.086896,30.96,66.7282156929101
6902,-8.39462,-3.682554,3.959523,-0.083078,-0.135459,0.090561,30.96,66.6385492781061
6912,-8.389236,-3.67059,3.969095,-0.08323,-0.140346,0.093004,31.01,66.5659469198044
6922,-8.38804,-3.671786,3.991228,-0.083383,-0.142484,0.094379,31.01,66.4480548191051
6932,-8.398808,-3.675375,4.001996,-0.083078,-0.143553,0.095448,30.9,66.4173866780294
6942,-8.395219,-3.661617,4.013362,-0.083078,-0.143859,0.095753,30.9,66.3375364698872
6952,-8.394022,-3.665206,4.020541,-0.083383,-0.143095,0.094531,30.93,66.3006509457542
6962,-8.383254,-3.664608,4.036692,-0.083536,-0.140499,0.093615,30.93,66.1926429410802
6972,-8.394022,-3.671786,4.042674,-0.084299,-0.137597,0.091477,31,66.1907573268668
6982,-8.392825,-3.656831,4.055236,-0.085674,-0.133169,0.088575,31,66.1086359701323
6992,-8.397013,-3.662215,4.071388,-0.08659,-0.127976,0.087354,30.99,66.0380979093378
7002,-8.396414,-3.662813,4.094718,-0.086896,-0.121868,0.083383,30.99,65.9156431264003
7012,-8.390432,-3.649653,4.091727,-0.089492,-0.109803,0.075442,30.97,65.9061989855277
7022,-8.394022,-3.650849,4.091129,-0.090408,-0.103084,0.071319,30.95,65.9181114305711
7032,-8.402995,-3.65384,4.099504,-0.092088,-0.09728,0.067653,30.95,65.8964120743514
7042,-8.408379,-3.650251,4.111467,-0.09331,-0.089492,0.061545,31,65.8423043956071
7052,-8.402995,-3.647858,4.101298,-0.093615,-0.082314,0.05849,31,65.8815066487527
7062,-8.416155,-3.64726,4.115655,-0.0956,-0.075442,0.053756,30.93,65.834389577623
7072,-8.41436,-3.649653,4.121637,-0.096822,-0.067959,0.048869,30.93,65.801669662248
7082,-8.413164,-3.651447,4.118646,-0.097738,-0.061239,0.044288,30.97,65.8163225225513
7092,-8.416754,-3.644269,4.116253,-0.099724,-0.054367,0.039706,30.97,65.8297886837944
7102,-8.407183,-3.65384,4.108477,-0.101098,-0.047037,0.036499,30.94,65.8586418350105
7112,-8.412566,-3.641876,4.118646,-0.102931,-0.040775,0.031154,30.94,65.8061507989844
7122,-8.408977,-3.656233,4.125226,-0.103847,-0.034056,0.02642,30.92,65.7776042871397
7132,-8.405987,-3.649653,4.118646,-0.104916,-0.026725,0.021991,30.92,65.7992733471169
7142,-8.4012,-3.651447,4.12044,-0.106138,-0.020006,0.017257,30.93,65.7813439427838
7152,-8.404191,-3.645465,4.114459,-0.107665,-0.012828,0.013286,30.93,65.8133097053729
7162,-8.39821,-3.652046,4.119244,-0.108734,-0.005651,0.009621,30.93,65.7817082621387
7172,-8.406584,-3.656233,4.115057,-0.109956,0.000611,0.006261,30.93,65.825348585863
7182,-8.399406,-3.665804,4.101896,-0.111177,0.01573,0.000153,30.95,65.8874197837511
7192,-8.391629,-3.656233,4.100101,-0.115759,0.022602,-0.003054,30.96,65.8712143525293
7202,-8.390432,-3.668795,4.094718,-0.116675,0.028558,-0.006414,30.96,65.9084460908027
7212,-8.376076,-3.667001,4.089932,-0.118661,0.036041,-0.00901,31,65.901049436553
7222,-8.385648,-3.669394,4.080959,-0.120799,0.042608,-0.011148,31,65.9705871321495
7232,-8.38146,-3.672385,4.071388,-0.12202,0.0478,-0.012217,30.97,66.0144526129544
7242,-8.385049,-3.676572,4.069593,-0.123853,0.053756,-0.013286,30.97,66.0353794652789
7252,-8.385049,-3.674777,4.067201,-0.126144,0.058643,-0.014813,30.95,66.0462068622293
7262,-8.366504,-3.685545,4.044468,-0.127518,0.063683,-0.015119,30.95,66.1358474397189
7272,-8.375478,-3.686144,4.028915,-0.128893,0.066737,-0.015577,30.91,66.236954713902
7282,-8.359326,-3.691527,4.015755,-0.130267,0.06918,-0.013592,30.91,66.276928155304
7292,-8.350951,-3.689733,4.00379,-0.131031,0.069791,-0.012065,31,66.3204943208361
7302,-8.365907,-3.69392,3.978666,-0.131794,0.068875,-0.009621,31,66.4881494903444
7312,-8.374879,-3.698706,3.961916,-0.131489,0.066432,-0.005651,30.93,66.5996016212494
7322,-8.373085,-3.707679,3.947559,-0.131336,0.064599,0,30.93,66.6798455743841
7332,-8.383853,-3.705286,3.936193,-0.130114,0.058643,0.004123,30.94,66.7599835611313
7342,-8.383853,-3.708277,3.896114,-0.128893,0.050702,0.009163,30.94,66.9745600246282
7352,-8.386844,-3.708875,3.87398,-0.126449,0.042455,0.019853,30.95,67.0985048160646
7362,-8.405987,-3.716652,3.876373,-0.12202,0.018021,0.027642,30.96,67.1320072131223
7372,-8.400003,-3.708277,3.855436,-0.118966,0.003665,0.034667,30.96,67.2231922831398
7382,-8.426923,-3.716652,3.841079,-0.115606,-0.012065,0.042302,30.96,67.3614581768666
7395,-8.422735,-3.708277,3.844069,-0.111483,-0.028405,0.050091,30.96,67.3296623871204
7402,-8.437093,-3.712464,3.848257,-0.107665,-0.04612,0.057269,30.94,67.3402783269161
7412,-8.444869,-3.712464,3.844069,-0.103236,-0.064141,0.064752,30.94,67.3781571942474
7422,-8.453244,-3.709473,3.850052,-0.098197,-0.083536,0.070708,30.93,67.3607664213955
7432,-8.452645,-3.693322,3.853641,-0.094073,-0.103084,0.076969,30.93,67.3262788023213
7442,-8.455637,-3.70409,3.863212,-0.089034,-0.121409,0.08323,30.94,67.2912909274418
7452,-8.462815,-3.695715,3.866203,-0.083536,-0.138819,0.088728,30.94,67.2826150913875
7462,-8.46102,-3.690331,3.881158,-0.079565,-0.154854,0.09331,30.95,67.1952894399455
7472,-8.459825,-3.70409,3.896712,-0.074984,-0.170584,0.096975,30.95,67.1231119897597
7482,-8.461619,-3.698706,3.926024,-0.070402,-0.184176,0.099571,30.95,66.9677684040589
7492,-8.458031,-3.692724,3.949952,-0.066126,-0.195324,0.10064,30.95,66.8293971127332
7502,-8.455637,-3.68375,3.969693,-0.063683,-0.204182,0.101556,30.96,66.7128587794051
7512,-8.440681,-3.681358,3.991827,-0.060018,-0.210596,0.101404,30.96,66.5636963062045
7522,-8.42453,-3.675974,4.045665,-0.057727,-0.214108,0.100182,31,66.2433956672632
7532,-8.416155,-3.678366,4.070191,-0.053909,-0.21197,0.095906,30.93,66.099937812744
7542,-8.400601,-3.671188,4.104887,-0.054672,-0.206778,0.092241,30.93,65.8794208742766
7552,-8.391031,-3.66042,4.11745,-0.054978,-0.199753,0.086743,30.96,65.7834654506656
7562,-8.369495,-3.661019,4.153342,-0.055589,-0.188146,0.082314,30.96,65.5509117189525
7572,-8.368897,-3.663411,4.168297,-0.057727,-0.174402,0.076969,30.95,65.4742032536763
7582,-8.349755,-3.662813,4.183851,-0.060934,-0.15852,0.070555,30.95,65.351248769091
7592,-8.341978,-3.647858,4.212564,-0.064294,-0.13943,0.064904,30.93,65.1709432631091
7602,-8.338388,-3.651447,4.224528,-0.068417,-0.119119,0.059254,30.93,65.1045146455311
7612,-8.316854,-3.655036,4.228117,-0.073457,-0.096975,0.053451,30.95,65.041903278387
7622,-8.312068,-3.648456,4.244269,-0.078954,-0.073762,0.048258,30.95,64.9412190966893
7632,-8.304291,-3.655036,4.241877,-0.085063,-0.050549,0.042608,30.95,64.9427794982459
7642,-8.303095,-3.646662,4.245465,-0.091935,-0.026573,0.037263,30.95,64.9133599062367
7652,-8.30489,-3.651447,4.232305,-0.098197,-0.001374,0.032223,30.94,64.9902336866006
7662,-8.303694,-3.64068,4.238287,-0.104611,0.021991,0.028863,30.94,64.9460727128875
7672,-8.303694,-3.645465,4.221537,-0.110567,0.043677,0.025045,30.95,65.0376492776679
7682,-8.305488,-3.648456,4.21077,-0.116217,0.064904,0.02138,30.95,65.1004494630294
7692,-8.344371,-3.648456,4.17069,-0.123242,0.083689,0.018631,30.94,65.394165648226
7702,-8.349755,-3.641278,4.146762,-0.12874,0.115301,0.013897,30.94,65.5236202383589
7712,-8.360522,-3.661617,4.128217,-0.137139,0.126602,0.012675,30.9,65.6628399091838
7722,-8.375478,-3.654438,4.094718,-0.140194,0.13607,0.010385,30.98,65.863016752289
7732,-8.39821,-3.650849,4.075575,-0.142942,0.141568,0.007636,30.98,66.0082407467697
7742,-8.404789,-3.661019,4.03729,-0.145539,0.144011,0.00733,30.92,66.2317710097496
7752,-8.437093,-3.662215,4.017549,-0.145539,0.142637,0.005651,30.92,66.4041628126238
7762,-8.442476,-3.662813,3.989433,-0.145386,0.139125,0.004734,31,66.5631763383153
7772,-8.444869,-3.66042,3.962514,-0.144928,0.132252,0.004429,31,66.7072207489677
7782,-8.455637,-3.66042,3.952943,-0.143706,0.122631,0.003665,30.97,66.7797862690752
7792,-8.463414,-3.672983,3.916452,-0.140652,0.11133,0.003207,30.97,66.9988321728372
7802,-8.484351,-3.67418,3.902694,-0.138208,0.09728,0.003512,30.99,67.1150510201211
7812,-8.486146,-3.678965,3.879962,-0.135001,0.080481,0.002749,30.99,67.2425683563451
7822,-8.484949,-3.683152,3.862614,-0.129656,0.063225,0.003054,30.96,67.3352643620817
7832,-8.490333,-3.681358,3.852444,-0.125075,0.04383,0.003818,30.96,67.3982121059805
7842,-8.492725,-3.678366,3.836891,-0.120188,0.02474,0.005498,30.98,67.4825340678012
7852,-8.498708,-3.680161,3.837489,-0.11469,0.004887,0.006261,30.98,67.4929551929748
7862,-8.484949,-3.681358,3.845864,-0.108581,-0.015424,0.007789,30.99,67.4221003496278
7872,-8.481958,-3.690929,3.835695,-0.102473,-0.03543,0.013134,30.99,67.4781766912361
7882,-8.47119,-3.698107,3.844069,-0.092241,-0.074526,0.015882,30.94,67.4185507458667
7892,-8.455637,-3.68734,3.854837,-0.087812,-0.092699,0.018631,30.94,67.3207253451415
7902,-8.449057,-3.69392,3.878167,-0.082772,-0.108887,0.022602,30.94,67.1899319314234
7912,-8.429317,-3.693322,3.875774,-0.078954,-0.124311,0.026114,30.94,67.1618297637532
7922,-8.425727,-3.7005,3.890131,-0.075442,-0.137903,0.030391,30.94,67.0850511590496
7932,-8.400601,-3.692126,3.904488,-0.07254,-0.149662,0.034819,30.98,66.9500760368664
7942,-8.393424,-3.682554,3.932006,-0.070402,-0.158978,0.039401,30.98,66.7811745499479
7952,-8.385049,-3.685545,3.942175,-0.068264,-0.166766,0.043524,30.93,66.7128307165244
7962,-8.365907,-3.685545,3.967898,-0.065973,-0.171195,0.0478,30.93,66.5371663878225
7972,-8.368897,-3.686741,3.978666,-0.066432,-0.174097,0.051924,30.97,66.48777998678
7982,-8.359326,-3.684947,3.997808,-0.067806,-0.174707,0.056352,30.97,66.3651929549858
7992,-8.347363,-3.683152,4.034897,-0.06857,-0.172722,0.06017,30.95,66.1431781410843
8002,-8.339585,-3.667599,4.043272,-0.070097,-0.169362,0.063377,30.95,66.0680231909149
8012,-8.340781,-3.682554,4.05404,-0.072082,-0.163865,0.067042,30.98,66.028103961077
8022,-8.337193,-3.681358,4.076173,-0.074678,-0.157145,0.069944,30.98,65.9032619233822
8032,-8.339585,-3.676572,4.112664,-0.077733,-0.147524,0.072388,30.95,65.7129840528242
8042,-8.346764,-3.672385,4.108477,-0.080787,-0.139125,0.074526,30.95,65.7463509029066
8052,-8.352147,-3.669992,4.115655,-0.088117,-0.117744,0.076511,30.91,65.7182081343696
8062,-8.348558,-3.678965,4.13061,-0.09163,-0.106596,0.076205,30.94,65.6409916426336
8072,-8.353344,-3.677171,4.128217,-0.094379,-0.094837,0.0759,30.94,65.6620877720006
8082,-8.365907,-3.672385,4.134798,-0.097738,-0.083536,0.074067,30.94,65.6503744999017
8092,-8.376674,-3.673581,4.134798,-0.100945,-0.072235,0.073304,30.94,65.674709160014
8102,-8.374879,-3.669992,4.137789,-0.103389,-0.061697,0.071624,30.96,65.651895583867
8112,-8.385049,-3.677768,4.134199,-0.105985,-0.051924,0.068264,30.96,65.6997910466481
8122,-8.386245,-3.677171,4.135994,-0.107054,-0.041997,0.065057,30.98,65.6924698080987
8132,-8.39462,-3.678965,4.128816,-0.108581,-0.032987,0.062156,30.98,65.7494412788283
8142,-8.39821,-3.678965,4.129414,-0.110261,-0.02474,0.058643,30.96,65.7540299124656
8152,-8.406584,-3.68375,4.125825,-0.109345,-0.016341,0.055589,30.96,65.7950859684006
8162,-8.396414,-3.675974,4.112065,-0.109345,-0.008094,0.051313,30.96,65.8375860886453
8172,-8.402397,-3.672385,4.115057,-0.109192,-0.001527,0.047953,30.96,65.8314585073393
8182,-8.407183,-3.671188,4.103691,-0.109192,0.004887,0.043066,30.95,65.8996967724351
8192,-8.408977,-3.675375,4.095316,-0.107818,0.011148,0.040317,30.95,65.9510134557303
8202,-8.405987,-3.662813,4.08754,-0.106291,0.015882,0.035888,30.94,65.9734809436259
8212,-8.407183,-3.675375,4.091727,-0.104458,0.020617,0.032529,30.94,65.965884713982
8222,-8.395817,-3.679563,4.076771,-0.101251,0.030391,0.024129,30.96,66.0235815736837
8232,-8.422735,-3.676572,4.061816,-0.099418,0.034056,0.020769,30.98,66.1558715038539
8242,-8.41137,-3.678965,4.060022,-0.098502,0.036194,0.016188,30.98,66.14341878645
8252,-8.397013,-3.684947,4.049852,-0.09728,0.03879,0.012981,30.95,66.1717300113771
8262,-8.410173,-3.680161,4.055236,-0.0956,0.041233,0.010385,30.95,66.1669825828787
8272,-8.408379,-3.68375,4.037888,-0.094837,0.043219,0.007636,30.96,66.2571723430878
8282,-8.389835,-3.676572,4.028317,-0.094073,0.04444,0.005498,30.96,66.2615371447009
8292,-8.406584,-3.676572,4.032505,-0.093615,0.045204,0.002443,30.98,66.2749309755559
8302,-8.402995,-3.678965,4.023531,-0.093921,0.045815,0.001069,30.98,66.3165650303434
8312,-8.403594,-3.680161,4.006183,-0.093615,0.044746,-0.000305,30.98,66.409857840034
8322,-8.400601,-3.675375,4.004389,-0.094531,0.042761,-0.00168,30.98,66.4085911754808
8332,-8.395817,-3.680759,3.993621,-0.094837,0.040928,-0.001527,30.94,66.4600385781552
8342,-8.402995,-3.684947,3.975675,-0.095295,0.038485,-0.000153,30.94,66.5731991286345
8352,-8.400601,-3.679563,3.975675,-0.097433,0.034667,0.000458,30.97,66.5632770640689
8362,-8.397013,-3.67418,3.9673,-0.099266,0.02978,0.001833,30.97,66.594933472546
8372,-8.407781,-3.675974,3.956532,-0.099724,0.024129,0.004123,30.96,66.6757005578025
8382,-8.420941,-3.679563,3.943372,-0.101404,0.018631,0.007178,30.96,66.7755550633773
8392,-8.408977,-3.675375,3.936791,-0.103236,0.004123,0.01405,30.96,66.7816563509605
8402,-8.409575,-3.678366,3.929015,-0.105527,-0.00504,0.018479,30.94,66.8266154841193
8412,-8.397013,-3.672385,3.922434,-0.107207,-0.012981,0.022449,30.94,66.8299363608841
8422,-8.414959,-3.671786,3.914658,-0.107207,-0.022449,0.0281,30.99,66.9075776436765
8432,-8.415558,-3.667599,3.909872,-0.107512,-0.032987,0.033445,30.99,66.9303251132404
8442,-8.402397,-3.671786,3.910471,-0.107665,-0.043677,0.039248,30.93,66.9037624583711
8452,-8.416754,-3.668197,3.903292,-0.107512,-0.053603,0.043982,30.93,66.9680970296612
8462,-8.417951,-3.674777,3.902096,-0.106291,-0.064141,0.049938,30.95,66.9827899933007
8472,-8.411968,-3.66042,3.917051,-0.104916,-0.075136,0.0562,30.95,66.8785280675487
8482,-8.410173,-3.671188,3.914658,-0.103694,-0.085216,0.061087,30.98,66.8971584019216
8492,-8.414959,-3.665206,3.923033,-0.101251,-0.0956,0.065821,30.98,66.8574366715162
8502,-8.413164,-3.678366,3.934398,-0.099113,-0.105069,0.071166,30.97,66.8056537713679
8512,-8.419147,-3.669992,3.931407,-0.096822,-0.114232,0.075442,30.97,66.8262386674817
8522,-8.411968,-3.669992,3.942773,-0.094684,-0.121104,0.079565,30.97,66.7514495547459
8532,-8.408379,-3.671188,3.955336,-0.08995,-0.128434,0.082467,30.97,66.6788922071734
8542,-8.4012,-3.666403,3.974478,-0.08659,-0.134696,0.085063,30.95,66.558802378443
8552,-8.409575,-3.668197,3.984648,-0.083689,-0.139888,0.086437,30.95,66.5244822068364
8562,-8.410173,-3.675375,4.009772,-0.080481,-0.142026,0.086437,30.92,66.4004499848097
8572,-8.410771,-3.671786,4.02413,-0.074373,-0.145233,0.085521,30.98,66.3231874990712
8582,-8.412566,-3.661617,4.040281,-0.071929,-0.143553,0.08323,30.98,66.2331010662761
8592,-8.409575,-3.658626,4.055236,-0.070402,-0.142026,0.080176,30.95,66.1458335126075
8602,-8.412566,-3.671188,4.074379,-0.06857,-0.137903,0.076969,30.95,66.063849387612
8612,-8.413763,-3.664608,4.089932,-0.067653,-0.1321,0.072693,30.97,65.9792390851667
8622,-8.408379,-3.664608,4.105485,-0.06689,-0.124769,0.067042,30.97,65.8867864562286
8632,-8.402397,-3.652644,4.118048,-0.065973,-0.117133,0.062003,30.98,65.7974721559796
8642,-8.392226,-3.665206,4.125825,-0.06689,-0.10797,0.057421,30.98,65.7469378392197
8652,-8.399406,-3.659224,4.125825,-0.068875,-0.098044,0.049633,30.93,65.7567507472695
8662,-8.395817,-3.657429,4.147958,-0.069944,-0.087354,0.043677,30.93,65.6323589437619
8672,-8.397612,-3.661617,4.155136,-0.072235,-0.075136,0.037568,30.99,65.6029161935199
8682,-8.39462,-3.65384,4.152744,-0.075747,-0.062919,0.032376,30.99,65.6015620350617
8692,-8.390432,-3.658626,4.158128,-0.078343,-0.050396,0.026725,30.95,65.5690799683945
8702,-8.383853,-3.655036,4.156931,-0.081856,-0.038637,0.021075,30.95,65.5576857033329
8712,-8.385049,-3.661019,4.151547,-0.086437,-0.025045,0.016493,30.96,65.593869052004
8722,-8.374879,-3.67059,4.16411,-0.090255,-0.013439,0.011301,30.96,65.5157139528223
8732,-8.383254,-3.656233,4.148556,-0.094226,-0.001222,0.007178,30.94,65.6010175759967
8742,-8.375478,-3.666403,4.138387,-0.103236,0.020922,-0.000611,30.94,65.6466875181644
8752,-8.373683,-3.66401,4.128217,-0.10736,0.030543,-0.002902,30.94,65.6934836026984
8762,-8.376674,-3.675375,4.110869,-0.110872,0.039859,-0.004734,30.95,65.8009780595905
8772,-8.362316,-3.67418,4.110869,-0.114537,0.047953,-0.005956,30.95,65.7690259008779
8782,-8.373085,-3.671188,4.088736,-0.119424,0.0562,-0.006109,30.98,65.9048206741659
8792,-8.374281,-3.680759,4.086343,-0.122326,0.061697,-0.00733,30.98,65.9288526161314
8802,-8.376674,-3.686144,4.069593,-0.124922,0.067195,-0.00733,30.97,66.0265076298619
8812,-8.38445,-3.690331,4.061218,-0.127518,0.071471,-0.006567,30.97,66.0907168565183
8822,-8.38146,-3.69392,4.042076,-0.129503,0.074373,-0.006414,30.93,66.1878733092167
8832,-8.380861,-3.695116,4.033103,-0.130878,0.074831,-0.005192,30.93,66.2347192756307
8842,-8.385049,-3.690331,4.017549,-0.131947,0.075289,-0.004276,30.96,66.3206465164719
8852,-8.38804,-3.69392,3.988835,-0.131794,0.07422,-0.001833,30.96,66.4810094435794
8862,-8.407781,-3.695116,3.982853,-0.131794,0.072082,-0.000764,30.98,66.5547757346567
8872,-8.402397,-3.699304,3.969095,-0.1321,0.068111,0.001374,30.98,66.619692146594
8882,-8.406584,-3.695116,3.947559,-0.130572,0.062614,0.003971,30.95,66.7378870675623
8892,-8.422735,-3.698706,3.939184,-0.129503,0.055283,0.00672,30.95,66.8186425971206
8902,-8.420342,-3.701697,3.917649,-0.127213,0.047189,0.008552,30.94,66.9298659772306
8912,-8.423334,-3.705884,3.906283,-0.124311,0.027336,0.015119,30.94,66.9997330253132
8922,-8.435897,-3.693322,3.897908,-0.117592,0.01573,0.018173,30.99,67.0583560174306
8932,-8.426923,-3.701697,3.884149,-0.113926,0.002596,0.021838,30.91,67.1201722255626
8942,-8.429317,-3.696911,3.884149,-0.108734,-0.010385,0.025504,30.91,67.1207711015738
8952,-8.421539,-3.692126,3.883551,-0.104,-0.023518,0.030085,30.97,67.1037485090193
8962,-8.432307,-3.70409,3.876373,-0.099113,-0.038026,0.034208,30.97,67.1743855729911
8972,-8.423334,-3.697509,3.867998,-0.093768,-0.053451,0.039706,30.95,67.1945127955947
8982,-8.422735,-3.702295,3.87398,-0.089186,-0.068111,0.04383,30.95,67.1659254194554
8992,-8.416155,-3.69392,3.876971,-0.083383,-0.082314,0.049633,30.96,67.1291569661358
9002,-8.421539,-3.691527,3.884748,-0.077885,-0.096364,0.054825,30.96,67.0968821215681
9012,-8.42453,-3.689733,3.882355,-0.07254,-0.10965,0.060476,30.94,67.1140446138081
9022,-8.415558,-3.692126,3.902694,-0.067501,-0.122631,0.06521,30.94,66.9903196868778
9032,-8.419745,-3.686741,3.918845,-0.062308,-0.134696,0.069791,30.96,66.9088262468077
9042,-8.417352,-3.686741,3.932604,-0.058032,-0.14508,0.075747,30.96,66.8313480510119
9052,-8.413164,-3.686144,3.940979,-0.05452,-0.153327,0.080481,30.97,66.7780187928891
9062,-8.402397,-3.681956,3.958327,-0.050855,-0.160352,0.08491,30.97,66.6604956616117
9072,-8.398808,-3.677768,3.99063,-0.048106,-0.166308,0.089034,30.97,66.4792727557963
9082,-8.404191,-3.659224,4.009174,-0.046426,-0.169821,0.095448,30.97,66.3762117670309
9092,-8.392226,-3.665206,4.034897,-0.044899,-0.171042,0.097433,30.95,66.2216001198173
9102,-8.391031,-3.656831,4.066004,-0.045204,-0.169362,0.097738,30.95,66.0485043031437
9112,-8.380861,-3.654438,4.092923,-0.046578,-0.164017,0.098044,30.95,65.883926223811
9122,-8.370691,-3.649653,4.1007,-0.048411,-0.157603,0.096669,30.96,65.8170235674501
9132,-8.379665,-3.659224,4.131807,-0.051618,-0.149051,0.095142,30.96,65.6831787690659
9142,-8.380861,-3.654438,4.135994,-0.055589,-0.139583,0.092699,30.94,65.6594703811726
9152,-8.37129,-3.635894,4.150351,-0.060018,-0.127365,0.088575,30.94,65.5466187592737
9162,-8.361719,-3.647858,4.173681,-0.066432,-0.114232,0.08323,30.92,65.4158705064297
9172,-8.364112,-3.643671,4.188038,-0.071013,-0.099418,0.078038,30.92,65.3425912934588
9182,-8.379066,-3.645465,4.204788,-0.077733,-0.083994,0.071166,30.94,65.2901651737289
9192,-8.37129,-3.633501,4.206582,-0.084452,-0.06689,0.066126,30.94,65.2525092013485
9202,-8.367702,-3.645465,4.212564,-0.090255,-0.050244,0.058643,30.99,65.2250779899186
9212,-8.368897,-3.643671,4.205984,-0.098349,-0.033139,0.051007,30.99,65.260044031449
9222,-8.376076,-3.645465,4.21077,-0.104916,-0.01573,0.043524,30.94,65.2526827878575
9232,-8.376076,-3.648456,4.203591,-0.111025,0.001985,0.036041,30.94,65.2926744584335
9242,-8.370093,-3.650849,4.173681,-0.117286,0.018784,0.028405,30.97,65.4369322313174
9252,-8.389236,-3.653242,4.160521,-0.122173,0.034208,0.022297,30.97,65.5490053947159
9262,-8.385049,-3.64726,4.151547,-0.13042,0.062308,0.008094,30.94,65.5809103354869
9272,-8.383853,-3.650849,4.127619,-0.134238,0.073457,0.001985,30.96,65.7061293810828
9282,-8.392226,-3.65384,4.108477,-0.136528,0.083994,-0.003207,30.96,65.8266071802643
9292,-8.397612,-3.665804,4.091727,-0.139125,0.091324,-0.008552,30.98,65.9365795953107
9302,-8.39462,-3.669992,4.068995,-0.138819,0.096975,-0.012675,30.98,66.052729619781
9312,-8.407781,-3.668795,4.051049,-0.139735,0.100487,-0.016188,30.95,66.1732978819259
9322,-8.415558,-3.672385,4.022335,-0.138666,0.101862,-0.01909,30.95,66.3432036181298
9332,-8.416754,-3.67418,4.000201,-0.136987,0.10064,-0.020769,30.95,66.4633300777422
9342,-8.422735,-3.671188,3.987639,-0.134696,0.097433,-0.022755,30.95,66.5390018376887
9352,-8.43111,-3.678965,3.960122,-0.131794,0.091477,-0.02306,30.95,66.7079780281152
9362,-8.421539,-3.681358,3.946961,-0.128282,0.083383,-0.022755,30.95,66.7595243433934
9372,-8.435897,-3.681358,3.926024,-0.124617,0.073915,-0.021686,30.97,66.8994070740442
9382,-8.440681,-3.688536,3.912863,-0.119424,0.062614,-0.019548,30.97,66.9850121063968
9396,-8.449656,-3.690331,3.876373,-0.110108,0.036652,-0.013592,30.99,67.1974324975799
9402,-8.449656,-3.690331,3.876373,-0.110108,0.036652,-0.013592,30.99,67.1974324975799
9412,-8.447861,-3.686741,3.88056,-0.105069,0.022449,-0.010079,30.96,67.1684776613947
9422,-8.42812,-3.698706,3.870989,-0.100487,0.006872,-0.005803,30.96,67.1895087242834
9432,-8.430512,-3.698107,3.867399,-0.095753,-0.024893,0.004276,30.98,67.2128344770629
9442,-8.441879,-3.68734,3.875774,-0.086285,-0.040775,0.008858,30.96,67.18210351878
9452,-8.429914,-3.690929,3.876373,-0.081398,-0.055894,0.014813,30.96,67.1577419910395
9462,-8.431709,-3.694518,3.882953,-0.077885,-0.070402,0.021228,30.92,67.1298325997924
9472,-8.419745,-3.698706,3.897908,-0.074678,-0.084452,0.026267,30.92,67.0301163904659
9482,-8.416155,-3.693322,3.899105,-0.072235,-0.096364,0.032376,30.97,67.0115822716811
9492,-8.405987,-3.689733,3.917649,-0.071929,-0.107512,0.037415,30.97,66.889478478404
9502,-8.4012,-3.692126,3.933203,-0.069944,-0.117133,0.043982,30.95,66.7996769201561
9512,-8.392825,-3.684349,3.951746,-0.068875,-0.125533,0.048869,30.95,66.677431676756
9522,-8.391031,-3.690331,3.9673,-0.069791,-0.130725,0.053298,30.96,66.5972351721926
9532,-8.383853,-3.68734,3.97747,-0.07025,-0.135307,0.057879,30.96,66.5259606083771
9542,-8.379665,-3.684947,3.991228,-0.071624,-0.138208,0.062308,30.94,66.4425949938843
9552,-8.365308,-3.691527,4.012166,-0.072998,-0.138514,0.066432,30.94,66.3084154267759
9562,-8.373683,-3.692126,4.021737,-0.074526,-0.137903,0.06857,30.99,66.2763848582133
9572,-8.378469,-3.675974,4.042076,-0.077274,-0.134543,0.070708,30.99,66.1648347804049
9582,-8.368897,-3.684349,4.058227,-0.079871,-0.131183,0.072998,30.93,66.0677409921004
9592,-8.350353,-3.677171,4.071986,-0.08323,-0.125838,0.074526,30.93,65.9494160562901
9602,-8.356933,-3.683152,4.092325,-0.086132,-0.120188,0.074526,30.93,65.8627554442116
9612,-8.365907,-3.690331,4.086343,-0.09163,-0.104458,0.075289,30.97,65.9199705277285
9622,-8.372486,-3.678366,4.096512,-0.093615,-0.097128,0.073609,30.97,65.8696862999314
9632,-8.373683,-3.682554,4.104289,-0.096669,-0.08827,0.072998,30.92,65.8356244637934
9642,-8.372486,-3.67418,4.106682,-0.098197,-0.080329,0.071777,30.92,65.8126979792882
9652,-8.379066,-3.672385,4.095316,-0.099266,-0.071929,0.07025,30.94,65.8843899388835
9662,-8.376674,-3.676572,4.095914,-0.100182,-0.063835,0.069028,30.94,65.8800814933607
9672,-8.388638,-3.669394,4.089932,-0.10064,-0.05681,0.066737,30.96,65.9301356052698
9682,-8.391629,-3.676572,4.098307,-0.10064,-0.049786,0.064904,30.96,65.8995640223171
9692,-8.38146,-3.669992,4.086343,-0.100029,-0.043219,0.062614,30.96,65.9340966363569
9702,-8.395817,-3.676572,4.076173,-0.099266,-0.037415,0.059559,30.96,66.0239168023703
9712,-8.392226,-3.674777,4.073781,-0.098349,-0.032376,0.05849,30.95,66.0270960086337
9722,-8.395817,-3.680759,4.078567,-0.096059,-0.027184,0.0562,30.95,66.0153247982737
9732,-8.408977,-3.677768,4.074379,-0.095295,-0.023976,0.054062,30.96,66.062334034972
9742,-8.404191,-3.675974,4.068397,-0.092546,-0.020006,0.051618,30.96,66.081728028762
9752,-8.415558,-3.671188,4.074379,-0.08995,-0.016646,0.04948,30.98,66.0701957148926
9762,-8.408977,-3.676572,4.058825,-0.087812,-0.014813,0.047189,30.98,66.1423921108594
9772,-8.417951,-3.672385,4.070789,-0.085979,-0.011759,0.043219,30.94,66.0950923840661
9782,-8.419745,-3.672983,4.058825,-0.081856,-0.006414,0.040317,30.96,66.1618483755766
9792,-8.417352,-3.663411,4.063013,-0.080634,-0.003665,0.037568,30.96,66.1261051164626
9802,-8.413763,-3.67418,4.063013,-0.080023,-0.000764,0.035583,30.98,66.1284463379782
9812,-8.417951,-3.667001,4.070789,-0.078802,0.001222,0.032529,30.98,66.0901189305383
9822,-8.407781,-3.675974,4.071986,-0.078343,0.003971,0.029322,30.95,66.0706147582572
9832,-8.408379,-3.66401,4.060022,-0.078649,0.00672,0.026267,30.95,66.1232622273868
9842,-8.423933,-3.675974,4.06062,-0.079565,0.01069,0.023213,30.97,66.1640887822651
9852,-8.408977,-3.669394,4.064209,-0.081092,0.013286,0.018784,30.97,66.1076418128964
9862,-8.397013,-3.667001,4.068995,-0.082772,0.015882,0.016035,31,66.055038251014
9872,-8.412566,-3.669992,4.066004,-0.085216,0.019242,0.012675,31,66.1064317889847
9882,-8.410771,-3.663411,4.04746,-0.08827,0.022907,0.011148,30.98,66.1934179676021
9892,-8.412566,-3.658626,4.05404,-0.091477,0.025656,0.007025,30.98,66.1584187745069
9902,-8.405388,-3.675974,4.049852,-0.094837,0.027794,0.00504,30.96,66.1811257762937
9912,-8.405987,-3.676572,4.03729,-0.097891,0.030238,0.002443,30.96,66.2486337442912
9922,-8.404191,-3.66401,4.036692,-0.102931,0.031918,0.000153,30.97,66.2363919500827
9932,-8.41137,-3.667599,4.025924,-0.106596,0.03207,-0.002596,30.97,66.3112092072738
9942,-8.400003,-3.675375,4.003192,-0.109956,0.03207,-0.003971,30.95,66.4136176623265
9952,-8.410173,-3.663411,4.0008,-0.116675,0.028405,-0.004581,30.95,66.4365535986206
9962,-8.405388,-3.667599,3.98405,-0.119882,0.025656,-0.004887,30.96,66.5183191299805
9972,-8.416155,-3.662813,3.971487,-0.122631,0.02138,-0.003665,30.96,66.6024995100008
9982,-8.420941,-3.664608,3.952345,-0.124769,0.01573,-0.002596,30.96,66.7147923036549
9992,-8.408379,-3.667001,3.948756,-0.125075,0.009774,-0.001222,30.97,66.7097544786437
10002,-8.415558,-3.672385,3.932006,-0.125991,0.001527,0.000916,30.97,66.8178134433585
10012,-8.416155,-3.675375,3.92722,-0.125227,-0.007025,0.003971,30.95,66.8469878616118
10022,-8.430512,-3.673581,3.914658,-0.124769,-0.017257,0.00733,30.95,66.9412457697382
10032,-8.416155,-3.676572,3.903292,-0.122326,-0.027031,0.013286,30.99,66.9743875001599
10042,-8.416155,-3.681358,3.892524,-0.119882,-0.038485,0.018173,30.99,67.0356066068216
10052,-8.41137,-3.680161,3.891328,-0.116523,-0.049633,0.023213,30.93,67.031030853694
10062,-8.403594,-3.677171,3.897908,-0.112705,-0.061545,0.02978,30.93,66.9775333205243
10072,-8.415558,-3.679563,3.892524,-0.109039,-0.073915,0.036194,30.98,67.032769140852
10082,-8.41137,-3.674777,3.899703,-0.103847,-0.085979,0.042761,30.98,66.9818956609182
10092,-8.422735,-3.677768,3.908078,-0.097738,-0.098197,0.048258,30.93,66.9637230939926
10102,-8.405987,-3.682554,3.912863,-0.091935,-0.108734,0.054672,30.93,66.9082598716069
10112,-8.408379,-3.681358,3.939184,-0.086132,-0.118202,0.060476,30.93,66.7732250147742
10122,-8.400601,-3.679563,3.944568,-0.080023,-0.135612,0.071471,30.93,66.7270746688345
10132,-8.399406,-3.684947,3.959523,-0.068722,-0.142179,0.076969,30.93,66.6507027059513
10142,-8.395219,-3.67418,3.976273,-0.063835,-0.146913,0.08094,30.96,66.5439580025426
10152,-8.396414,-3.680759,3.995416,-0.059101,-0.149662,0.084605,30.96,66.4518614887666
10162,-8.4012,-3.685545,4.016353,-0.055436,-0.151342,0.087048,30.98,66.3564644060026
10172,-8.389236,-3.673581,4.045067,-0.051924,-0.150731,0.088423,30.98,66.1697615888859
10182,-8.382656,-3.680161,4.054638,-0.048717,-0.147371,0.08995,30.96,66.1118384141877
10192,-8.382656,-3.677171,4.073781,-0.047342,-0.144164,0.08827,30.96,66.0089632618372
10202,-8.383254,-3.683152,4.099504,-0.047189,-0.137292,0.086437,30.96,65.8816037258542
10212,-8.379066,-3.67418,4.109673,-0.046731,-0.129503,0.084452,30.96,65.8112152585192
10222,-8.374879,-3.671188,4.130012,-0.048106,-0.119882,0.080634,30.92,65.6934856594858
10232,-8.378469,-3.674777,4.155735,-0.050244,-0.107665,0.077122,30.92,65.5709158582164
10242,-8.369495,-3.669394,4.161717,-0.053451,-0.095906,0.071166,30.98,65.5153440361684
10252,-8.370093,-3.675974,4.168896,-0.058185,-0.082161,0.06521,30.98,65.4856300779624
10262,-8.379665,-3.665804,4.182654,-0.063072,-0.067042,0.060018,30.94,65.4253896421894
10272,-8.365907,-3.668795,4.187439,-0.067959,-0.05116,0.053298,30.94,65.373542046999
10282,-8.379066,-3.672385,4.184449,-0.074831,-0.035888,0.045815,30.95,65.4210450899943
10292,-8.377273,-3.674777,4.192225,-0.08094,-0.020311,0.031612,30.95,65.3791671237228
10302,-8.382656,-3.67418,4.176672,-0.093921,0.009774,0.025504,30.96,65.4708188175087
10312,-8.385648,-3.67418,4.167699,-0.100487,0.024129,0.018479,30.99,65.5237951138782
10322,-8.392226,-3.67418,4.161717,-0.10736,0.03711,0.011912,30.99,65.5690113091237
10332,-8.405987,-3.678366,4.143771,-0.113774,0.04948,0.004887,30.96,65.6956196513571
10342,-8.401799,-3.679563,4.130012,-0.118966,0.059865,0.000305,30.96,65.7591749636386
10352,-8.396414,-3.677171,4.11386,-0.1237,0.067959,-0.004123,31,65.8293673072276
10362,-8.407781,-3.689733,4.091129,-0.127824,0.074984,-0.008705,31,65.9836424395109
10372,-8.4012,-3.677768,4.078567,-0.131489,0.080329,-0.011759,30.94,66.0239810484725
10382,-8.410771,-3.686144,4.060022,-0.13439,0.082467,-0.014966,30.94,66.1487975956412
10392,-8.423334,-3.691527,4.031906,-0.135612,0.084299,-0.016188,30.96,66.3270540336553
10402,-8.419745,-3.694518,4.016353,-0.136987,0.083841,-0.018021,30.96,66.4036124565497
10412,-8.416754,-3.684947,3.99721,-0.137597,0.080329,-0.017257,30.96,66.4888587428676
10422,-8.41436,-3.69392,3.978068,-0.136987,0.075136,-0.017562,30.96,66.5925121458912
10432,-8.425727,-3.692126,3.958925,-0.135001,0.069944,-0.016035,30.94,66.7150390611932
10442,-8.42453,-3.702295,3.940979,-0.132863,0.062614,-0.013744,30.94,66.8161532236366
10452,-8.433504,-3.689733,3.925426,-0.129809,0.053145,-0.010537,30.96,66.9051632053849
10462,-8.410771,-3.699902,3.908078,-0.126755,0.042761,-0.006872,30.96,66.9590685734133
10472,-8.425129,-3.692126,3.902096,-0.119119,0.0197,0.001374,30.94,67.0131226303855
10482,-8.420342,-3.698107,3.886542,-0.114079,0.007178,0.006414,30.97,67.0908550184198
10492,-8.417352,-3.688536,3.884748,-0.108887,-0.007025,0.011301,30.97,67.08562853065
10502,-8.423334,-3.684947,3.879962,-0.103236,-0.0197,0.016341,30.93,67.1199709005054
10512,-8.420941,-3.693322,3.881757,-0.097738,-0.033292,0.022755,30.93,67.1130850638644
10522,-8.411968,-3.688536,3.881158,-0.092088,-0.046884,0.029627,30.96,67.0935969033349
10532,-8.407781,-3.69392,3.886542,-0.08659,-0.059865,0.035583,30.96,67.0613667947174
10542,-8.404191,-3.683152,3.885944,-0.081398,-0.071166,0.040775,30.95,67.0474701105234
10552,-8.402995,-3.681956,3.906881,-0.0759,-0.082467,0.048717,30.95,66.9331613943489
10562,-8.400003,-3.692126,3.911069,-0.070555,-0.092393,0.054672,30.96,66.9140596240775
10572,-8.392226,-3.676572,3.917051,-0.067042,-0.102014,0.058948,30.96,66.8522692623713
10582,-8.397013,-3.677768,3.929015,-0.062308,-0.110414,0.064294,30.95,66.8000581045282
10592,-8.401799,-3.683152,3.951746,-0.058643,-0.117897,0.068722,30.95,66.6950025301836
10602,-8.390432,-3.673581,3.961318,-0.055741,-0.122937,0.072998,30.95,66.6121554151492
10612,-8.38445,-3.677171,3.962514,-0.052993,-0.126907,0.07758,30.95,66.5966444318938
10622,-8.394022,-3.668795,3.994219,-0.052229,-0.130267,0.079871,30.96,66.4421448099838
10632,-8.389835,-3.664608,4.021737,-0.051313,-0.131489,0.082925,30.96,66.2849880956461
10642,-8.396414,-3.66042,4.040281,-0.050396,-0.130878,0.083689,30.94,66.1978428613649
10652,-8.396414,-3.656233,4.048656,-0.053756,-0.128434,0.085063,31,66.1501336614959
10662,-8.38804,-3.665206,4.063013,-0.054825,-0.124617,0.084147,31,66.0655549966137
10672,-8.392825,-3.665804,4.080361,-0.057421,-0.119882,0.083078,30.93,65.9856643193637
10682,-8.376674,-3.649055,4.086343,-0.060781,-0.114385,0.081703,30.93,65.9042973285107
10692,-8.395817,-3.648456,4.104887,-0.065363,-0.108123,0.079412,30.95,65.8479906929209
10702,-8.401799,-3.65384,4.115057,-0.06857,-0.101251,0.076358,30.95,65.8128678603966
10712,-8.383853,-3.649653,4.12044,-0.073609,-0.09331,0.072235,30.98,65.7423879206582
10722,-8.4012,-3.64726,4.119244,-0.07926,-0.085521,0.069028,30.98,65.7836626837239
10732,-8.397013,-3.656831,4.132405,-0.084147,-0.076664,0.066279,30.93,65.7151641934768
10742,-8.396414,-3.639483,4.130012,-0.088728,-0.067653,0.060934,30.93,65.7100976535044
10752,-8.399406,-3.654438,4.138387,-0.093615,-0.058032,0.057421,30.95,65.6869873727732
10762,-8.405987,-3.64726,4.139583,-0.098197,-0.048717,0.052993,30.95,65.6882266918623
10772,-8.4012,-3.656233,4.127021,-0.103542,-0.039248,0.04948,30.95,65.7515882091531
10782,-8.391629,-3.64726,4.124628,-0.107512,-0.030543,0.045509,30.95,65.7350761072786
10792,-8.406584,-3.655036,4.131807,-0.111177,-0.022449,0.040317,30.98,65.7371590670084
10802,-8.395817,-3.650251,4.116851,-0.114232,-0.01405,0.036194,30.98,65.7873507731402
10812,-8.402397,-3.677768,4.109673,-0.118355,-0.006109,0.0281,30.93,65.8644954518614
10822,-8.39821,-3.669992,4.091129,-0.122784,0.009621,0.024282,30.95,65.9448740254853
10832,-8.396414,-3.672983,4.091727,-0.124311,0.01573,0.020617,30.95,65.9407156723589
10842,-8.413164,-3.665206,4.094718,-0.124769,0.021075,0.016646,30.96,65.9535938585064
10852,-8.4012,-3.67418,4.076173,-0.124769,0.025962,0.012828,30.96,66.033133709739
10862,-8.402397,-3.672385,4.071986,-0.124158,0.030696,0.009927,30.95,66.0558583879
10872,-8.401799,-3.678965,4.057629,-0.122631,0.034056,0.005651,30.95,66.1356624864118
10882,-8.398808,-3.689733,4.043272,-0.121104,0.036346,0.003665,30.99,66.2143683294604
10892,-8.406584,-3.681358,4.041477,-0.118813,0.038485,0.000916,30.99,66.2324112074645
10902,-8.413763,-3.683152,4.022335,-0.117744,0.038332,-0.002443,30.97,66.349319376193
10912,-8.413164,-3.686741,4.015156,-0.11469,0.037415,-0.004581,30.97,66.3889476570088
10922,-8.413763,-3.681358,3.997808,-0.111941,0.036499,-0.006872,30.96,66.4761855078801
10932,-8.416155,-3.68375,3.988835,-0.109345,0.034056,-0.007789,30.96,66.530444046566
10942,-8.410173,-3.690331,3.992425,-0.10736,0.03146,-0.008399,30.95,66.5051385068229
10952,-8.42812,-3.689135,3.984648,-0.103694,0.027031,-0.00901,30.95,66.5822532904859
10962,-8.422735,-3.695116,3.969693,-0.100335,0.022144,-0.008247,30.93,66.6549875668238
10972,-8.41137,-3.689733,3.954738,-0.098197,0.016341,-0.009163,30.93,66.7051177662264
10982,-8.42453,-3.692126,3.946362,-0.094684,0.010996,-0.007941,30.93,66.7786171547431
10992,-8.408379,-3.69392,3.947559,-0.090713,-0.002596,-0.004581,31.01,66.7405178139613
11002,-8.410771,-3.69392,3.947559,-0.08827,-0.011148,-0.000611,31.01,66.745473723423
11012,-8.420941,-3.690929,3.942175,-0.086896,-0.017868,0.001833,30.97,66.792146878178
11022,-8.409575,-3.686741,3.934398,-0.08659,-0.025198,0.006261,30.97,66.8058144138533
11032,-8.403594,-3.704688,3.946362,-0.084605,-0.034208,0.009621,30.96,66.7467255128183
11042,-8.407781,-3.698107,3.95055,-0.084758,-0.042608,0.014203,30.96,66.7273453427648
11052,-8.398808,-3.68734,3.951746,-0.085063,-0.050396,0.019242,30.95,66.692604700262
11062,-8.407183,-3.68375,3.947559,-0.084299,-0.058032,0.02474,30.95,66.7287850477339
11072,-8.398808,-3.679563,3.961318,-0.085674,-0.064446,0.029474,30.95,66.6350897660006
11082,-8.397612,-3.68734,3.959523,-0.086132,-0.070555,0.03543,30.95,66.649154682397
11092,-8.374281,-3.68734,3.961916,-0.087201,-0.0759,0.040623,31,66.5878869190299
11102,-8.397013,-3.689135,3.972086,-0.087812,-0.081398,0.045968,31,66.5834295029459
11112,-8.377871,-3.679563,3.982853,-0.089186,-0.085521,0.051771,30.95,66.4779321207458
11122,-8.382656,-3.68734,3.975077,-0.090103,-0.089034,0.05681,30.95,66.5360529367365
11132,-8.394022,-3.674777,3.994817,-0.092088,-0.091935,0.061087,30.96,66.4444948961806
11142,-8.385648,-3.678366,4.006782,-0.093004,-0.09499,0.064446,30.96,66.3673520562062
11152,-8.380263,-3.678965,4.012764,-0.094073,-0.096211,0.068111,30.94,66.3251508237295
11162,-8.391629,-3.669394,4.018147,-0.095448,-0.096364,0.075747,30.94,66.312020987801
11172,-8.391629,-3.681358,4.02413,-0.095753,-0.095448,0.078954,30.95,66.2916945962908
11182,-8.382057,-3.673581,4.033103,-0.095906,-0.094226,0.07926,30.97,66.2172393671105
11192,-8.388638,-3.677768,4.034299,-0.095906,-0.092088,0.080176,30.97,66.2287694224586
11202,-8.393424,-3.669394,4.048058,-0.095142,-0.089644,0.081092,30.96,66.1590981454486
11212,-8.385049,-3.675974,4.05404,-0.094837,-0.086743,0.081551,30.96,66.1161472844914
11222,-8.395817,-3.676572,4.051049,-0.094379,-0.084452,0.080634,30.96,66.1551721514506
11232,-8.388638,-3.672983,4.055834,-0.092088,-0.080329,0.079565,30.96,66.1115972328581
11242,-8.386844,-3.672385,4.055834,-0.091019,-0.076053,0.078343,30.95,66.1072337243354
11252,-8.385049,-3.678965,4.061218,-0.089492,-0.071624,0.076511,30.95,66.081387561223
11262,-8.390432,-3.665206,4.074977,-0.087354,-0.06689,0.073609,30.94,66.0081216135257
11272,-8.397612,-3.669992,4.07737,-0.085979,-0.062461,0.071471,30.94,66.0153652254497
11282,-8.402995,-3.666403,4.063612,-0.083078,-0.058338,0.069486,30.95,66.0953049528563
11292,-8.394022,-3.672385,4.07737,-0.08094,-0.053756,0.065363,30.95,66.0099527105967
11302,-8.395219,-3.666403,4.080361,-0.079565,-0.049022,0.061545,30.93,65.9913227584368
11312,-8.399406,-3.662215,4.080959,-0.077274,-0.043982,0.058796,30.93,65.9932284646872
11322,-8.401799,-3.671188,4.077968,-0.0759,-0.039401,0.0562,30.97,66.0222618598057
11332,-8.410173,-3.665206,4.085745,-0.075595,-0.034972,0.049022,30.97,65.9939691275524
11342,-8.406584,-3.662215,4.086941,-0.073762,-0.024893,0.045051,31.01,65.9773201286907
11352,-8.405388,-3.667599,4.079762,-0.073762,-0.019853,0.041844,30.93,66.0172032440209
11362,-8.407183,-3.663411,4.079165,-0.073915,-0.015882,0.039095,30.93,66.0202507320758
11372,-8.404789,-3.669992,4.085146,-0.074831,-0.011148,0.034972,30.99,65.9900773131305
11382,-8.415558,-3.666403,4.080361,-0.076664,-0.00733,0.031154,30.99,66.0345857296999
11392,-8.393424,-3.665206,4.074379,-0.07926,-0.003054,0.027947,30.95,66.0176166913001
11402,-8.408977,-3.661019,4.080361,-0.080329,0.001527,0.02474,30.95,66.0156129970788
11412,-8.411968,-3.659224,4.074977,-0.083841,0.005651,0.021838,30.96,66.0483929549414
11422,-8.410771,-3.669394,4.076173,-0.087201,0.009316,0.01909,30.96,66.0490230032383
11432,-8.415558,-3.668795,4.069593,-0.090866,0.013134,0.016188,30.96,66.0929415913728
11442,-8.410771,-3.663411,4.064209,-0.094684,0.016035,0.013592,30.96,66.1059153142156
11452,-8.422735,-3.668795,4.067799,-0.099266,0.018326,0.01069,30.91,66.1174992894265
11462,-8.411968,-3.673581,4.059424,-0.104153,0.020311,0.007483,30.91,66.1428278627238
11472,-8.417951,-3.655635,4.05404,-0.10797,0.022449,0.005651,30.96,66.1670672986897
11482,-8.41436,-3.66401,4.038486,-0.112552,0.023366,0.001833,30.96,66.2484762056074
11492,-8.419745,-3.67418,4.032505,-0.116217,0.023518,0.000153,30.96,66.3004429664643
11502,-8.42812,-3.665804,4.013362,-0.120646,0.023213,-0.004276,30.96,66.4105342332016
11512,-8.416155,-3.677171,4.002594,-0.127518,0.019853,-0.00504,30.94,66.4522634959436
11522,-8.416155,-3.675974,3.994817,-0.130114,0.017715,-0.006872,30.94,66.4919549454166
11532,-8.422735,-3.686144,3.988237,-0.131794,0.014355,-0.007178,30.94,66.5494906820752
11542,-8.423933,-3.680161,3.976871,-0.134085,0.010079,-0.007789,30.95,66.6061805007433
11552,-8.41436,-3.677768,3.976273,-0.134085,0.004887,-0.007941,30.95,66.5872026661379
11562,-8.416155,-3.675375,3.963711,-0.13439,-0.000764,-0.006414,30.95,66.6547980653881
11572,-8.41436,-3.68375,3.948158,-0.133627,-0.007789,-0.006261,30.95,66.7405161852844
11582,-8.410771,-3.675375,3.95055,-0.132405,-0.014966,-0.003665,30.97,66.7128715848594
11592,-8.401799,-3.680759,3.940381,-0.130114,-0.022449,-0.001833,30.97,66.7527260161616
11602,-8.407183,-3.677768,3.924229,-0.127365,-0.030543,0.001374,30.98,66.8463822804746
11612,-8.39821,-3.685545,3.921836,-0.123547,-0.038943,0.005345,30.98,66.8475073861101
11622,-8.406584,-3.686144,3.925426,-0.11973,-0.048258,0.009774,30.96,66.8464105555728
11632,-8.391031,-3.685545,3.920042,-0.114537,-0.05681,0.01573,30.96,66.8421329608737
11642,-8.391031,-3.689733,3.912265,-0.109192,-0.066126,0.020464,30.96,66.8870490918522
11652,-8.390432,-3.686741,3.919443,-0.104,-0.076053,0.026267,30.96,66.8451464002731
11662,-8.388638,-3.689733,3.927818,-0.096669,-0.084452,0.033903,30.98,66.7999060162735
11672,-8.380263,-3.686144,3.939782,-0.091019,-0.092546,0.039248,30.98,66.7160575069147
11682,-8.386844,-3.693322,3.939782,-0.079107,-0.107665,0.05284,30.98,66.7362988309527
11692,-8.375478,-3.680161,3.95055,-0.072388,-0.113926,0.059254,31.01,66.6437579741167
11702,-8.35454,-3.68734,3.966104,-0.067501,-0.118661,0.067348,31.01,66.5244650757674
11712,-8.374879,-3.679563,3.973282,-0.062919,-0.122784,0.074678,30.96,66.5220674845742
11722,-8.374281,-3.677171,3.999603,-0.058338,-0.125991,0.079718,30.96,66.3800475641659
11732,-8.376674,-3.678965,4.000201,-0.054214,-0.126907,0.086437,30.94,66.3835993853395
11742,-8.36471,-3.675375,4.024727,-0.050855,-0.12706,0.090713,30.94,66.2261321728446
11752,-8.370691,-3.683152,4.04746,-0.049175,-0.126296,0.094531,30.94,66.1268185242562
11762,-8.374281,-3.677768,4.06062,-0.048564,-0.122173,0.097128,30.94,66.0605124839973
11772,-8.365907,-3.667001,4.074379,-0.048258,-0.11805,0.09896,30.94,65.9605931160305
11782,-8.367702,-3.668795,4.092325,-0.048564,-0.111483,0.100029,30.94,65.8723061640811
11792,-8.373683,-3.678366,4.108477,-0.050244,-0.104,0.100029,30.96,65.8098472167389
11802,-8.376076,-3.674777,4.119842,-0.052993,-0.095142,0.098502,30.96,65.752388039451
11812,-8.383853,-3.667001,4.122834,-0.05681,-0.085368,0.095906,30.95,65.7462003041074
11822,-8.38804,-3.669394,4.144967,-0.062003,-0.074678,0.093004,30.95,65.6423863654922
11832,-8.386245,-3.680161,4.149154,-0.066584,-0.063225,0.087812,30.93,65.6269412816548
11842,-8.38804,-3.671188,4.161119,-0.072082,-0.051771,0.081703,30.93,65.560250684687
11852,-8.396414,-3.67059,4.162315,-0.078649,-0.025962,0.068722,30.92,65.5715579452235
11862,-8.397612,-3.671188,4.164708,-0.091477,-0.013592,0.060628,30.98,65.5623049434367
11872,-8.412566,-3.675375,4.172484,-0.098502,-0.000458,0.053145,30.98,65.5582317051413
11882,-8.413164,-3.664608,4.15394,-0.104305,0.011301,0.045357,30.98,65.6454156815202
11892,-8.422137,-3.67059,4.149753,-0.109803,0.021838,0.036652,30.98,65.6919756965313
11902,-8.419147,-3.683152,4.134798,-0.116064,0.031001,0.027642,30.95,65.7748212096399
11912,-8.420342,-3.676572,4.122834,-0.122173,0.040164,0.020617,30.95,65.833299776409
11922,-8.419147,-3.681358,4.101896,-0.126296,0.046578,0.011759,30.96,65.9439829602573
11932,-8.429914,-3.68734,4.091129,-0.130114,0.051771,0.004734,30.96,66.0283659065412
11942,-8.429914,-3.686144,4.075575,-0.133321,0.0562,-0.002138,30.98,66.108179688746
11952,-8.426325,-3.680161,4.057629,-0.136223,0.058796,-0.007636,30.98,66.1885954049565
11962,-8.440681,-3.682554,4.03729,-0.136987,0.058948,-0.012828,30.94,66.327095553884
11972,-8.438289,-3.680759,4.015755,-0.136987,0.057879,-0.016493,30.94,66.4329403291139
11982,-8.443673,-3.683152,3.998407,-0.136834,0.054367,-0.019548,30.93,66.5371025322607
11992,-8.426923,-3.671188,3.983452,-0.13607,0.050396,-0.021686,30.93,66.5697111954759
12002,-8.437093,-3.68375,3.964309,-0.134085,0.044288,-0.022755,30.96,66.7027155820077
12012,-8.430512,-3.686144,3.936791,-0.131641,0.036652,-0.022755,30.96,66.8359272549366
12022,-8.415558,-3.686741,3.924229,-0.127976,0.029474,-0.020159,30.95,66.8717967821998
12032,-8.418548,-3.681956,3.915854,-0.120493,0.01069,-0.017257,30.96,66.9178261971233
12042,-8.412566,-3.681358,3.918845,-0.115759,0.000458,-0.013134,30.96,66.8891660813749
12052,-8.406584,-3.676572,3.910471,-0.110872,-0.010843,-0.007941,30.96,66.9167277252602
12062,-8.411968,-3.681956,3.905685,-0.105527,-0.021838,-0.002596,30.96,66.9579706301222
12072,-8.392825,-3.689135,3.907479,-0.101098,-0.033445,0.003818,30.95,66.9155194962068
12082,-8.400601,-3.675974,3.907479,-0.096059,-0.043982,0.011454,30.95,66.9196557680793
12092,-8.397612,-3.68375,3.912265,-0.091477,-0.054367,0.01741,30.98,66.8952146754445
12102,-8.389835,-3.678366,3.921238,-0.085979,-0.064141,0.024435,30.98,66.8268105800647
12112,-8.385648,-3.672385,3.917051,-0.082161,-0.073304,0.031154,30.96,66.8348403176159
12122,-8.386245,-3.684947,3.931407,-0.078802,-0.082009,0.039095,30.96,66.7716232145809
12132,-8.383853,-3.678366,3.940381,-0.076664,-0.088881,0.046273,30.94,66.7132547757524
12142,-8.380263,-3.676572,3.955336,-0.072998,-0.094684,0.053909,30.94,66.6252012501868
12152,-8.376076,-3.661617,3.959523,-0.07025,-0.099113,0.060323,30.97,66.5806558921265
12162,-8.377273,-3.667599,3.975077,-0.069028,-0.103084,0.065668,30.97,66.5066259896868
12172,-8.373085,-3.681956,3.986442,-0.067959,-0.106138,0.069791,30.92,66.4512004130645
12182,-8.363514,-3.663411,4.001996,-0.067806,-0.107512,0.075289,30.92,66.3320142531633
12192,-8.373085,-3.671188,4.030112,-0.067959,-0.108123,0.078496,30.95,66.2117103355578
12202,-8.368299,-3.67059,4.044468,-0.069944,-0.105374,0.083841,30.95,66.1256994983156
12212,-8.379665,-3.661617,4.055236,-0.071471,-0.102473,0.084147,30.96,66.0850964978271
12222,-8.377273,-3.659822,4.067201,-0.074373,-0.099113,0.084299,30.96,66.0157072306966
12232,-8.387442,-3.65384,4.071388,-0.077427,-0.094379,0.083994,30.96,66.0099337114641
12242,-8.391629,-3.662813,4.075575,-0.080176,-0.089339,0.082467,30.94,66.0053222703343
12252,-8.385049,-3.655635,4.073781,-0.083536,-0.083536,0.080329,30.94,65.9939888270524
12262,-8.401799,-3.668795,4.086343,-0.087354,-0.07758,0.077885,30.96,65.9763587216821
12272,-8.41137,-3.665206,4.095914,-0.090255,-0.071471,0.073609,30.96,65.9435444058259
12282,-8.405987,-3.659224,4.096512,-0.094073,-0.065668,0.069944,31,65.923393857785
12292,-8.394022,-3.668197,4.092923,-0.097433,-0.059559,0.066126,31,65.9249131374963
12302,-8.399406,-3.67418,4.095914,-0.10064,-0.053145,0.062156,30.97,65.9263926864071
12312,-8.413763,-3.662813,4.100101,-0.104,-0.047189,0.057269,30.97,65.9246267674489
12322,-8.411968,-3.666403,4.091129,-0.106138,-0.04215,0.053145,30.95,65.970848312115
12332,-8.419745,-3.659224,4.086343,-0.108581,-0.036805,0.048258,30.95,66.0056762907537
12342,-8.417352,-3.658626,4.081557,-0.110872,-0.03207,0.044899,30.96,66.0249733512701
12352,-8.41436,-3.672385,4.08395,-0.112399,-0.028253,0.041386,30.96,66.0188797075228
12362,-8.415558,-3.675974,4.063013,-0.114079,-0.024587,0.038026,30.95,66.1339024348619
12372,-8.41436,-3.681358,4.060022,-0.113926,-0.018173,0.031918,30.95,66.1519535473415
12382,-8.412566,-3.669992,4.061218,-0.114385,-0.01573,0.029016,30.96,66.1314120293139
12392,-8.413164,-3.667599,4.04746,-0.114537,-0.013744,0.027184,30.96,66.2023334435492
12402,-8.413164,-3.672983,4.048656,-0.113468,-0.012828,0.02474,30.96,66.2010450181072
12412,-8.408977,-3.672983,4.045665,-0.113468,-0.012217,0.023824,30.93,66.2078341107345
12422,-8.39821,-3.689733,4.036094,-0.112246,-0.011454,0.022907,30.93,66.2506581093096
12432,-8.404789,-3.681956,4.039085,-0.110414,-0.010079,0.021533,30.96,66.2416875558293
12442,-8.404191,-3.68375,4.027121,-0.109498,-0.010232,0.020617,30.96,66.3046931158435
12452,-8.397612,-3.690331,4.025924,-0.107818,-0.009774,0.020617,30.93,66.3031942562496
12462,-8.405987,-3.690331,4.031906,-0.105985,-0.010385,0.0197,30.93,66.2895033090194
12472,-8.395219,-3.681956,4.031906,-0.104,-0.010232,0.019395,30.96,66.2590764822001
12482,-8.397013,-3.691527,4.02413,-0.102167,-0.009621,0.0197,30.96,66.3124366320461
12492,-8.395817,-3.690929,4.022933,-0.100945,-0.009927,0.018784,30.98,66.3156381768625
12502,-8.399406,-3.690331,4.016951,-0.100029,-0.010079,0.018631,30.98,66.3539757951289
12512,-8.389236,-3.696911,4.010969,-0.098807,-0.009468,0.017562,30.99,66.3700598813639
12522,-8.402397,-3.690929,4.010371,-0.097433,-0.009774,0.018173,30.99,66.3952935839017
12532,-8.408379,-3.7005,4.025924,-0.096364,-0.009621,0.017562,30.94,66.3352198691819
12542,-8.395817,-3.686741,4.021138,-0.096822,-0.009927,0.016188,30.94,66.3211722909134
12552,-8.404789,-3.693322,4.012166,-0.0956,-0.011759,0.015272,30.95,66.393106346856
12562,-8.398808,-3.685545,4.011567,-0.096059,-0.011606,0.014813,30.95,66.3765294583701
12572,-8.408977,-3.681358,4.011567,-0.096669,-0.013592,0.015577,30.95,66.3940232150141
12582,-8.410771,-3.689135,4.007978,-0.097433,-0.014661,0.014813,30.93,66.4237360615587
12592,-8.408379,-3.677768,4.00738,-0.098349,-0.016493,0.014966,30.93,66.4114216548863
12602,-8.402397,-3.67059,3.999005,-0.09896,-0.017715,0.01405,30.95,66.4362302449927
12612,-8.420941,-3.701099,3.995416,-0.10064,-0.020617,0.016341,30.95,66.5217845301723
12622,-8.413164,-3.685545,3.997808,-0.10232,-0.023671,0.016035,30.96,66.4787662953978
12632,-8.410771,-3.684349,3.999603,-0.103084,-0.027336,0.016952,30.96,66.463251051486
12642,-8.408379,-3.688536,3.98405,-0.104,-0.031001,0.019395,30.98,66.5437112236929
12652,-8.402995,-3.683152,3.985844,-0.105069,-0.035125,0.020311,30.98,66.5181133303503
12662,-8.413164,-3.678965,3.982853,-0.106138,-0.038943,0.023671,30.93,66.5512350578467
12672,-8.392226,-3.678366,3.981657,-0.106596,-0.043524,0.025962,30.93,66.5132078546789
12682,-8.410173,-3.675974,3.975675,-0.106901,-0.048411,0.029474,30.99,66.5799783741783
12692,-8.398808,-3.669394,3.975077,-0.107207,-0.052382,0.034208,30.99,66.5533799512112
12702,-8.400601,-3.680759,3.978068,-0.10736,-0.058643,0.038485,30.96,66.5517877241752
12712,-8.400003,-3.677768,3.981059,-0.10736,-0.063377,0.041539,30.96,66.5320746163118
12722,-8.388638,-3.671786,3.967898,-0.105374,-0.072235,0.049633,30.97,66.5720962584198
12732,-8.38804,-3.668795,3.976871,-0.104763,-0.076511,0.054062,30.93,66.5208500690288
12742,-8.38146,-3.67418,3.98405,-0.103084,-0.080634,0.059407,30.93,66.4742059828641
12752,-8.380861,-3.665206,3.99063,-0.101709,-0.084452,0.06353,30.93,66.4300633690264
12762,-8.383254,-3.677768,3.99063,-0.100335,-0.086896,0.068111,30.93,66.4466549058733
12772,-8.382656,-3.672385,4.001398,-0.098655,-0.08827,0.072388,30.97,66.3838229833032
12782,-8.386844,-3.655635,4.006782,-0.095448,-0.090103,0.075747,30.97,66.3489296970412
12792,-8.377273,-3.661019,4.006782,-0.092546,-0.090713,0.079412,30.94,66.3336897557474
12802,-8.376076,-3.667599,4.018745,-0.08995,-0.090255,0.082009,30.94,66.2743830556642
12812,-8.371889,-3.66042,4.026522,-0.088423,-0.089644,0.083689,30.96,66.2180283850981
12822,-8.386245,-3.665206,4.038486,-0.085979,-0.087812,0.085827,30.96,66.190132152474
12832,-8.380861,-3.662813,4.046263,-0.082925,-0.085521,0.08659,30.94,66.1357451712923
12842,-8.373683,-3.662215,4.051647,-0.081245,-0.082467,0.088117,30.94,66.0917218848983
12852,-8.378469,-3.671188,4.058825,-0.078496,-0.078496,0.087506,30.93,66.0726742500823
12862,-8.38445,-3.661617,4.067201,-0.077427,-0.074373,0.085368,30.93,66.0326772353668
12872,-8.383254,-3.662813,4.069593,-0.075442,-0.068722,0.083994,30.97,66.0187350581326
12882,-8.389835,-3.667001,4.085745,-0.074678,-0.064141,0.082009,30.97,65.9523033707791
12892,-8.39462,-3.66042,4.095316,-0.073151,-0.050855,0.0759,30.99,65.9064628126998
12902,-8.394022,-3.66401,4.088736,-0.07422,-0.043982,0.07086,30.95,65.9428452597104
12912,-8.39821,-3.661617,4.10728,-0.075289,-0.037263,0.066432,30.95,65.8529177973653
12922,-8.392825,-3.650849,4.112664,-0.076511,-0.030238,0.060476,30.94,65.80328883037
12932,-8.404191,-3.671786,4.110869,-0.079107,-0.02306,0.054367,30.94,65.8565178540865
12942,-8.409575,-3.668197,4.10728,-0.080634,-0.015882,0.048258,30.95,65.883341167207
12952,-8.41137,-3.662813,4.09053,-0.084299,-0.009163,0.042608,30.95,65.9693651856283
12962,-8.413164,-3.665804,4.101896,-0.087659,-0.003512,0.036652,30.99,65.9167855848511
12972,-8.421539,-3.671786,4.103093,-0.09163,0.002902,0.030543,30.99,65.9339564636187
12982,-8.434101,-3.668197,4.09412,-0.096059,0.00733,0.024893,30.98,66.0039893766675
12992,-8.426923,-3.682554,4.086343,-0.100487,0.011759,0.018784,30.98,66.0424903706387
13002,-8.426923,-3.666403,4.080361,-0.105069,0.015272,0.013286,31.02,66.058703563591
13012,-8.422735,-3.67418,4.067201,-0.10965,0.017562,0.008094,31.02,66.1255840017971
13022,-8.4347,-3.675375,4.072584,-0.114537,0.019242,0.002443,31.02,66.1239324785802
13032,-8.442476,-3.677768,4.061218,-0.119119,0.019548,-0.002443,31.02,66.2017288615535
13042,-8.429317,-3.675974,4.04746,-0.123242,0.01909,-0.005345,30.96,66.24410676675
13052,-8.432307,-3.680161,4.022335,-0.127365,0.017715,-0.008094,30.96,66.3854720037932
13062,-8.435897,-3.686741,4.009772,-0.130878,0.012675,-0.01405,30.98,66.4646904595484
13072,-8.435298,-3.688536,4.00738,-0.136223,0.009621,-0.015272,31,66.477592100024
13082,-8.438289,-3.682554,4.000201,-0.138666,0.00504,-0.015424,31,66.5159515624501
13092,-8.430512,-3.683152,3.988237,-0.139125,0,-0.016646,30.96,66.5629680008041
13102,-8.431709,-3.68375,3.978666,-0.140194,-0.006109,-0.016035,30.96,66.616195642641
13112,-8.423933,-3.685545,3.969095,-0.139735,-0.012675,-0.014661,30.97,66.6519092413857
13122,-8.408977,-3.68734,3.962514,-0.139277,-0.019548,-0.012828,30.97,66.6570552239602
13132,-8.410173,-3.68734,3.951746,-0.138208,-0.026573,-0.011148,30.92,66.7162047959675
13142,-8.395219,-3.687938,3.945765,-0.136376,-0.033292,-0.008247,30.92,66.7172155742334
13152,-8.397612,-3.689135,3.942175,-0.132863,-0.040775,-0.003818,30.97,66.7422030745446
13162,-8.397612,-3.69392,3.932604,-0.12874,-0.047647,0.000458,30.97,66.7970426385222
13172,-8.383853,-3.688536,3.95055,-0.125533,-0.055131,0.005192,30.96,66.6688922178662
13182,-8.376076,-3.689135,3.942175,-0.121715,-0.062003,0.010079,30.96,66.6974485263618
13192,-8.386844,-3.69392,3.948158,-0.115606,-0.067653,0.01573,30.97,66.6926616800188
13202,-8.366504,-3.696911,3.943372,-0.110108,-0.073457,0.022907,30.97,66.678338648934
13212,-8.368897,-3.688536,3.942773,-0.105374,-0.079107,0.029016,30.93,66.6787882063679
13222,-8.365308,-3.694518,3.953541,-0.099266,-0.083994,0.035125,30.93,66.6199430414407
13232,-8.362915,-3.681358,3.964907,-0.087812,-0.091172,0.048106,30.98,66.5428127747691
13242,-8.362915,-3.688536,3.978666,-0.08323,-0.093004,0.056047,30.95,66.47688878462
13252,-8.358727,-3.678965,3.985246,-0.077885,-0.095142,0.062308,30.95,66.4245449604375
13262,-8.358727,-3.690331,3.990032,-0.073609,-0.095448,0.068111,31,66.4098744698175
13272,-8.362915,-3.686741,4.00379,-0.069791,-0.095295,0.073304,31,66.342950469211
13282,-8.363514,-3.675974,4.009174,-0.066126,-0.09499,0.079412,30.95,66.3058960083857
13292,-8.350951,-3.673581,4.026522,-0.063225,-0.094684,0.083841,30.95,66.1858485259419
13302,-8.357532,-3.680759,4.040281,-0.061392,-0.092088,0.086896,30.95,66.134279369242
13312,-8.363514,-3.667001,4.049254,-0.059254,-0.088728,0.090103,30.95,66.087079364625
13322,-8.365907,-3.669394,4.05404,-0.05849,-0.085063,0.092852,31.01,66.0693232827899
13332,-8.370093,-3.674777,4.076771,-0.059865,-0.080176,0.095906,31.01,65.9643115833124
13342,-8.365907,-3.672385,4.074977,-0.060018,-0.075595,0.096669,30.99,65.9625111819316
13352,-8.377871,-3.678366,4.085745,-0.062156,-0.070555,0.097128,30.99,65.9373952560683
13362,-8.389835,-3.669394,4.106084,-0.064752,-0.063988,0.096211,31.01,65.8484918294075
13372,-8.392825,-3.677171,4.104289,-0.067653,-0.057879,0.0956,31.01,65.8715155499526
13382,-8.397612,-3.669394,4.1007,-0.071624,-0.051313,0.093004,30.93,65.8931661444479
13392,-8.400601,-3.675375,4.11386,-0.075442,-0.045204,0.089797,30.93,65.8366397961232
13402,-8.406584,-3.675375,4.101896,-0.080329,-0.038332,0.085979,30.96,65.9116628674611
13412,-8.415558,-3.668795,4.107878,-0.090866,-0.025198,0.076358,30.96,65.8935537126933
13422,-8.426325,-3.667001,4.106084,-0.096059,-0.019853,0.071319,30.94,65.9241600767795
13432,-8.430512,-3.667599,4.099504,-0.101251,-0.014355,0.065363,30.94,65.9678229288706
13442,-8.429914,-3.676572,4.100101,-0.105985,-0.009316,0.060628,30.94,65.9717535881955
13452,-8.425129,-3.669394,4.098307,-0.109956,-0.005192,0.054214,30.97,65.96426367046
13462,-8.436494,-3.671188,4.092923,-0.115301,-0.002596,0.046884,30.97,66.0180497340544
13472,-8.42812,-3.665206,4.084548,-0.118813,0.001222,0.041539,31,66.038336675905
13482,-8.437093,-3.672983,4.073183,-0.122173,0.003512,0.035277,31,66.1236687039009
13492,-8.453244,-3.673581,4.065406,-0.125533,0.005498,0.0281,30.99,66.1987616200198
13502,-8.435897,-3.672983,4.060022,-0.128129,0.005803,0.022297,30.99,66.1897043604936
13512,-8.432307,-3.678366,4.043272,-0.129045,0.006109,0.016799,30.98,66.2744533885853
13522,-8.444869,-3.684349,4.039683,-0.129656,0.005192,0.011606,30.98,66.3250328158148
13532,-8.433504,-3.685545,4.02413,-0.130114,0.004123,0.005803,30.97,66.3835206882427
13542,-8.43111,-3.686144,4.025924,-0.129503,0.00168,0.00168,30.97,66.3696790582585
13552,-8.429914,-3.689135,4.006183,-0.129045,-0.000305,-0.002291,30.95,66.4731657793912
13562,-8.429914,-3.690929,4.001398,-0.127365,-0.003207,-0.005803,30.95,66.4998552026165
13572,-8.419147,-3.689135,3.982853,-0.125533,-0.007025,-0.008094,30.96,66.5729908146893
13582,-8.418548,-3.690929,3.989433,-0.123089,-0.015272,-0.010537,30.96,66.5388587540925
13592,-8.408977,-3.686144,3.978068,-0.116828,-0.020159,-0.011912,30.96,66.5741925994396
13602,-8.406584,-3.685545,3.966104,-0.114843,-0.025656,-0.012675,30.91,66.6315557327168
13612,-8.405987,-3.68375,3.965506,-0.110872,-0.030238,-0.010843,30.91,66.6318207853995
13622,-8.399406,-3.674777,3.973282,-0.107512,-0.03543,-0.009468,30.93,66.5689929202434
13632,-8.389835,-3.689733,3.972684,-0.104611,-0.040012,-0.006872,30.93,66.5658518216476
13642,-8.380861,-3.677768,3.965506,-0.101862,-0.043982,-0.004276,30.93,66.5739199408249
13652,-8.380861,-3.669394,3.969095,-0.098655,-0.048717,-0.000916,30.93,66.5473213578058
13662,-8.373085,-3.67418,3.987041,-0.097433,-0.053145,0.003207,30.97,66.4408696430175
13672,-8.378469,-3.672385,3.972684,-0.09499,-0.056963,0.008858,30.97,66.5261407814681
13682,-8.373085,-3.686741,3.984648,-0.092699,-0.060628,0.013897,30.94,66.4650641344957
13692,-8.367702,-3.678366,3.983452,-0.091324,-0.06353,0.01909,30.94,66.4523205246538
13702,-8.361719,-3.667001,3.999603,-0.090103,-0.065363,0.024893,30.98,66.3441438854151
13712,-8.416155,-3.649653,3.944568,-0.089186,-0.067501,0.030391,30.98,66.7323085872056
13722,-8.680563,-3.53061,3.777071,-0.068722,-0.054825,0.009163,30.93,68.0478270782774
13732,-8.273782,-3.675974,3.993023,-0.043982,-0.036805,-0.0197,30.93,66.2005537522171
13742,-8.373683,-3.679563,4.002594,-0.043524,-0.035888,-0.00672,30.9,66.3652738484992
13752,-8.383254,-3.679563,4.036094,-0.043982,-0.034819,0.011912,30.9,66.2096460685913
13762,-8.27139,-3.69392,4.019942,-0.046273,-0.031307,0.019395,30.96,66.0701003763603
13772,-8.380861,-3.686144,4.039683,-0.047189,-0.030085,0.029016,30.99,66.191897720585
13782,-8.305488,-3.690331,4.024727,-0.048411,-0.028405,0.034361,30.99,66.1143007831398
13792,-8.380263,-3.690331,4.040281,-0.04948,-0.027336,0.041844,30.93,66.1913983369205
13802,-8.335398,-3.69392,4.042076,-0.050855,-0.025809,0.045662,30.93,66.0901503833392
13812,-8.391629,-3.702295,4.051049,-0.051465,-0.024893,0.049786,30.98,66.1702260660604
13822,-8.359326,-3.697509,4.042076,-0.052993,-0.023824,0.051313,30.98,66.1443630964298
13832,-8.404191,-3.696313,4.046861,-0.053451,-0.02306,0.054978,31,66.2130621811699
13842,-8.385049,-3.708277,4.052245,-0.05452,-0.021991,0.05452,31,66.1556547702289
13852,-8.413164,-3.698107,4.049852,-0.054825,-0.022144,0.053909,30.95,66.2180105692314
13862,-8.402995,-3.705286,4.045067,-0.0562,-0.021228,0.051618,30.95,66.2282425365959
13872,-8.417951,-3.698107,4.048656,-0.055894,-0.020617,0.050549,30.95,66.2343313928891
13882,-8.407781,-3.709473,4.052843,-0.056352,-0.020617,0.047953,30.95,66.2016017588867
13892,-8.425129,-3.708277,4.052843,-0.056963,-0.020617,0.043677,30.94,66.2369850176671
13902,-8.413763,-3.702893,4.040879,-0.056505,-0.021075,0.040623,30.94,66.2705574545609
13912,-8.420941,-3.703491,4.040879,-0.055131,-0.020617,0.037415,30.92,66.2861870601065
13922,-8.419745,-3.711866,4.038486,-0.054825,-0.021838,0.03146,30.92,66.3039083927014
13932,-8.425727,-3.708875,4.040879,-0.053145,-0.022907,0.027489,30.98,66.3011970346566
13942,-8.425129,-3.716054,4.038486,-0.052229,-0.023518,0.023366,30.95,66.3190595620187
