t_ms,ax,ay,az,gx,gy,gz,temp,ang_deg
12,-8.010572,-3.486941,3.528217,0.41997,0.314596,0.453873,31.18,68.0089921575608
22,-8.068,-3.452245,3.515655,0.450208,0.286496,0.492663,31.18,68.168050203581
32,-8.137392,-3.394219,3.530011,0.479376,0.258854,0.52397,31.23,68.180399002717
42,-8.329416,-3.360121,3.543771,0.506102,0.199753,0.562912,31.23,68.4678951883876
52,-8.435897,-3.342773,3.575475,0.551153,0.171653,0.56673,31.23,68.4939364683837
62,-8.534002,-3.303292,3.615555,0.567341,0.145997,0.561538,31.21,68.4410664622665
72,-8.630314,-3.287739,3.637689,0.57742,0.120646,0.547335,31.21,68.5011228973368
82,-8.729016,-3.254837,3.678366,0.582765,0.095906,0.523206,31.25,68.4539221662968
92,-8.839685,-3.2339,3.711866,0.58078,0.071471,0.489303,31.25,68.4782866801875
102,-8.935996,-3.214757,3.762714,0.572686,0.047953,0.446237,31.2,68.3858279476061
112,-9.024531,-3.202195,3.827918,0.557262,0.025198,0.395688,31.2,68.2110100819579
122,-9.114861,-3.172883,3.875774,0.533285,0.002596,0.336281,31.19,68.1205973756954
132,-9.173484,-3.168695,3.945765,0.500451,-0.018021,0.270155,31.19,67.8754804669891
142,-9.249456,-3.162713,4.002594,0.459829,-0.036805,0.199753,31.19,67.7327280761456
152,-9.287144,-3.141776,4.065406,0.409432,-0.054672,0.1237,31.19,67.4781315399446
162,-9.335,-3.152544,4.112664,0.350484,-0.072235,0.043524,31.19,67.3441458329294
172,-9.34816,-3.154339,4.168297,0.285427,-0.08827,-0.038179,31.19,67.0963751984152
182,-9.34816,-3.17049,4.211368,0.215483,-0.10232,-0.121562,31.22,66.8953106466992
192,-9.320044,-3.189034,4.231109,0.144928,-0.116523,-0.205403,31.22,66.754995820926
202,-9.26501,-3.211766,4.237091,0.074526,-0.128587,-0.288481,31.2,66.6310353790463
212,-9.104092,-3.278167,4.226922,0.008399,-0.141415,-0.444557,31.2,66.4027423056202
222,-8.995816,-3.306283,4.2006,-0.105527,-0.168904,-0.514959,31.23,66.3328598482929
232,-8.85823,-3.342773,4.172484,-0.149509,-0.182343,-0.576962,31.22,66.2171575960972
242,-8.729615,-3.377469,4.138985,-0.184176,-0.194255,-0.63026,31.22,66.1454901941556
252,-8.592029,-3.404987,4.101896,-0.210138,-0.204793,-0.674853,31.19,66.0671070058216
262,-8.434101,-3.445066,4.09053,-0.225715,-0.211818,-0.709367,31.19,65.8205334082815
272,-8.300702,-3.482155,4.049852,-0.232129,-0.215635,-0.734718,31.21,65.7766184394597
282,-8.152946,-3.518646,4.05404,-0.23106,-0.212428,-0.74999,31.21,65.4611816289024
292,-8.018349,-3.53719,4.039085,-0.222966,-0.20296,-0.755793,31.22,65.2560396652902
302,-7.905288,-3.574877,4.029513,-0.209832,-0.187383,-0.752128,31.22,65.0878384731426
312,-7.808379,-3.602993,4.034897,-0.191201,-0.166308,-0.738536,31.16,64.8641071654629
322,-7.730014,-3.654438,4.030112,-0.167224,-0.142179,-0.717308,31.16,64.7636092975466
332,-7.680961,-3.682554,4.03071,-0.137903,-0.114843,-0.689514,31.2,64.6768408164916
342,-7.642675,-3.717848,4.039683,-0.106138,-0.086132,-0.655306,31.2,64.5776441122742
352,-7.609775,-3.750151,4.04746,-0.070708,-0.056963,-0.61621,31.19,64.4946810519083
362,-7.616355,-3.791427,4.04746,-0.032529,-0.028863,-0.572686,31.19,64.5580942069681
372,-7.645667,-3.821338,4.038486,0.006261,-0.002291,-0.526566,31.22,64.7102664878907
382,-7.739585,-3.887738,4.059424,0.045509,0.021533,-0.47678,31.22,64.8878470362173
392,-7.807182,-3.918845,4.063013,0.122784,0.059559,-0.377057,31.22,65.0562184685758
402,-7.895118,-3.937988,4.059424,0.15913,0.07422,-0.327576,31.24,65.2923907005836
412,-7.98784,-3.96072,4.070191,0.192117,0.086285,-0.279013,31.24,65.4628107299726
422,-8.090732,-3.990032,4.078567,0.22037,0.094073,-0.233656,31.2,65.6716080292267
432,-8.187043,-4.00379,4.103691,0.243888,0.098197,-0.194408,31.2,65.7588536011907
442,-8.298308,-4.018745,4.119244,0.260687,0.099724,-0.159283,31.23,65.9266939565994
452,-8.4012,-4.036692,4.165306,0.272751,0.098655,-0.131183,31.23,65.920670934628
462,-8.505288,-4.043272,4.198207,0.277944,0.096975,-0.10965,31.21,65.9731081064194
472,-8.581859,-4.06062,4.242475,0.2755,0.093921,-0.095906,31.21,65.9222190988022
482,-8.657232,-4.063612,4.282554,0.266643,0.090408,-0.090255,31.21,65.8770803905495
492,-8.71466,-4.092325,4.313661,0.251371,0.086743,-0.092393,31.21,65.8653618633352
502,-8.764909,-4.100101,4.333402,0.231671,0.081856,-0.103236,31.21,65.8758341680636
512,-8.782855,-4.129414,4.342375,0.208916,0.07758,-0.121409,31.21,65.894902477002
522,-8.764312,-4.144369,4.356134,0.183565,0.073762,-0.144622,31.2,65.8043148169539
532,-8.741579,-4.160521,4.34058,0.156076,0.07025,-0.173791,31.2,65.8507957406751
542,-8.684152,-4.178466,4.328018,0.128893,0.067348,-0.204793,31.26,65.8152130145228
552,-8.520842,-4.189833,4.271188,0.105527,0.067042,-0.234878,31.26,65.7806194179134
562,-8.405987,-4.208975,4.231109,0.083841,0.071624,-0.283594,31.22,65.7685856141698
572,-8.274381,-4.186841,4.195216,0.051007,0.076511,-0.297339,31.23,65.6582477316366
582,-8.155936,-4.199404,4.155735,0.040164,0.08323,-0.303905,31.23,65.6289021558188
592,-8.046464,-4.21735,4.115057,0.033139,0.092088,-0.300546,31.21,65.6310872646075
602,-7.920841,-4.219743,4.073781,0.030849,0.102625,-0.286649,31.21,65.5859257583355
612,-7.826325,-4.231109,4.029513,0.031765,0.114385,-0.264352,31.18,65.6334951313336
622,-7.728219,-4.237689,3.973282,0.038026,0.126449,-0.232129,31.18,65.734077432932
632,-7.658229,-4.24726,3.911069,0.050702,0.136834,-0.191354,31.17,65.9337766919905
642,-7.600801,-4.26401,3.869194,0.069639,0.146455,-0.141721,31.17,66.0606219500296
652,-7.552945,-4.269393,3.829713,0.092852,0.155465,-0.085979,31.22,66.1828786395061
662,-7.532606,-4.275376,3.79741,0.123242,0.162948,-0.024129,31.22,66.325834874328
672,-7.539784,-4.288536,3.752544,0.156382,0.16753,0.040928,31.19,66.6059593179287
682,-7.554141,-4.278367,3.751348,0.194255,0.170279,0.109039,31.19,66.6305699490958
692,-7.576873,-4.278367,3.729812,0.235794,0.170431,0.178984,31.2,66.7977182678085
702,-7.631908,-4.263412,3.728616,0.278402,0.169668,0.24908,31.2,66.9009224335759
712,-7.691729,-4.241877,3.732804,0.322842,0.168446,0.318414,31.18,66.9763696879391
722,-7.763513,-4.218546,3.790231,0.366519,0.164934,0.383776,31.18,66.7820478854756
732,-7.992028,-4.141378,3.84048,0.408363,0.161268,0.498161,31.24,66.8940907402072
742,-8.089535,-4.109673,3.912863,0.480598,0.157909,0.541074,31.18,66.6725262454921
752,-8.230114,-4.057629,3.991228,0.505338,0.159436,0.571312,31.18,66.4927220925556
762,-8.356933,-4.01396,4.075575,0.522443,0.163865,0.588263,31.23,66.2693326692734
772,-8.46461,-3.966104,4.162913,0.531605,0.170126,0.589943,31.23,65.9946482870314
782,-8.569895,-3.913461,4.235895,0.532827,0.177915,0.578642,31.22,65.7906033650957
792,-8.66142,-3.867998,4.312464,0.525344,0.186619,0.553902,31.22,65.5525016889132
802,-8.740981,-3.814758,4.369295,0.511294,0.197157,0.514807,31.24,65.3858504182248
812,-8.806784,-3.772883,4.435097,0.491747,0.209069,0.464105,31.24,65.1601502100324
822,-8.85823,-3.714259,4.479364,0.464868,0.22205,0.401491,31.21,64.9985969534855
832,-8.894721,-3.659224,4.510471,0.433103,0.236863,0.33002,31.21,64.8752412121131
842,-8.931808,-3.605386,4.537988,0.395841,0.253051,0.247859,31.18,64.7732267131314
852,-8.94796,-3.555735,4.53739,0.354455,0.271071,0.159436,31.18,64.7681863507105
862,-8.948559,-3.515056,4.534997,0.310167,0.288023,0.067348,31.19,64.746789669016
872,-8.938988,-3.4672,4.506283,0.261756,0.302836,-0.027794,31.19,64.826521048862
882,-8.921639,-3.409772,4.479962,0.211818,0.315512,-0.120951,31.22,64.8708234482172
892,-8.877971,-3.372684,4.36391,0.160963,0.324217,-0.210901,31.22,65.3210702312637
902,-8.772088,-3.328416,4.294518,0.111636,0.329562,-0.295048,31.2,65.4052623861091
912,-8.688339,-3.300899,4.208975,0.022907,0.329867,-0.434783,31.22,65.6362377461813
922,-8.587841,-3.295515,4.125825,-0.01405,0.325286,-0.484722,31.22,65.8420989408368
932,-8.508279,-3.284747,4.042076,-0.045815,0.317344,-0.519999,31.19,66.0973580306409
942,-8.404191,-3.27039,3.94397,-0.069486,0.30864,-0.541074,31.19,66.3783160897767
952,-8.320443,-3.296711,3.856632,-0.088117,0.297797,-0.543212,31.24,66.6877990635248
962,-8.221739,-3.306881,3.78066,-0.100182,0.284816,-0.530384,31.24,66.8958482290805
972,-8.148159,-3.315256,3.686741,-0.105069,0.271377,-0.501062,31.18,67.2613945034116
982,-8.094919,-3.322434,3.605386,-0.103389,0.255342,-0.458607,31.18,67.6066765518843
992,-8.0345,-3.343372,3.52702,-0.095295,0.238237,-0.403324,31.19,67.937584289347
1002,-8.008778,-3.370291,3.462414,-0.080329,0.220828,-0.336129,31.19,68.2736728108078
1012,-7.989037,-3.376871,3.406183,-0.06017,0.200669,-0.259465,31.21,68.55928267286
1022,-7.984251,-3.399004,3.357728,-0.035583,0.179594,-0.176082,31.21,68.8465483659112
1032,-7.993822,-3.430709,3.324229,-0.00672,0.156992,-0.088575,31.21,69.0859750515842
1042,-8.024331,-3.441477,3.315854,0.02642,0.132558,-0.000458,31.21,69.2046645447466
1052,-8.073982,-3.461816,3.312863,0.062003,0.108581,0.083536,31.21,69.3379634150494
1062,-8.145168,-3.493521,3.327818,0.098655,0.083383,0.163559,31.21,69.4196759682824
1072,-8.321041,-3.512065,3.396612,0.136834,0.057574,0.231823,31.2,69.3902034633798
1082,-8.423933,-3.530011,3.452843,0.209832,0.00336,0.329867,31.2,69.2916404620801
1092,-8.534599,-3.547958,3.522833,0.242208,-0.023671,0.356593,31.25,69.1357613984668
1102,-8.636295,-3.555735,3.597609,0.266795,-0.051771,0.36377,31.22,68.9334201919239
1112,-8.738589,-3.568297,3.688536,0.286496,-0.07758,0.355982,31.22,68.6557324295353
1122,-8.836096,-3.588037,3.765106,0.300088,-0.099571,0.331853,31.25,68.4560161253904
1132,-8.915657,-3.595814,3.853043,0.303295,-0.120188,0.291535,31.25,68.1592721497395
1142,-8.982656,-3.595216,3.92064,0.299782,-0.135001,0.236558,31.2,67.9413889244709
1152,-9.040084,-3.608377,3.994817,0.289092,-0.147524,0.16921,31.2,67.6860668001902
1162,-9.069994,-3.632903,4.058825,0.270308,-0.158214,0.091477,31.19,67.4412161016867
1172,-9.105289,-3.646662,4.101896,0.24679,-0.167377,0.005651,31.19,67.3051738499499
1182,-9.103494,-3.667001,4.149753,0.218232,-0.174249,-0.086132,31.2,67.0800380152486
1192,-9.089137,-3.696313,4.178466,0.184787,-0.1799,-0.179594,31.2,66.9331208001263
1202,-9.059227,-3.724428,4.196413,0.149204,-0.185856,-0.273973,31.2,66.8084311960453
1212,-9.01137,-3.752544,4.202394,0.112246,-0.191506,-0.364228,31.2,66.7077288335872
1222,-8.950354,-3.772285,4.194618,0.074373,-0.195477,-0.450055,31.2,66.6422299565701
1232,-8.876775,-3.811168,4.190431,0.037415,-0.198989,-0.52794,31.2,66.5499169591729
1242,-8.806784,-3.883551,4.14078,0.003207,-0.202655,-0.597273,31.22,66.7221859090802
1252,-8.632706,-3.928416,4.112065,-0.028711,-0.209527,-0.701884,31.22,66.5605890215709
1262,-8.531011,-3.967898,4.076173,-0.07758,-0.214108,-0.736398,31.23,66.5759269100784
1272,-8.410173,-3.993023,4.029513,-0.092699,-0.218537,-0.756862,31.21,66.5961841383883
1282,-8.286345,-4.031308,3.986442,-0.102167,-0.224035,-0.762207,31.21,66.6063623903484
1292,-8.17149,-4.063612,3.951746,-0.104,-0.227395,-0.752891,31.2,66.586684860366
1302,-8.04826,-4.102495,3.924827,-0.099113,-0.228922,-0.730137,31.2,66.5163809451074
1312,-7.931011,-4.126423,3.905685,-0.08827,-0.2277,-0.691958,31.21,66.4011831876463
1322,-7.819146,-4.143172,3.894917,-0.071013,-0.223424,-0.641103,31.21,66.2431605443409
1332,-7.721041,-4.168896,3.88056,-0.048717,-0.216552,-0.580017,31.23,66.1427044008757
1342,-7.633703,-4.196413,3.900301,-0.022297,-0.20632,-0.509003,31.23,65.8800719786837
1352,-7.573284,-4.202993,3.911667,0.009316,-0.193186,-0.429591,31.21,65.6950726859657
1362,-7.505687,-4.22094,3.939184,0.042302,-0.17822,-0.345139,31.21,65.4181664134467
1372,-7.470392,-4.223332,3.959523,0.078649,-0.159436,-0.257022,31.23,65.2314656626882
1382,-7.419545,-4.213162,3.99721,0.114537,-0.137445,-0.165697,31.23,64.8978960642044
1392,-7.41775,-4.195815,4.042076,0.1518,-0.113163,-0.075136,31.2,64.6250313287691
1402,-7.429714,-4.188636,4.09711,0.187688,-0.086743,0.011912,31.2,64.3418074864876
1412,-7.456633,-4.162913,4.203591,0.221286,-0.055283,0.096059,31.22,63.7924333479873
1422,-7.571489,-4.109075,4.277769,0.251524,-0.019395,0.24343,31.22,63.5923867116379
1432,-7.652845,-4.089932,4.342973,0.299171,0.062308,0.305127,31.17,63.4118200291056
1442,-7.768299,-4.04387,4.403392,0.313832,0.109345,0.352011,31.25,63.3069498356743
1452,-7.892725,-4.014558,4.451847,0.321315,0.155312,0.385761,31.25,63.3091700305208
1462,-8.032107,-3.975077,4.493721,0.324064,0.200364,0.405462,31.27,63.3697143133571
1472,-8.164909,-3.936193,4.528417,0.321468,0.240681,0.409127,31.27,63.4535251519513
1482,-8.298308,-3.907479,4.552943,0.313374,0.276264,0.399964,31.24,63.6010282476096
1492,-8.437093,-3.883551,4.561318,0.299935,0.305738,0.37614,31.24,63.844381254979
1502,-8.534599,-3.850052,4.567898,0.2839,0.329867,0.341779,31.19,63.9933333697064
1512,-8.647062,-3.8339,4.545166,0.265421,0.349109,0.29688,31.19,64.3348657082136
1522,-8.740981,-3.817749,4.522435,0.245568,0.362549,0.24343,31.23,64.6328625662755
1532,-8.830712,-3.787838,4.466802,0.224798,0.369573,0.184023,31.23,65.0679154439164
1542,-8.885148,-3.779463,4.408776,0.205403,0.370948,0.118202,31.2,65.458370095249
1552,-8.905487,-3.760919,4.335197,0.18891,0.366061,0.050244,31.2,65.8461497064303
1562,-8.943772,-3.757928,4.272385,0.174249,0.355065,-0.0197,31.19,66.2314009192984
1572,-8.924032,-3.760919,4.202394,0.163559,0.338725,-0.085521,31.19,66.5417916933448
1582,-8.872587,-3.75733,4.11745,0.155465,0.318719,-0.145233,31.2,66.8616892113484
1592,-8.732607,-3.746562,3.975675,0.151189,0.296728,-0.196546,31.2,67.2961771845265
1602,-8.632706,-3.743571,3.918845,0.1518,0.253204,-0.265726,31.2,67.3892844557069
1612,-8.515458,-3.734,3.863212,0.155923,0.233503,-0.281914,31.18,67.4380271878259
1622,-8.414959,-3.746562,3.803392,0.163101,0.216857,-0.282831,31.18,67.564049424783
1632,-8.326425,-3.738786,3.768696,0.174097,0.203724,-0.270766,31.21,67.5641207658134
1642,-8.219346,-3.73041,3.739982,0.186619,0.192117,-0.246331,31.21,67.4936219593179
1652,-8.143373,-3.75075,3.714857,0.201586,0.182649,-0.210901,31.18,67.4936264574103
1662,-8.059027,-3.734,3.7005,0.216704,0.176845,-0.166919,31.18,67.3820637019286
1672,-8.000402,-3.73041,3.701099,0.233809,0.171959,-0.115454,31.18,67.2528858408373
1682,-7.968698,-3.711866,3.699304,0.24908,0.167377,-0.059407,31.18,67.1778834583574
1692,-7.949555,-3.714857,3.70409,0.264963,0.165239,0.001374,31.2,67.1138197798182
1702,-7.941778,-3.7005,3.736392,0.279318,0.164475,0.062461,31.2,66.904120688347
1712,-7.948956,-3.682554,3.75733,0.291688,0.165697,0.122478,31.2,66.7858752699944
1722,-7.980063,-3.67059,3.782454,0.301462,0.169057,0.180969,31.2,66.7023964421183
1732,-8.023732,-3.66042,3.803392,0.309861,0.172722,0.23442,31.21,66.6713539556475
1742,-8.079366,-3.639483,3.834498,0.315206,0.175166,0.281762,31.21,66.6006162296393
1752,-8.14457,-3.61735,3.875176,0.318566,0.177456,0.321773,31.18,66.4987134028043
1762,-8.230712,-3.598805,3.941577,0.318719,0.178525,0.351706,31.18,66.3092336927227
1772,-8.400601,-3.574279,3.983452,0.314901,0.178067,0.380264,31.23,66.4267551141577
1782,-8.475977,-3.565904,3.999005,0.299629,0.17654,0.376293,31.25,66.4964748500093
1792,-8.560324,-3.549752,4.02413,0.288176,0.173791,0.362549,31.25,66.5277573649341
1802,-8.627921,-3.528217,4.042674,0.274126,0.168599,0.339183,31.22,66.5538121084852
1812,-8.698509,-3.530011,4.058825,0.258701,0.161879,0.30528,31.22,66.6180271612813
1822,-8.769096,-3.510271,4.070191,0.242972,0.153633,0.262825,31.19,66.6883342168093
1832,-8.796615,-3.501896,4.088138,0.225409,0.143095,0.210749,31.19,66.6461295928278
1842,-8.84088,-3.47737,4.084548,0.208916,0.132558,0.153022,31.2,66.7349715527389
1852,-8.876775,-3.486342,4.098307,0.191506,0.121257,0.089339,31.2,66.7451911120106
1862,-8.871988,-3.470789,4.09412,0.174707,0.109956,0.023213,31.19,66.7443412626074
1872,-8.874381,-3.455236,4.097709,0.157451,0.099113,-0.0478,31.19,66.7186438595692
1882,-8.866006,-3.458825,4.094718,0.140346,0.089797,-0.117897,31.21,66.719630160952
1892,-8.840283,-3.45045,4.091727,0.124617,0.080634,-0.188605,31.21,66.6756823292145
1902,-8.803793,-3.440879,4.085146,0.109192,0.072388,-0.25748,31.18,66.62675629967
1912,-8.776873,-3.45045,4.085745,0.094531,0.066126,-0.320857,31.18,66.5759859758681
1922,-8.727222,-3.445066,4.088736,0.080023,0.060628,-0.3795,31.19,66.453424065803
1932,-8.673384,-3.448656,4.069593,0.066279,0.057574,-0.432187,31.19,66.4426283952541
1942,-8.548957,-3.452245,4.063612,0.053145,0.056047,-0.512058,31.22,66.2143357971649
1952,-8.499306,-3.460021,4.049852,0.027031,0.058338,-0.539547,31.23,66.1869857390741
1962,-8.434101,-3.475575,4.027121,0.015577,0.062766,-0.557109,31.23,66.180169469891
1972,-8.385049,-3.484548,4.03071,0.004429,0.067653,-0.567036,31.19,66.0636569656023
1982,-8.349156,-3.498905,4.009772,-0.006414,0.073457,-0.56841,31.19,66.1096127134267
1992,-8.319845,-3.512664,3.990032,-0.016188,0.080787,-0.561385,31.18,66.16339231313
2002,-8.285748,-3.527619,3.961318,-0.02474,0.087965,-0.547946,31.18,66.2562086774305
2012,-8.26481,-3.546762,3.923631,-0.030543,0.093462,-0.527482,31.21,66.4300665356462
2022,-8.245667,-3.56411,3.901497,-0.034056,0.098197,-0.501215,31.21,66.5236774487599
2032,-8.252247,-3.58385,3.853043,-0.034819,0.100487,-0.470672,31.22,66.8162381729526
2042,-8.247462,-3.617948,3.806981,-0.030849,0.098349,-0.433562,31.22,67.0857090955481
2052,-8.238488,-3.638287,3.766901,-0.022755,0.092393,-0.392786,31.22,67.3023378083827
2062,-8.251051,-3.668795,3.719643,-0.010537,0.080481,-0.348804,31.22,67.6121044689725
2072,-8.257033,-3.697509,3.690331,0.00672,0.064599,-0.303142,31.24,67.8093680477971
2082,-8.273185,-3.736991,3.65384,0.02642,0.043982,-0.255953,31.24,68.0755866981071
2092,-8.292925,-3.757928,3.629912,0.050091,0.020159,-0.20861,31.2,68.2634351568035
2102,-8.322237,-3.78066,3.6006,0.077885,-0.008247,-0.162948,31.2,68.5001676250828
2112,-8.356335,-3.838088,3.585046,0.106901,-0.038179,-0.118966,31.21,68.7009343646117
2122,-8.376076,-3.857828,3.588636,0.16753,-0.104305,-0.040623,31.2,68.736636196814
2132,-8.390432,-3.881757,3.609573,0.19792,-0.13775,-0.00733,31.2,68.6722790404948
2142,-8.420342,-3.917649,3.635296,0.228311,-0.17089,0.022297,31.2,68.6228756357023
2152,-8.432307,-3.932604,3.67059,0.257327,-0.202807,0.046578,31.2,68.4704401259881
2162,-8.44427,-3.946961,3.716054,0.282831,-0.232129,0.065973,31.2,68.2644010419097
2172,-8.459227,-3.969095,3.779463,0.30528,-0.257938,0.07926,31.2,67.9778595294588
2182,-8.477771,-3.988237,3.842873,0.323453,-0.277486,0.087354,31.22,67.6981380743592
2192,-8.472386,-3.996014,3.916452,0.336892,-0.291077,0.088728,31.22,67.3106444178212
2202,-8.46102,-3.999603,4.0008,0.344833,-0.299019,0.083841,31.2,66.8535706116404
2212,-8.458031,-4.006183,4.089334,0.346971,-0.298408,0.074526,31.2,66.3971233903138
2222,-8.458628,-4.009174,4.17727,0.342848,-0.289856,0.059865,31.21,65.9507858336236
2232,-8.440084,-4.016353,4.25743,0.332005,-0.274889,0.040164,31.21,65.5113503437291
2242,-8.430512,-4.006782,4.33041,0.315206,-0.251371,0.017868,31.2,65.1120958602936
2252,-8.392825,-4.016353,4.396811,0.29291,-0.223271,-0.006261,31.2,64.7066786344519
2262,-8.374281,-3.992425,4.456034,0.266032,-0.193033,-0.034361,31.2,64.3442558384374
2272,-8.347363,-3.994817,4.503891,0.235794,-0.157909,-0.061697,31.2,64.0480351927432
2282,-8.280362,-3.993621,4.560719,0.204182,-0.121257,-0.087812,31.23,63.6139225301905
2292,-8.248059,-3.987041,4.568497,0.172111,-0.048564,-0.138666,31.23,63.4954528147413
2302,-8.218747,-3.982255,4.560719,0.110719,-0.01237,-0.160963,31.21,63.4632103760901
2312,-8.179864,-3.985844,4.540381,0.085521,0.021838,-0.1799,31.23,63.4816409219494
2322,-8.151151,-3.976871,4.514658,0.063072,0.05452,-0.19792,31.23,63.5367123039204
2332,-8.128419,-3.988237,4.479364,0.046731,0.085063,-0.209985,31.21,63.6769385594522
2342,-8.087142,-3.983452,4.447659,0.036499,0.112857,-0.218232,31.21,63.7399509066312
2352,-8.068,-3.969095,4.391428,0.031612,0.138666,-0.22205,31.23,63.9691203353459
2362,-8.057232,-3.961916,4.346562,0.03375,0.160047,-0.222813,31.23,64.1683343267343
2372,-8.02792,-3.959523,4.301099,0.041539,0.178373,-0.217468,31.18,64.3356559260765
2382,-8.007581,-3.95055,4.251448,0.056963,0.193339,-0.208763,31.18,64.5392056500984
2392,-7.995617,-3.930212,4.201797,0.076664,0.205251,-0.194255,31.2,64.7506506015411
2402,-7.972885,-3.915854,4.167699,0.101862,0.214108,-0.174249,31.2,64.8641512077279
2412,-7.966305,-3.902694,4.13719,0.129809,0.22098,-0.148746,31.21,64.9967269946109
2422,-7.950752,-3.89073,4.114459,0.160505,0.22602,-0.12202,31.21,65.069940104797
2432,-7.945368,-3.85065,4.092325,0.193186,0.230602,-0.091019,31.19,65.1325513835589
2442,-7.922636,-3.84048,4.076173,0.226326,0.23503,-0.0562,31.19,65.157277606221
2452,-7.940582,-3.813561,4.074977,0.258091,0.238543,-0.020311,31.2,65.174758280236
2462,-7.971688,-3.756134,4.067201,0.287718,0.243583,0.05452,31.2,65.224897358235
2472,-7.995617,-3.722036,4.076173,0.337961,0.257022,0.091935,31.25,65.1946709753885
2482,-8.033902,-3.689733,4.1007,0.356593,0.265268,0.127824,31.22,65.116048002814
2492,-8.073383,-3.644269,4.112065,0.369115,0.274431,0.159436,31.22,65.0977547432706
2502,-8.113463,-3.622734,4.127021,0.374766,0.283136,0.188605,31.25,65.086741380154
2512,-8.163713,-3.592823,4.150351,0.37385,0.293215,0.213039,31.25,65.0464741758726
2522,-8.222337,-3.574279,4.17069,0.366977,0.303142,0.231518,31.2,65.0527565632648
2532,-8.277969,-3.52702,4.185047,0.354302,0.312916,0.244041,31.2,65.0565435859273
2542,-8.340183,-3.492923,4.204189,0.333991,0.320704,0.250607,31.23,65.0635364913389
2552,-8.409575,-3.464807,4.21735,0.308182,0.327729,0.249691,31.23,65.1237535382324
2562,-8.481958,-3.448057,4.219144,0.277944,0.333074,0.24343,31.25,65.2594926055858
2572,-8.55135,-3.427718,4.214957,0.243583,0.336739,0.23106,31.25,65.4152778177383
2582,-8.612367,-3.411567,4.206582,0.206625,0.336739,0.210443,31.23,65.5769667406811
2592,-8.675776,-3.400799,4.173681,0.169821,0.332769,0.184634,31.23,65.8727872361525
2602,-8.739186,-3.388237,4.146163,0.133627,0.325286,0.153938,31.18,66.1377607242702
2612,-8.791829,-3.385246,4.104289,0.099876,0.311236,0.118813,31.18,66.4596028301337
2622,-8.821739,-3.396612,4.027719,0.071013,0.292452,0.080787,31.18,66.9222915748279
2632,-8.887542,-3.404388,3.991827,0.045509,0.269544,0.039401,31.18,67.2453504261983
2642,-8.905487,-3.416951,3.946961,0.011301,0.213345,-0.04612,31.18,67.5206188719597
2652,-8.889336,-3.433102,3.910471,0.002138,0.181274,-0.088575,31.26,67.6884545852385
2662,-8.887542,-3.453441,3.879364,-0.001833,0.14844,-0.130878,31.26,67.8606239392323
2672,-8.873783,-3.463012,3.851248,-0.000305,0.115148,-0.172569,31.26,67.9862051991221
2682,-8.850453,-3.477968,3.824329,0.004734,0.081398,-0.211665,31.26,68.0916232003807
2692,-8.813962,-3.501298,3.809374,0.015577,0.047647,-0.247859,31.19,68.116349428569
2702,-8.776276,-3.529413,3.791427,0.030085,0.015272,-0.280693,31.19,68.1585157697175
2712,-8.709875,-3.552743,3.783053,0.047037,-0.01573,-0.30696,31.21,68.0914601456574
2722,-8.656036,-3.562315,3.789633,0.066737,-0.043677,-0.329409,31.21,67.959036856525
2732,-8.596813,-3.591627,3.789035,0.087048,-0.069791,-0.346819,31.2,67.8692472602769
2742,-8.522038,-3.611966,3.800999,0.107512,-0.091172,-0.355982,31.2,67.6741281880689
2752,-8.459227,-3.6341,3.815356,0.127976,-0.108276,-0.361021,31.19,67.4905789405713
2762,-8.400003,-3.656233,3.828516,0.147982,-0.122631,-0.359952,31.19,67.3197423111723
2772,-8.333604,-3.671188,3.848855,0.166003,-0.132558,-0.352469,31.21,67.0884698811372
2782,-8.260622,-3.678965,3.86381,0.182649,-0.13943,-0.339947,31.21,66.8639915397801
2792,-8.217552,-3.708875,3.867399,0.197615,-0.142484,-0.323453,31.21,66.7826091230325
2802,-8.115258,-3.739383,3.923631,0.210138,-0.144164,-0.302073,31.21,66.2930725343915
2812,-8.072187,-3.760919,3.945765,0.229227,-0.141721,-0.250302,31.21,66.1028470440059
2822,-8.047661,-3.777669,3.964907,0.236252,-0.137139,-0.220522,31.2,65.9637820346153
2832,-8.026724,-3.793222,3.983452,0.240834,-0.131489,-0.187994,31.2,65.8345201963789
2842,-8.018948,-3.79382,4.005585,0.24343,-0.124006,-0.154396,31.22,65.6993286765747
2852,-7.265806,-6.345766,4.776672,0.233351,-0.117744,-0.121409,31.22,63.6573978757417
2862,-8.086544,-4.214957,4.159923,0.198073,-0.092852,-0.076816,31.23,65.4786319994337
2872,-7.963912,-3.54736,3.963711,0.196851,-0.078496,-0.030085,31.23,65.5512742990437
2882,-7.95135,-3.736991,4.001996,0.191048,-0.074526,-0.00336,31.21,65.5102190342145
2892,-8.185248,-3.904488,4.134199,0.191659,-0.068264,0.026573,31.21,65.4931772436534
2902,-8.020741,-3.745365,4.062415,0.19563,-0.061087,0.064446,31.16,65.3486650419175
2912,-8.10449,-3.58744,4.091727,0.192881,-0.053298,0.089186,31.16,65.2188959535059
2922,-8.196614,-3.891328,4.205984,0.183412,-0.043371,0.107665,31.21,65.1299134268882
2932,-8.235497,-3.67059,4.21735,0.180969,-0.030391,0.129503,31.21,64.932686764257
2942,-8.181061,-3.621537,4.200002,0.167072,-0.016799,0.138514,31.21,64.8526845367554
2952,-8.372486,-3.716652,4.324429,0.1518,-0.001069,0.137292,31.21,64.728886502408
2963,-8.409575,-3.553342,4.339982,0.137139,0.016341,0.134238,31.16,64.5744415074222
2972,-8.409575,-3.671188,4.392624,0.119119,0.035736,0.122478,31.16,64.4191384759906
2982,-8.547162,-3.622135,4.418945,0.09499,0.075289,0.074526,31.2,64.5443271306796
2992,-8.514261,-3.562315,4.394419,0.054214,0.095753,0.042302,31.23,64.5394721824598
3002,-8.602198,-3.5671,4.429115,0.031765,0.115454,0.004429,31.23,64.5637054630746
3012,-8.605188,-3.616751,4.430909,0.011148,0.134848,-0.036499,31.19,64.6068511508612
3022,-8.589635,-3.534199,4.409374,-0.007178,0.153938,-0.078496,31.19,64.6051945261982
3032,-8.584252,-3.567699,4.396214,-0.026878,0.171806,-0.124006,31.23,64.6901373070354
3042,-8.582456,-3.576672,4.378268,-0.041233,0.188146,-0.166155,31.23,64.7848485581156
3052,-8.532208,-3.554538,4.326822,-0.052076,0.204487,-0.204945,31.2,64.9148569081109
3062,-8.516654,-3.570091,4.293921,-0.059254,0.217926,-0.241292,31.2,65.062571686091
3072,-8.470592,-3.600002,4.243073,-0.061545,0.230143,-0.270766,31.2,65.2498058357944
3082,-8.410173,-3.573681,4.182654,-0.058338,0.239612,-0.290925,31.2,65.4053291632767
3092,-8.352745,-3.595814,4.122834,-0.051465,0.247095,-0.303753,31.23,65.6121357978367
3102,-8.305488,-3.624528,4.067799,-0.038179,0.251982,-0.306043,31.23,65.8251902324039
3112,-8.253444,-3.614359,3.996014,-0.022297,0.25412,-0.298255,31.19,66.0826639025193
3122,-8.193025,-3.634698,3.936193,-0.002443,0.253814,-0.282067,31.19,66.2910029887625
3132,-8.172686,-3.661019,3.885944,0.021838,0.249538,-0.256716,31.18,66.5424884013496
3142,-8.136195,-3.661019,3.789035,0.049175,0.244652,-0.221286,31.18,66.9896461216958
3152,-8.124829,-3.711866,3.754937,0.076969,0.237779,-0.136834,31.2,67.1998332494737
3162,-8.145766,-3.716652,3.720839,0.135307,0.213192,-0.089339,31.25,67.4337485961716
3172,-8.158927,-3.715455,3.710072,0.164323,0.198226,-0.039859,31.25,67.5184763402353
3182,-8.209177,-3.726821,3.68734,0.190132,0.179136,0.006567,31.2,67.7555026130397
3192,-8.257631,-3.728616,3.689135,0.214261,0.157145,0.049786,31.2,67.845280752598
3202,-8.325229,-3.732804,3.699304,0.23442,0.133779,0.087812,31.2,67.9295308226881
3212,-8.403594,-3.733402,3.727419,0.249844,0.106749,0.118813,31.2,67.934875892009
3222,-8.48136,-3.738187,3.751348,0.260534,0.078191,0.141568,31.21,67.9650504609608
3232,-8.556136,-3.736991,3.785445,0.264505,0.048717,0.15348,31.21,67.9303781419364
3242,-8.623734,-3.736392,3.818945,0.262367,0.020006,0.154702,31.18,67.8860725335318
3252,-8.67817,-3.750151,3.867399,0.254578,-0.00733,0.147066,31.18,67.7513043515328
3262,-8.729016,-3.742973,3.915854,0.241139,-0.033139,0.128893,31.23,67.593809449719
3272,-8.747561,-3.741776,3.942175,0.223577,-0.057269,0.106138,31.23,67.493580806546
3282,-8.767302,-3.746562,3.980461,0.202807,-0.077427,0.077427,31.22,67.3399594412313
3292,-8.763114,-3.764508,4.009772,0.179747,-0.095142,0.042455,31.22,67.1970339410736
3302,-8.766106,-3.76391,4.042674,0.155007,-0.10965,0.005803,31.21,67.0346974833851
3312,-8.740981,-3.768098,4.069593,0.129351,-0.120035,-0.032376,31.21,66.8512500747574
3322,-8.656634,-3.776472,4.111467,0.104305,-0.127365,-0.07025,31.19,66.4751548028791
3332,-8.597412,-3.781856,4.118646,0.058643,-0.129351,-0.138361,31.19,66.3222364934363
3342,-8.529815,-3.796213,4.137789,0.038026,-0.126144,-0.166613,31.2,66.0976841730657
3352,-8.458031,-3.808177,4.134798,0.021228,-0.119424,-0.189521,31.22,65.974513795234
3362,-8.378469,-3.805784,4.135396,0.009621,-0.109345,-0.204793,31.22,65.801510490019
3372,-8.309675,-3.812365,4.133003,0.001833,-0.096211,-0.213956,31.2,65.6738839695381
3382,-8.227122,-3.811168,4.127619,-0.002138,-0.081703,-0.216246,31.2,65.5233001492956
3392,-8.172088,-3.818945,4.11386,-0.001985,-0.063225,-0.212428,31.18,65.4840485574266
3402,-8.112864,-3.821338,4.126423,0.003512,-0.043371,-0.203265,31.18,65.2910237843415
3412,-8.076375,-3.815356,4.132405,0.010843,-0.020922,-0.188452,31.2,65.1728667729465
3422,-8.042276,-3.812963,4.125226,0.020617,0.003971,-0.169668,31.2,65.1328251165263
3432,-8.006385,-3.809374,4.13061,0.032681,0.030391,-0.15012,31.17,65.0205605164325
3442,-7.997412,-3.79382,4.127021,0.046273,0.057879,-0.127365,31.17,65.0030314958396
3452,-7.990831,-3.787838,4.135994,0.060018,0.086437,-0.102931,31.21,64.9341987658476
3462,-7.999206,-3.775276,4.146163,0.074984,0.116064,-0.077733,31.21,64.8856389221159
3472,-8.016554,-3.757928,4.146163,0.088575,0.145691,-0.054367,31.2,64.9063200439849
3482,-8.030313,-3.756732,4.153342,0.102473,0.17486,-0.031612,31.2,64.897939045906
3492,-8.06441,-3.714857,4.147958,0.11469,0.202655,-0.010843,31.19,64.9594182491911
3502,-8.161918,-3.696313,4.137789,0.124769,0.251982,0.020922,31.19,65.2119187553523
3512,-8.224131,-3.692724,4.12044,0.139735,0.27214,0.033139,31.18,65.4368323975517
3522,-8.268398,-3.67059,4.100101,0.144622,0.288634,0.040928,31.22,65.6188349557792
3532,-8.322237,-3.64726,4.08395,0.147066,0.301309,0.046731,31.22,65.7980429746342
3542,-8.387442,-3.6341,4.057629,0.148593,0.308945,0.049327,31.25,66.063627908142
3552,-8.442476,-3.61376,4.025924,0.147982,0.311541,0.047495,31.25,66.3277442713883
3562,-8.486146,-3.60718,3.991228,0.145997,0.308487,0.04383,31.23,66.5950030427064
3572,-8.536395,-3.602395,3.954738,0.14279,0.300393,0.037721,31.23,66.8857809833631
3582,-8.574082,-3.589234,3.917649,0.13943,0.286801,0.028863,31.17,67.1456440749003
3592,-8.610572,-3.58744,3.881158,0.135001,0.267864,0.019242,31.17,67.4089826084405
3602,-8.648857,-3.581457,3.836891,0.131183,0.243735,0.009774,31.22,67.7123768321687
3612,-8.667401,-3.578466,3.815954,0.127365,0.216552,-0.001069,31.22,67.8563477644795
3622,-8.678768,-3.568297,3.787838,0.1237,0.185092,-0.012523,31.18,68.0179615023981
3632,-8.687142,-3.573681,3.763312,0.11973,0.151342,-0.024587,31.18,68.1674872128534
3642,-8.70808,-3.566502,3.760321,0.116981,0.117133,-0.036041,31.19,68.2181821293186
3652,-8.702098,-3.561717,3.751348,0.113163,0.083383,-0.047037,31.19,68.249906623599
3662,-8.699705,-3.579663,3.778865,0.108276,0.05116,-0.058338,31.23,68.1150952269794
3672,-8.670991,-3.580859,3.783053,0.10232,0.02138,-0.078802,31.23,68.0379963631333
3682,-8.650652,-3.591029,3.803392,0.087506,-0.029016,-0.087812,31.22,67.8994998113533
3692,-8.626723,-3.601796,3.831507,0.079871,-0.048564,-0.094837,31.18,67.7134670420239
3702,-8.592029,-3.605984,3.839284,0.072388,-0.065363,-0.10064,31.18,67.6070416196935
3712,-8.558528,-3.628117,3.863212,0.065668,-0.077427,-0.103389,31.18,67.4328423287739
3722,-8.539386,-3.638885,3.870989,0.059254,-0.088423,-0.105222,31.18,67.3626220843415
3732,-8.506484,-3.644269,3.874578,0.054367,-0.097128,-0.105527,31.19,67.2818478904261
3742,-8.492725,-3.667001,3.886542,0.05116,-0.103236,-0.104611,31.19,67.2107637827571
3752,-8.465807,-3.681358,3.902096,0.050396,-0.10797,-0.101404,31.23,67.0867344272521
3762,-8.438289,-3.704688,3.902096,0.050091,-0.110261,-0.098197,31.23,67.0513490800285
3772,-8.44128,-3.720241,3.914658,0.053145,-0.11301,-0.093462,31.24,67.0052735566776
3782,-8.410173,-3.731009,3.923631,0.057879,-0.114537,-0.088423,31.24,66.9040396366876
3792,-8.391629,-3.74716,3.91406,0.063988,-0.11469,-0.082925,31.16,66.9311951075429
3802,-8.385648,-3.781258,3.921238,0.071624,-0.114537,-0.077733,31.16,66.9124456694113
3812,-8.367103,-3.790829,3.926622,0.080634,-0.114995,-0.071777,31.17,66.854898541978
3822,-8.346764,-3.809972,3.919443,0.090408,-0.115606,-0.065668,31.17,66.8689030641836
3832,-8.353344,-3.816552,3.923631,0.101556,-0.116217,-0.060476,31.21,66.8664575526261
3842,-8.327621,-3.830909,3.940979,0.113926,-0.117133,-0.05452,31.21,66.7355958798212
3852,-8.312666,-3.832105,3.957729,0.138972,-0.118508,-0.046426,31.19,66.617494119331
3862,-8.303694,-3.832105,3.974478,0.149815,-0.117592,-0.043219,31.23,66.5105811501482
3872,-8.289336,-3.835695,4.00379,0.161421,-0.115606,-0.041386,31.23,66.3297341695127
3882,-8.3013,-3.841079,4.031906,0.171348,-0.112857,-0.041386,31.19,66.2123248921118
3892,-8.295916,-3.817749,4.062415,0.178373,-0.106596,-0.041386,31.19,66.0183865268027
3902,-8.29472,-3.813561,4.095316,0.182801,-0.098197,-0.043524,31.21,65.839649070165
3912,-8.292925,-3.811767,4.129414,0.184329,-0.085827,-0.045815,31.21,65.6561379754152
3922,-8.280961,-3.800999,4.168896,0.182801,-0.07086,-0.049022,31.23,65.4142279465446
3932,-8.276175,-3.790829,4.205984,0.178067,-0.051771,-0.05681,31.23,65.2011101570349
3942,-8.268997,-3.769294,4.243671,0.170584,-0.030391,-0.063072,31.2,64.9685804955942
3952,-8.28156,-3.762714,4.286742,0.158825,-0.005651,-0.070708,31.2,64.7672159042336
3962,-8.27139,-3.749553,4.290331,0.145997,0.022755,-0.077274,31.21,64.7129488206637
3972,-8.266603,-3.74058,4.314259,0.131336,0.051924,-0.085368,31.21,64.5699274499759
3982,-8.268398,-3.723232,4.328018,0.114079,0.083841,-0.091935,31.2,64.4856013405647
3992,-8.261818,-3.704688,4.326822,0.096975,0.115454,-0.096822,31.2,64.4583109894097
4002,-8.263614,-3.705286,4.320839,0.080481,0.147524,-0.100793,31.23,64.4937724070754
4012,-8.257033,-3.679563,4.278367,0.064446,0.177609,-0.105374,31.23,64.6726603045887
4022,-8.252846,-3.66042,4.250251,0.049786,0.231976,-0.105985,31.2,64.7900811518256
4032,-8.279764,-3.669394,4.22094,0.025962,0.253356,-0.103694,31.21,65.0111381798569
4042,-8.290532,-3.653242,4.176672,0.017104,0.271988,-0.101098,31.21,65.2496383776495
4052,-8.303694,-3.641278,4.141378,0.010996,0.286496,-0.097128,31.16,65.451282185979
4062,-8.313264,-3.652644,4.100101,0.008399,0.298102,-0.091935,31.16,65.6990543377584
4072,-8.3348,-3.64726,4.052843,0.006109,0.3036,-0.084758,31.18,65.9884043604622
4082,-8.353942,-3.639483,4.006183,0.00733,0.305891,-0.077885,31.18,66.2675395945652
4092,-8.364112,-3.635296,3.960122,0.009621,0.302836,-0.069639,31.2,66.5282797857907
4102,-8.380861,-3.631108,3.918845,0.014508,0.29688,-0.060781,31.2,66.7779969018792
4112,-8.419147,-3.625126,3.884149,0.021075,0.286496,-0.051618,31.18,67.0358806235403
4122,-8.437692,-3.613162,3.847061,0.029016,0.272293,-0.042913,31.18,67.2601477409858
4132,-8.452048,-3.613162,3.805186,0.036957,0.254884,-0.035277,31.19,67.511955141759
4142,-8.470592,-3.618546,3.792026,0.047189,0.234878,-0.027794,31.19,67.6240652960891
4152,-8.489736,-3.620341,3.766303,0.057727,0.21197,-0.020464,31.2,67.8008515128472
4162,-8.512466,-3.625126,3.74716,0.067653,0.186772,-0.013744,31.2,67.951999320726
4172,-8.529217,-3.633501,3.737589,0.078343,0.159894,-0.008094,31.19,68.0430685779644
4182,-8.553743,-3.626921,3.741179,0.088728,0.1321,-0.002749,31.19,68.0667967502161
4192,-8.569895,-3.631108,3.741776,0.09728,0.103542,0.003512,31.21,68.0988467673944
4202,-8.580065,-3.646662,3.738786,0.112552,0.046731,0.004123,31.2,68.1475182403011
4212,-8.583055,-3.651447,3.748357,0.119424,0.019395,0.004276,31.2,68.1066963673271
4222,-8.593225,-3.658626,3.768098,0.125686,-0.007178,0.003207,31.21,68.028302207333
4232,-8.582456,-3.67059,3.769892,0.131183,-0.033292,0.001833,31.21,68.0077404535852
4242,-8.565108,-3.677171,3.786642,0.137597,-0.059101,0.000305,31.22,67.8908131765271
4252,-8.565108,-3.686741,3.801597,0.14279,-0.08262,-0.001833,31.22,67.8200736147158
4262,-8.553743,-3.695116,3.818945,0.147066,-0.104153,-0.00504,31.19,67.7133783730625
4272,-8.544172,-3.707679,3.843472,0.151495,-0.123395,-0.008247,31.19,67.5761484831207
4282,-8.523833,-3.717848,3.859025,0.156076,-0.140346,-0.011301,31.19,67.4626536731511
4292,-8.500502,-3.723232,3.896114,0.15913,-0.154396,-0.015577,31.19,67.2257013140068
4302,-8.493923,-3.725027,3.922434,0.161727,-0.166461,-0.020159,31.2,67.0759399176178
4312,-8.481958,-3.736991,3.951149,0.163712,-0.174707,-0.023518,31.2,66.9119497217395
4322,-8.457432,-3.736392,3.967898,0.16417,-0.18158,-0.028711,31.2,66.7735616176641
4332,-8.443074,-3.739982,4.0008,0.165086,-0.183565,-0.033292,31.2,66.5752024432379
4342,-8.429317,-3.75075,4.019942,0.163865,-0.18387,-0.039859,31.2,66.4566359790115
4352,-8.413164,-3.756134,4.08395,0.161268,-0.181427,-0.045968,31.2,66.0945019145957
4362,-8.400003,-3.766901,4.11745,0.158367,-0.175166,-0.059559,31.18,65.9029682597759
4372,-8.400601,-3.765106,4.150949,0.145997,-0.15516,-0.069486,31.2,65.7290282471307
4382,-8.382057,-3.760321,4.159923,0.137445,-0.141263,-0.078802,31.2,65.6384619775202
4392,-8.372486,-3.760321,4.185645,0.128129,-0.125686,-0.089797,31.19,65.4849152151308
4402,-8.36112,-3.775874,4.206582,0.118355,-0.107665,-0.099418,31.19,65.3674030388902
4412,-8.367702,-3.762714,4.223332,0.106596,-0.087506,-0.111025,31.22,65.2824356786386
4422,-8.331809,-3.767499,4.241278,0.096059,-0.067653,-0.120646,31.22,65.1166764439143
4432,-8.337791,-3.761517,4.22752,0.085521,-0.04612,-0.129656,31.18,65.194794028537
4442,-8.3348,-3.759125,4.229314,0.074678,-0.025504,-0.13775,31.18,65.176679741488
4452,-8.301898,-3.760321,4.22752,0.064752,-0.004429,-0.144164,31.2,65.1153611104276
4462,-8.268398,-3.751946,4.222734,0.0562,0.017257,-0.146455,31.2,65.0584171326534
4472,-8.263614,-3.756732,4.209573,0.049022,0.038943,-0.147829,31.17,65.1210115510571
4482,-8.230114,-3.754339,4.197609,0.041386,0.060018,-0.146302,31.17,65.107281585854
4492,-8.21157,-3.742973,4.194618,0.035277,0.079565,-0.141721,31.19,65.070584620564
4502,-8.188837,-3.741776,4.164708,0.031612,0.099266,-0.133016,31.19,65.1756865038824
4512,-8.188239,-3.73041,4.155136,0.029474,0.118661,-0.123089,31.17,65.2131379717969
4522,-8.173284,-3.734598,4.128217,0.029169,0.13607,-0.109192,31.17,65.3259089736623
4532,-8.1679,-3.707081,4.091727,0.029169,0.151036,-0.095295,31.19,65.4790555473834
4542,-8.163115,-3.7005,4.074977,0.034819,0.178831,-0.061697,31.19,65.5506493234395
4552,-8.175079,-3.689135,4.065406,0.039248,0.19059,-0.044899,31.19,65.6163163046087
4562,-8.199606,-3.680759,4.055236,0.04383,0.200517,-0.029016,31.21,65.7155479333647
4572,-8.201998,-3.663411,4.034897,0.050549,0.209221,-0.013134,31.21,65.8116743951825
4582,-8.22772,-3.656233,4.031906,0.057879,0.216399,0.000916,31.18,65.8764828438091
4592,-8.250452,-3.64726,4.024727,0.065057,0.222508,0.01405,31.18,65.9551359505537
4602,-8.27139,-3.631108,4.023531,0.071319,0.227395,0.024587,31.19,65.9913267453858
4612,-8.298308,-3.619144,4.025924,0.078496,0.231671,0.032223,31.19,66.025424614202
4622,-8.330612,-3.614359,4.014558,0.085368,0.23442,0.040012,31.16,66.1503403884774
4632,-8.365308,-3.61735,4.010371,0.091935,0.236405,0.043677,31.16,66.2492165787323
4642,-8.397013,-3.605386,4.008576,0.098807,0.237932,0.047647,31.17,66.3150356323559
4652,-8.421539,-3.597609,4.009174,0.10568,0.239154,0.049022,31.17,66.3567545347409
4662,-8.448458,-3.578466,3.999603,0.110719,0.238543,0.048106,31.19,66.4466099132317
4672,-8.488539,-3.580859,4.003192,0.114995,0.236405,0.044746,31.19,66.5141150855168
4682,-8.525627,-3.578466,3.997808,0.118813,0.233961,0.040012,31.25,66.6175852064276
4692,-8.550752,-3.579663,3.976273,0.120646,0.229685,0.033139,31.25,66.7831461882093
4702,-8.593225,-3.58385,3.946961,0.122173,0.222813,0.023213,31.2,67.0269077323447
4712,-8.642875,-3.59043,3.923631,0.122631,0.201433,-0.002138,31.2,67.2547606357267
4722,-8.681759,-3.592823,3.889533,0.12034,0.185856,-0.018479,31.2,67.5121832933578
4732,-8.705089,-3.599404,3.873382,0.118202,0.165544,-0.036346,31.21,67.6479295668588
4742,-8.720044,-3.609573,3.847061,0.115148,0.142026,-0.054367,31.21,67.8226416003634
4752,-8.736196,-3.620341,3.826123,0.111636,0.114537,-0.073609,31.2,67.9719131372097
4762,-8.730214,-3.625126,3.802794,0.10797,0.082772,-0.093768,31.2,68.0857337792805
4772,-8.723633,-3.641278,3.774678,0.104763,0.048869,-0.113316,31.19,68.2328389640583
4782,-8.719445,-3.649055,3.760321,0.100335,0.01237,-0.131947,31.19,68.3061293242618
4792,-8.716455,-3.666403,3.745964,0.096975,-0.026573,-0.14844,31.17,68.3895114937841
4802,-8.674582,-3.678366,3.739982,0.092393,-0.065515,-0.162796,31.17,68.3503383935083
4812,-8.64826,-3.694518,3.736392,0.089644,-0.104,-0.173638,31.2,68.331852500504
4822,-8.598608,-3.704688,3.736392,0.087354,-0.141873,-0.180969,31.2,68.2445086199907
4833,-8.558528,-3.734598,3.744768,0.086437,-0.176845,-0.184023,31.19,68.1477015131128
4842,-8.511868,-3.745964,3.762714,0.085521,-0.210901,-0.183107,31.19,67.971419027545
4852,-8.450253,-3.758526,3.790231,0.086896,-0.239459,-0.177151,31.19,67.7149721141578
4862,-8.401799,-3.762115,3.809374,0.087812,-0.263588,-0.169362,31.19,67.5197936000433
4872,-8.344371,-3.777669,3.888337,0.090255,-0.282372,-0.155618,31.21,66.9984448474719
4882,-8.254042,-3.796811,3.923631,0.093768,-0.294895,-0.120035,31.21,66.6424236369927
4892,-8.203195,-3.808775,3.976273,0.103084,-0.301157,-0.098044,31.21,66.2675683807134
4902,-8.163713,-3.812365,4.019942,0.10797,-0.292299,-0.074373,31.2,65.955299515545
4912,-8.134999,-3.800999,4.055834,0.113621,-0.278402,-0.051007,31.2,65.6916496040745
4922,-8.119445,-3.819543,4.098905,0.11973,-0.258854,-0.027489,31.21,65.4488172479617
4932,-8.086544,-3.822534,4.148556,0.124311,-0.23503,-0.00504,31.21,65.1176024467373
4942,-8.085348,-3.814159,4.193422,0.130114,-0.205556,0.017257,31.2,64.8700653286079
4952,-8.094919,-3.8004,4.232305,0.133932,-0.173486,0.035277,31.2,64.6730887545817
4964,-8.09133,-3.804588,4.268795,0.13775,-0.138666,0.050244,31.24,64.4787256731931
4972,-8.121839,-3.798008,4.307081,0.138666,-0.10232,0.062614,31.24,64.3413298587655
4982,-8.142776,-3.778865,4.342973,0.139125,-0.065821,0.070708,31.21,64.1825521768136
4992,-8.16132,-3.776472,4.366901,0.137445,-0.027031,0.072082,31.21,64.0985860968556
5002,-8.189436,-3.778865,4.382454,0.133627,0.011454,0.07086,31.2,64.0848549315231
5012,-8.24148,-3.76391,4.395615,0.128587,0.048258,0.064446,31.2,64.1196005028257
5022,-8.2678,-3.753142,4.398008,0.121257,0.084452,0.052076,31.21,64.155691267579
5032,-8.295916,-3.728616,4.408776,0.112246,0.118966,0.037568,31.21,64.1391258854986
5042,-8.335398,-3.716652,4.403392,0.102014,0.1518,0.018937,31.19,64.2433391761678
5052,-8.404191,-3.691527,4.372883,0.09163,0.181427,-0.003818,31.19,64.5273282491131
5062,-8.430512,-3.671188,4.360919,0.067653,0.23274,-0.055741,31.18,64.6267959129749
5072,-8.440084,-3.668795,4.342375,0.056505,0.254273,-0.082314,31.2,64.7400092220821
5082,-8.456833,-3.655036,4.296313,0.046273,0.272293,-0.110414,31.2,64.9986075466191
5092,-8.469396,-3.655036,4.269992,0.036194,0.286954,-0.135765,31.21,65.1605450706836
5102,-8.462815,-3.639483,4.225127,0.027642,0.29856,-0.158214,31.21,65.3617494595218
5112,-8.467602,-3.6341,4.189234,0.020922,0.306654,-0.179594,31.24,65.5517888099328
5122,-8.461619,-3.625725,4.143172,0.015424,0.312763,-0.195782,31.24,65.7691086463486
5132,-8.435897,-3.620341,4.091727,0.011759,0.313985,-0.207389,31.2,65.9762722020113
5142,-8.423933,-3.619144,4.046861,0.011148,0.312763,-0.214719,31.2,66.1838694518087
5152,-8.422137,-3.619742,3.993621,0.010843,0.308334,-0.216399,31.24,66.4596883138182
5162,-8.382057,-3.615555,3.946362,0.013439,0.301309,-0.21197,31.24,66.6207833306367
5172,-8.370691,-3.608975,3.900899,0.017868,0.290772,-0.202655,31.2,66.8320206972986
5182,-8.339585,-3.622734,3.852444,0.024587,0.279624,-0.187536,31.2,67.0378001021741
5192,-8.317451,-3.624528,3.807579,0.032834,0.265726,-0.16753,31.17,67.2338701657844
5202,-8.306085,-3.625725,3.77049,0.041997,0.248164,-0.14279,31.17,67.4110411615678
5212,-8.299506,-3.611368,3.742973,0.054062,0.229838,-0.114079,31.2,67.5332194230318
5222,-8.298907,-3.641876,3.692724,0.065363,0.209221,-0.08323,31.2,67.8311885627005
5232,-8.296515,-3.632903,3.675974,0.078191,0.162948,-0.016799,31.21,67.909300232342
5242,-8.302496,-3.640081,3.672385,0.104458,0.138361,0.016341,31.18,67.9471953437294
5252,-8.334201,-3.645465,3.67059,0.118355,0.112552,0.048411,31.18,68.0253409093436
5262,-8.36471,-3.638885,3.677171,0.131031,0.085216,0.078343,31.2,68.0450123853744
5272,-8.377871,-3.640081,3.686144,0.14279,0.058338,0.104153,31.2,68.0238896514085
5282,-8.426923,-3.652644,3.7005,0.153022,0.030849,0.124617,31.25,68.0551222277586
5292,-8.456833,-3.658028,3.735795,0.161116,0.004276,0.141263,31.25,67.9301839737228
5302,-8.49452,-3.657429,3.762714,0.167683,-0.020769,0.151495,31.17,67.861125384561
5312,-8.535797,-3.658626,3.802195,0.171195,-0.044135,0.156076,31.17,67.7349449418962
5322,-8.585447,-3.673581,3.838088,0.172111,-0.065363,0.154396,31.18,67.6572369946089
5332,-8.612367,-3.679563,3.89073,0.171653,-0.083841,0.145997,31.18,67.4403670047706
5342,-8.637491,-3.678366,3.932006,0.169057,-0.099418,0.131794,31.18,67.2746878541632
5352,-8.659625,-3.686741,3.97747,0.16249,-0.111177,0.111483,31.18,67.0907623876315
5362,-8.663813,-3.692724,4.012764,0.154549,-0.11973,0.087201,31.18,66.9223117802977
5372,-8.693723,-3.703491,4.045665,0.144928,-0.125227,0.059559,31.18,66.8229407881562
5382,-8.685348,-3.706482,4.074977,0.133474,-0.128282,0.029322,31.22,66.6585067418779
5392,-8.674582,-3.71725,4.122235,0.121409,-0.130114,-0.004734,31.22,66.4046158081314
5402,-8.648857,-3.735196,4.135994,0.108887,-0.129809,-0.071471,31.18,66.2975354233731
5412,-8.628518,-3.735795,4.144369,0.083841,-0.126907,-0.103847,31.21,66.2134632410692
5422,-8.597412,-3.74716,4.153342,0.071471,-0.123853,-0.13439,31.21,66.1135209024537
5432,-8.556733,-3.754339,4.15394,0.060323,-0.119424,-0.161421,31.23,66.0324220587693
5442,-8.519047,-3.757928,4.144967,0.051313,-0.114843,-0.185245,31.23,66.0030417407612
5452,-8.469995,-3.766303,4.147958,0.042913,-0.108887,-0.205251,31.2,65.8924981840515
5462,-8.414959,-3.767499,4.143172,0.036041,-0.101556,-0.221133,31.2,65.8020249589932
5472,-8.362316,-3.778267,4.141976,0.031918,-0.093157,-0.229685,31.18,65.7065425267287
5482,-8.31147,-3.777071,4.127619,0.029169,-0.083841,-0.235489,31.18,65.6712523498724
5492,-8.260024,-3.77408,4.118048,0.027489,-0.073457,-0.236099,31.19,65.6076084652321
5502,-8.223534,-3.769294,4.11745,0.029322,-0.062156,-0.23106,31.19,65.5270136312285
5512,-8.178668,-3.777071,4.096512,0.03207,-0.049938,-0.221897,31.17,65.5473838832805
5522,-8.147561,-3.772285,4.094718,0.036041,-0.036652,-0.207541,31.17,65.4841790317959
5532,-8.109276,-3.765106,4.085146,0.040775,-0.022907,-0.190895,31.19,65.4436318126953
5542,-8.091928,-3.75733,4.084548,0.047037,-0.008858,-0.170737,31.19,65.4006777398472
5552,-8.068598,-3.759723,4.071986,0.05452,0.006567,-0.14676,31.21,65.4184507158513
5562,-8.059625,-3.751946,4.076771,0.062003,0.022602,-0.122326,31.21,65.365135295973
5572,-8.05783,-3.724428,4.085745,0.069486,0.038637,-0.096059,31.18,65.2850278026584
5582,-8.070992,-3.722036,4.076173,0.084147,0.07025,-0.04383,31.16,65.3627987693159
5592,-8.097312,-3.708875,4.085146,0.091783,0.085979,-0.019242,31.16,65.3600049383086
5602,-8.130214,-3.695116,4.086941,0.097128,0.100945,0.003207,31.19,65.4094003317059
5612,-8.166704,-3.675974,4.086941,0.101862,0.114385,0.02306,31.19,65.4708182500619
5622,-8.209177,-3.671786,4.091727,0.105069,0.127976,0.039095,31.2,65.5347358314439
5632,-8.240283,-3.655036,4.098307,0.106443,0.139735,0.052382,31.2,65.5518398059152
5642,-8.296515,-3.637689,4.095316,0.106749,0.149815,0.061392,31.23,65.6735579692005
5652,-8.333005,-3.6341,4.097709,0.105832,0.157603,0.065821,31.23,65.7367583902366
5662,-8.387442,-3.618546,4.106084,0.103084,0.164475,0.065668,31.21,65.7959334332667
5672,-8.421539,-3.60718,4.092923,0.09896,0.169057,0.061697,31.21,65.9273022032078
5682,-8.468199,-3.600002,4.089932,0.094379,0.171195,0.054214,31.21,66.0359060982249
5692,-8.502895,-3.591627,4.082754,0.088575,0.171806,0.043677,31.21,66.1392658996273
5702,-8.551949,-3.586841,4.086343,0.082009,0.169668,0.029474,31.18,66.2198645736685
5712,-8.562119,-3.596412,4.080959,0.075595,0.166155,0.014203,31.18,66.2774873800677
5722,-8.586046,-3.589234,4.062415,0.06857,0.160658,-0.004276,31.2,66.4170810462234
5732,-8.590831,-3.595216,4.045067,0.06185,0.153327,-0.021991,31.2,66.521978006763
5742,-8.598608,-3.599404,4.016353,0.056352,0.145386,-0.039401,31.18,66.6904170195326
5752,-8.595018,-3.604787,3.993023,0.051771,0.125533,-0.071319,31.18,66.8087348092567
5762,-8.5681,-3.613162,3.969693,0.0478,0.114079,-0.083841,31.22,66.8821317876857
5772,-8.56152,-3.63051,3.943372,0.047647,0.101556,-0.09331,31.19,67.0209938778558
5782,-8.519646,-3.637689,3.932604,0.050702,0.087812,-0.100182,31.19,66.9980427900747
5792,-8.510075,-3.653242,3.917051,0.0562,0.073457,-0.104153,31.18,67.0736568427447
5802,-8.492128,-3.661019,3.909872,0.062003,0.059254,-0.104305,31.18,67.0815716432267
5812,-8.452645,-3.678965,3.888935,0.068722,0.045357,-0.101556,31.2,67.1271170670145
5822,-8.429914,-3.68734,3.881757,0.078496,0.031154,-0.095448,31.2,67.1260696716248
5832,-8.41436,-3.689733,3.869194,0.087354,0.016493,-0.087506,31.22,67.1629103852832
5842,-8.382057,-3.706482,3.865605,0.097738,0.002291,-0.077427,31.22,67.1309607412789
5852,-8.375478,-3.708277,3.869194,0.109192,-0.010996,-0.067653,31.23,67.1000595221619
5862,-8.358727,-3.723232,3.874578,0.119577,-0.023518,-0.055283,31.23,67.0507322139585
5872,-8.346166,-3.728018,3.879962,0.129503,-0.03543,-0.042761,31.23,67.0007046323076
5882,-8.350951,-3.734,3.90389,0.139125,-0.04612,-0.030849,31.23,66.8891456813866
5892,-8.338987,-3.744169,3.920042,0.14676,-0.055589,-0.018479,31.16,66.788281545645
5902,-8.347363,-3.750151,3.944568,0.152869,-0.064599,-0.00901,31.16,66.6815480822197
5912,-8.365907,-3.754937,3.987041,0.15684,-0.071166,-0.00168,31.21,66.5008722831373
5922,-8.375478,-3.753142,4.023531,0.159283,-0.076053,0.008094,31.21,66.3277781773275
5932,-8.386844,-3.765705,4.046263,0.157145,-0.080481,0.008552,31.22,66.2445477374801
5942,-8.379665,-3.754937,4.073183,0.153327,-0.079412,0.007636,31.16,66.0788371828737
5952,-8.397013,-3.753142,4.09711,0.147829,-0.076969,0.00336,31.16,65.9892222160237
5962,-8.405987,-3.756732,4.126423,0.140346,-0.071777,-0.003818,31.2,65.8594834108008
5972,-8.420941,-3.757928,4.146762,0.131031,-0.065668,-0.013592,31.2,65.7870820190021
5982,-8.421539,-3.749553,4.173083,0.12034,-0.057116,-0.025198,31.2,65.6445096587656
5992,-8.420342,-3.75075,4.197011,0.109345,-0.047037,-0.038943,31.2,65.5197821300862
6002,-8.413763,-3.744169,4.200002,0.09728,-0.036194,-0.054214,31.22,65.4839966153935
6012,-8.405388,-3.744169,4.214359,0.085063,-0.02138,-0.068875,31.22,65.3920734158097
6022,-8.397013,-3.743571,4.228117,0.071777,-0.006567,-0.083536,31.23,65.3026405407762
6032,-8.386245,-3.737589,4.232903,0.06017,0.009621,-0.096822,31.23,65.2489434353697
6042,-8.375478,-3.739982,4.233501,0.047647,0.02642,-0.110261,31.17,65.2248299361409
6052,-8.35454,-3.738187,4.226323,0.036957,0.042302,-0.122173,31.17,65.2145996530107
6062,-8.331809,-3.732804,4.215555,0.027031,0.060934,-0.131183,31.21,65.2154917978574
6072,-8.322237,-3.726821,4.210171,0.018479,0.078802,-0.137445,31.21,65.2166369750973
6082,-8.300103,-3.711866,4.176672,0.011606,0.096669,-0.14111,31.2,65.3276360060007
6092,-8.258827,-3.713063,4.155735,0.006567,0.11301,-0.141263,31.2,65.3478121797515
6102,-8.247462,-3.698107,4.138985,0.003818,0.144775,-0.132252,31.2,65.3959002422229
6112,-8.230114,-3.697509,4.105485,0.005498,0.158978,-0.122631,31.23,65.5332746073631
6122,-8.215756,-3.692724,4.089334,0.008552,0.171348,-0.11133,31.23,65.5822993624335
6132,-8.213962,-3.69392,4.068397,0.012981,0.182496,-0.096669,31.21,65.6900811936826
6142,-8.21157,-3.677768,4.046263,0.020006,0.192728,-0.080176,31.21,65.7862012295382
6152,-8.221141,-3.672385,4.016353,0.028405,0.200517,-0.063072,31.23,65.9603130249809
6162,-8.222935,-3.662215,3.993023,0.037415,0.205556,-0.045051,31.23,66.0783450653576
6172,-8.252247,-3.65384,3.982255,0.047189,0.208916,-0.027642,31.21,66.1906048817146
6182,-8.274979,-3.652644,3.954738,0.057727,0.210443,-0.010079,31.21,66.3842976090198
6192,-8.297711,-3.646064,3.948756,0.068875,0.209527,0.005192,31.2,66.4582052696208
6202,-8.339585,-3.638287,3.908078,0.079718,0.205862,0.01909,31.2,66.7554196585848
6212,-8.360522,-3.635296,3.908078,0.089339,0.199906,0.031154,31.17,66.796456252297
6222,-8.417352,-3.631108,3.895515,0.098349,0.190437,0.039248,31.17,66.9772955645056
6232,-8.446067,-3.613162,3.885944,0.106596,0.179747,0.044593,31.22,67.0712527728854
6242,-8.485548,-3.615555,3.877569,0.113468,0.16585,0.046884,31.22,67.1985230586446
6252,-8.510075,-3.604787,3.871587,0.119119,0.150426,0.045815,31.18,67.270748654225
6262,-8.587242,-3.605984,3.868596,0.122631,0.1321,0.040928,31.18,67.4435182219619
6272,-8.602796,-3.597011,3.860221,0.124617,0.091172,0.023671,31.18,67.5111184301156
6282,-8.626723,-3.602993,3.862016,0.124464,0.069791,0.010232,31.24,67.5545539374255
6292,-8.641679,-3.598207,3.861418,0.122937,0.047342,-0.003818,31.24,67.5835227852819
6302,-8.636893,-3.604189,3.869792,0.118661,0.02474,-0.019853,31.18,67.5351610270313
6312,-8.635098,-3.593421,3.870989,0.11469,0.002596,-0.034361,31.18,67.5163573520551
6322,-8.636893,-3.60718,3.882355,0.110108,-0.020311,-0.050244,31.21,67.472006198881
6332,-8.623135,-3.61376,3.88714,0.104458,-0.04215,-0.065515,31.21,67.4249859614189
6342,-8.598608,-3.620939,3.889533,0.099418,-0.062766,-0.080481,31.21,67.3693061835112
6352,-8.582456,-3.620341,3.896114,0.095295,-0.082314,-0.090713,31.21,67.3018295018115
6362,-8.559725,-3.640081,3.897908,0.09163,-0.10064,-0.100793,31.18,67.2634187416291
6372,-8.523234,-3.653242,3.908078,0.087965,-0.116981,-0.107665,31.18,67.1475331534635
6382,-8.491529,-3.662215,3.915854,0.08491,-0.131031,-0.112399,31.17,67.0499665793668
6392,-8.456833,-3.668197,3.926622,0.083841,-0.142484,-0.112399,31.17,66.9275533536012
6402,-8.413763,-3.684947,3.946362,0.08491,-0.152258,-0.10965,31.19,66.7498217707473
6412,-8.392825,-3.705884,3.954139,0.085979,-0.158672,-0.104458,31.19,66.6845316664237
6422,-8.342576,-3.720241,3.969693,0.087659,-0.162796,-0.096975,31.18,66.5110415646925
6432,-8.330013,-3.736392,4.011567,0.09163,-0.164323,-0.085979,31.18,66.2792226025919
6442,-8.279764,-3.733402,4.031308,0.095142,-0.160505,-0.063072,31.2,66.0658713696963
6452,-8.277372,-3.747759,4.057031,0.104763,-0.154243,-0.048869,31.2,65.9392144685654
6462,-8.265409,-3.754339,4.074379,0.108887,-0.144928,-0.036041,31.2,65.828805238042
6472,-8.255836,-3.754937,4.10728,0.111483,-0.133474,-0.023518,31.18,65.6361160878758
6482,-8.253444,-3.764508,4.125226,0.113621,-0.120493,-0.012675,31.18,65.5463708181437
6492,-8.25464,-3.763312,4.150949,0.115606,-0.104916,-0.003818,31.2,65.4133016985622
6502,-8.258228,-3.766901,4.183252,0.114995,-0.086896,0.003818,31.2,65.2562438664949
6512,-8.274979,-3.772883,4.211368,0.11301,-0.067348,0.006567,31.19,65.1526746317037
6522,-8.276773,-3.763312,4.235895,0.108276,-0.045815,0.007178,31.19,65.0199406549065
6532,-8.285149,-3.76391,4.25085,0.103084,-0.022907,0.006261,31.22,64.9615758792025
6542,-8.306085,-3.759125,4.277769,0.0956,0.000764,0.002291,31.22,64.863971816196
6552,-8.321041,-3.759723,4.293921,0.087965,0.026267,-0.005498,31.2,64.8144041171168
6562,-8.325229,-3.746562,4.305884,0.077122,0.051465,-0.015577,31.2,64.7491080450216
6572,-8.333604,-3.754937,4.304688,0.066432,0.076969,-0.027031,31.17,64.7820346943621
6582,-8.338388,-3.737589,4.3005,0.056047,0.102167,-0.041997,31.17,64.7968886130608
6592,-8.338987,-3.727419,4.305884,0.044135,0.126907,-0.056963,31.21,64.7605306366118
6602,-8.340781,-3.728616,4.275376,0.033445,0.151647,-0.072082,31.21,64.9224257826248
6612,-8.353344,-3.719643,4.246064,0.023213,0.17486,-0.10064,31.18,65.0921343097597
6622,-8.349156,-3.71067,4.219743,0.007483,0.214872,-0.114537,31.2,65.2101261471075
6632,-8.348558,-3.701099,4.186243,0.002443,0.232129,-0.126602,31.2,65.3729902629121
6642,-8.359326,-3.711866,4.150949,-0.000305,0.246331,-0.135918,31.17,65.5897833099298
6652,-8.34796,-3.695715,4.108477,-0.000764,0.257174,-0.142637,31.17,65.7710686337477
6662,-8.342576,-3.701697,4.07737,0.000916,0.264963,-0.14676,31.22,65.927782609099
6672,-8.340781,-3.688536,4.039683,0.004887,0.269392,-0.147829,31.22,66.1091020312138
6682,-8.342576,-3.685545,3.99721,0.010232,0.270002,-0.146455,31.27,66.3335531910931
6692,-8.346166,-3.675375,3.970291,0.017257,0.268017,-0.140957,31.27,66.4736832164764
6702,-8.338987,-3.669992,3.934398,0.025809,0.262977,-0.133321,31.2,66.6435429865609
6712,-8.352745,-3.671188,3.91406,0.034514,0.254731,-0.124006,31.2,66.7812137168614
6722,-8.376076,-3.666403,3.872783,0.04444,0.245415,-0.111941,31.2,67.0443293093833
6732,-8.369495,-3.65384,3.856034,0.054214,0.233351,-0.097433,31.2,67.108532928091
6742,-8.377871,-3.64726,3.839284,0.064141,0.218384,-0.082009,31.21,67.2090901130324
6752,-8.386245,-3.648456,3.81715,0.074984,0.20128,-0.065973,31.21,67.3453326592678
6762,-8.4012,-3.639483,3.800999,0.083689,0.183718,-0.048869,31.21,67.4540623175447
6772,-8.415558,-3.632903,3.796811,0.092699,0.164934,-0.032529,31.21,67.4997967294074
6782,-8.453843,-3.628117,3.775276,0.099724,0.144317,-0.017868,31.23,67.6878005354314
6792,-8.470592,-3.627519,3.772883,0.112094,0.098655,0.011148,31.23,67.7336547254058
6802,-8.489736,-3.623332,3.764508,0.116217,0.075136,0.022907,31.2,67.8129523335953
6812,-8.49452,-3.628716,3.781258,0.11973,0.051007,0.033139,31.16,67.7380403467034
6822,-8.516654,-3.624528,3.783053,0.122478,0.026267,0.041081,31.16,67.7691541976259
6832,-8.523833,-3.636492,3.789035,0.123395,0.002291,0.046884,31.21,67.7619191039543
6842,-8.534002,-3.637689,3.800999,0.124311,-0.023366,0.051924,31.21,67.7198773710041
6852,-8.536395,-3.629912,3.81057,0.123395,-0.046884,0.054825,31.2,67.6674472545183
6862,-8.545368,-3.65384,3.825525,0.121409,-0.069944,0.055283,31.2,67.6267960691934
6872,-8.532805,-3.64068,3.850052,0.119119,-0.091324,0.053909,31.22,67.4611076051057
6882,-8.544769,-3.658028,3.865007,0.116217,-0.112094,0.051007,31.22,67.4213648211116
6892,-8.532805,-3.657429,3.88714,0.113316,-0.130572,0.046578,31.18,67.2804693874098
6902,-8.531011,-3.665804,3.908078,0.10965,-0.147066,0.041539,31.18,67.1742608754273
6912,-8.511868,-3.665206,3.932604,0.104916,-0.160658,0.035736,31.17,67.0062614013335
6922,-8.505887,-3.671786,3.952345,0.101404,-0.172569,0.029627,31.17,66.8964732314461
6932,-8.490333,-3.692724,3.981059,0.098197,-0.180816,0.022449,31.22,66.7330564453699
6942,-8.479566,-3.686741,4.004987,0.09499,-0.186467,0.014966,31.22,66.5805275144834
6952,-8.461619,-3.709473,4.055834,0.092088,-0.189063,0.006872,31.17,66.2989860831729
6965,-8.432307,-3.708875,4.080959,0.086743,-0.185856,-0.01069,31.19,66.1062601942725
6972,-8.419147,-3.713661,4.101896,0.084758,-0.180205,-0.018021,31.19,65.9740952158404
6982,-8.407183,-3.724428,4.129414,0.082772,-0.171348,-0.027794,31.21,65.8159800553334
6992,-8.389835,-3.723232,4.147958,0.081245,-0.160352,-0.035888,31.21,65.6816682580287
7002,-8.374281,-3.724428,4.174279,0.080023,-0.146302,-0.044288,31.23,65.5130448100236
7012,-8.377273,-3.725027,4.194618,0.078496,-0.130725,-0.052687,31.23,65.4148692369826
7022,-8.352147,-3.741776,4.199404,0.077427,-0.113163,-0.060781,31.19,65.3519493133209
7032,-8.345568,-3.735196,4.20718,0.076664,-0.094073,-0.068111,31.19,65.2910767915205
7042,-8.335996,-3.732205,4.233501,0.075289,-0.072998,-0.076969,31.2,65.1312923681543
7052,-8.328817,-3.739383,4.238287,0.074067,-0.05116,-0.084758,31.2,65.0979236751958
7062,-8.31147,-3.731009,4.24726,0.071777,-0.029322,-0.091783,31.21,65.0053186650727
7072,-8.320443,-3.726821,4.24726,0.068417,-0.006414,-0.099724,31.21,65.0209019000572
7082,-8.312666,-3.732804,4.253242,0.066279,0.017562,-0.106291,31.19,64.9788240756064
7092,-8.289336,-3.726821,4.255635,0.062919,0.041997,-0.111941,31.19,64.9091354345409
7102,-8.298308,-3.722634,4.248456,0.05849,0.064752,-0.11805,31.2,64.9619020067546
7112,-8.286345,-3.725027,4.238885,0.053756,0.086896,-0.122784,31.2,64.9874359798861
7122,-8.294122,-3.714857,4.216752,0.048717,0.108734,-0.126755,31.2,65.1092312000729
7132,-8.285748,-3.697509,4.209573,0.043219,0.129045,-0.131947,31.2,65.1110326123347
7142,-8.283952,-3.696911,4.191627,0.030696,0.165697,-0.132863,31.16,65.1998253123894
7152,-8.28455,-3.699304,4.165905,0.025504,0.181732,-0.133016,31.2,65.3374917327904
7162,-8.2678,-3.682554,4.141378,0.018173,0.195935,-0.131641,31.2,65.4126687672264
7172,-8.285149,-3.679563,4.11745,0.013134,0.208152,-0.12874,31.18,65.5729215435667
7182,-8.285149,-3.67059,4.104887,0.007636,0.21869,-0.123853,31.18,65.6301348414525
7192,-8.286943,-3.676572,4.069593,0.002902,0.22602,-0.117133,31.18,65.8251672363526
7202,-8.283952,-3.668795,4.036692,0.000305,0.231671,-0.109498,31.18,65.984631211128
7212,-8.297112,-3.661019,4.01396,-0.002291,0.23442,-0.100487,31.17,66.125499331974
7222,-8.303095,-3.655635,3.982853,-0.002596,0.235183,-0.090255,31.17,66.2977241903091
7232,-8.307282,-3.656233,3.961318,-0.001985,0.233961,-0.077885,31.22,66.4212812819127
7242,-8.315059,-3.652644,3.932006,0.000611,0.22938,-0.065057,31.22,66.5899549269161
7252,-8.328219,-3.64726,3.907479,0.005192,0.22266,-0.050396,31.17,66.7430208963982
7262,-8.33121,-3.646662,3.879962,0.010843,0.214414,-0.035583,31.17,66.8952403792814
7272,-8.350353,-3.649653,3.860221,0.018631,0.20464,-0.021228,31.2,67.0429258123417
7282,-8.371889,-3.655036,3.836891,0.027489,0.191812,-0.006414,31.2,67.2165255111633
7292,-8.382057,-3.646064,3.826123,0.037721,0.177915,0.007789,31.23,67.2867750213641
7302,-8.423933,-3.63051,3.809374,0.048106,0.162796,0.02138,31.23,67.4477273988479
7312,-8.438289,-3.643671,3.802794,0.071319,0.127213,0.043982,31.15,67.5233678743956
7322,-8.463414,-3.638885,3.809972,0.083689,0.108429,0.053145,31.18,67.5317856135443
7332,-8.493923,-3.644269,3.81715,0.094684,0.088575,0.058643,31.18,67.5598160741463
7342,-8.523833,-3.641278,3.814159,0.105374,0.06857,0.062919,31.19,67.633048457235
7352,-8.539985,-3.652046,3.823731,0.114537,0.0478,0.065057,31.19,67.6239810880453
7362,-8.541181,-3.647858,3.839882,0.122326,0.026878,0.063683,31.18,67.5376513042292
7372,-8.57827,-3.643671,3.848257,0.128282,0.005803,0.059407,31.18,67.5641934364168
7382,-8.601001,-3.653242,3.863212,0.131336,-0.013897,0.053756,31.2,67.5392042543855
7392,-8.605188,-3.648456,3.878766,0.13439,-0.034056,0.04444,31.2,67.4621128353152
7402,-8.617152,-3.650849,3.894917,0.135154,-0.052993,0.033903,31.18,67.4036831531931
7412,-8.625527,-3.667001,3.924229,0.132252,-0.071319,0.021228,31.18,67.2814622429162
7422,-8.608777,-3.654438,3.949354,0.129962,-0.088117,0.007178,31.2,67.1063541896684
7432,-8.59143,-3.67059,3.961916,0.125533,-0.104,-0.007483,31.2,67.0198615914381
7442,-8.595617,-3.680161,3.972684,0.11973,-0.117897,-0.023213,31.22,66.9807153547395
7452,-8.582456,-3.683152,3.987639,0.112552,-0.130725,-0.037263,31.22,66.8789680100169
7462,-8.557931,-3.677171,4.0008,0.104763,-0.141721,-0.052382,31.2,66.7553060165978
7472,-8.499905,-3.702295,4.021737,0.096822,-0.150426,-0.065515,31.2,66.5493971361191
7482,-8.474779,-3.697509,4.03071,0.088117,-0.163406,-0.087048,31.16,66.4462472884964
7492,-8.453244,-3.710072,4.041477,0.073151,-0.165697,-0.095295,31.2,66.3567503926939
7502,-8.410173,-3.716652,4.054638,0.065363,-0.167072,-0.101251,31.2,66.203943625288
7512,-8.377871,-3.717848,4.068397,0.057727,-0.166308,-0.104916,31.2,66.0650424946365
7522,-8.341978,-3.728018,4.079762,0.052229,-0.163101,-0.106443,31.2,65.9390084054403
7532,-8.30489,-3.741776,4.082156,0.0478,-0.157756,-0.104916,31.14,65.8604535145047
7542,-8.291729,-3.738187,4.096512,0.044593,-0.149509,-0.102167,31.14,65.7535589807898
7552,-8.265409,-3.742973,4.098307,0.043066,-0.139125,-0.096975,31.21,65.6921130344963
7562,-8.233105,-3.754339,4.114459,0.042302,-0.126755,-0.090561,31.21,65.5486419768119
7572,-8.221739,-3.741179,4.133601,0.042608,-0.112857,-0.081856,31.2,65.4104193391234
7582,-8.199606,-3.74058,4.142574,0.04444,-0.096059,-0.072693,31.2,65.3142797111862
7592,-8.186445,-3.745365,4.155136,0.045815,-0.078191,-0.063683,31.18,65.2242312087979
7602,-8.172686,-3.741776,4.176074,0.047342,-0.057879,-0.055283,31.18,65.0804052039257
7612,-8.17149,-3.734598,4.189234,0.051007,-0.03543,-0.044899,31.17,65.0015043941635
7622,-8.179267,-3.74058,4.200002,0.054062,-0.013286,-0.035736,31.17,64.9684927153071
7632,-8.183454,-3.728616,4.207779,0.05681,0.01069,-0.028711,31.19,64.9249981013165
7642,-8.19781,-3.729214,4.223332,0.058338,0.036652,-0.021686,31.19,64.876355816392
7652,-8.225926,-3.711866,4.232903,0.060628,0.062766,-0.012065,31.23,64.8715745139969
7662,-8.249256,-3.702893,4.232305,0.061087,0.114537,-0.009774,31.14,64.9175540927633
7672,-8.270193,-3.694518,4.238287,0.060934,0.140041,-0.009163,31.14,64.9246106581274
7682,-8.300103,-3.695116,4.229912,0.058185,0.163865,-0.010537,31.17,65.0347560055262
7692,-8.316256,-3.690929,4.218546,0.054978,0.186008,-0.013592,31.17,65.1251144591215
7702,-8.345568,-3.683152,4.203591,0.051465,0.206167,-0.017715,31.18,65.259274072536
7712,-8.370093,-3.67059,4.191627,0.046731,0.223729,-0.023518,31.18,65.3626627521622
7722,-8.389236,-3.664608,4.178466,0.042455,0.23839,-0.02978,31.2,65.4667054313339
7732,-8.395219,-3.652644,4.142574,0.037263,0.249844,-0.03543,31.2,65.6545388980472
7742,-8.432905,-3.65384,4.126423,0.032376,0.257938,-0.043219,31.2,65.8203896398528
7752,-8.449656,-3.650849,4.084548,0.028558,0.262367,-0.051618,31.2,66.0708008607747
7762,-8.470592,-3.641278,4.052843,0.02474,0.264505,-0.057879,31.2,66.2712883345653
7772,-8.462815,-3.644269,4.031308,0.021228,0.262672,-0.06521,31.2,66.369932100837
7782,-8.477771,-3.637689,3.99063,0.019395,0.256411,-0.071319,31.22,66.6078239428428
7792,-8.489137,-3.618546,3.964907,0.017868,0.248164,-0.076053,31.22,66.7491215190716
7802,-8.505887,-3.633501,3.923631,0.018173,0.236405,-0.079107,31.21,67.0132822670377
7812,-8.496315,-3.629314,3.864408,0.019548,0.222508,-0.081856,31.21,67.3018642771419
7822,-8.488539,-3.629912,3.845864,0.02138,0.206472,-0.08262,31.18,67.3845863857213
7832,-8.483154,-3.6341,3.813561,0.028253,0.166461,-0.079871,31.24,67.5483953637496
7842,-8.474181,-3.629314,3.80399,0.032987,0.145386,-0.076205,31.24,67.5769831333184
7852,-8.479566,-3.626921,3.781856,0.038332,0.12202,-0.07086,31.19,67.7033801615358
7862,-8.466404,-3.63051,3.760321,0.045815,0.09896,-0.064904,31.19,67.7947693973813
7872,-8.46461,-3.625725,3.755535,0.05284,0.074831,-0.058796,31.2,67.8126037884406
7882,-8.467003,-3.641876,3.744768,0.060323,0.050396,-0.050396,31.2,67.8886581313703
7892,-8.454441,-3.643072,3.738187,0.06857,0.025198,-0.041692,31.19,67.8997987601972
7902,-8.456235,-3.646662,3.751348,0.076816,0.001374,-0.032987,31.19,67.8361891990597
7912,-8.456833,-3.643072,3.753142,0.085979,-0.023366,-0.024129,31.2,67.8247208050772
7922,-8.448458,-3.652644,3.760919,0.094226,-0.045509,-0.014813,31.2,67.7747458810627
7932,-8.450253,-3.655036,3.769892,0.101862,-0.067501,-0.005803,31.21,67.7325661646088
7942,-8.452645,-3.668795,3.802195,0.109192,-0.089492,0.00168,31.21,67.5774333861116
7952,-8.44128,-3.667001,3.815954,0.115454,-0.108429,0.008858,31.19,67.4798560753386
7962,-8.445468,-3.672385,3.854239,0.121104,-0.125991,0.016188,31.19,67.2900484062399
7972,-8.444869,-3.677768,3.878766,0.125686,-0.140804,0.021686,31.22,67.1638788095752
7982,-8.440681,-3.678965,3.918247,0.128587,-0.154243,0.025351,31.22,66.9480680679136
7992,-8.431709,-3.694518,3.974478,0.13042,-0.163254,0.029932,31.19,66.6479499460742
8002,-8.431709,-3.698107,4.012166,0.12874,-0.173791,0.03146,31.19,66.4538138251607
8012,-8.422735,-3.7005,4.046861,0.12538,-0.174249,0.030696,31.2,66.2559702951186
8022,-8.425727,-3.699902,4.084548,0.120493,-0.171348,0.027489,31.15,66.0653791831478
8032,-8.417951,-3.708875,4.114459,0.113468,-0.16585,0.02306,31.15,65.901850612277
8042,-8.41436,-3.702893,4.145566,0.106749,-0.155618,0.017104,31.19,65.7273017960734
8052,-8.400003,-3.716054,4.183851,0.097891,-0.144775,0.010537,31.19,65.5109291505313
8062,-8.409575,-3.717848,4.198806,0.088575,-0.13042,0.001985,31.18,65.4560592094617
8072,-8.404191,-3.724428,4.228716,0.078038,-0.113468,-0.007483,31.18,65.2966815841555
8082,-8.397612,-3.724428,4.233501,0.067042,-0.09499,-0.017868,31.17,65.2578199839794
8092,-8.380263,-3.728018,4.253242,0.055894,-0.074678,-0.028405,31.17,65.1220653644277
8112,-8.368299,-3.736392,4.251448,0.034056,-0.031918,-0.051007,31.21,65.1133563930796
8122,-8.359326,-3.729812,4.266403,0.023824,-0.008705,-0.061392,31.2,65.0104242318357
8132,-8.346166,-3.724428,4.253242,0.014813,0.012523,-0.072235,31.2,65.0441009987743
8142,-8.353344,-3.720839,4.244868,0.00672,0.034972,-0.081856,31.17,65.0994637181661
8152,-8.337791,-3.739383,4.232305,0.000153,0.055283,-0.090255,31.17,65.1484084425185
8162,-8.32463,-3.738786,4.196413,-0.005803,0.074373,-0.098807,31.14,65.3048174321219
8172,-8.315059,-3.747759,4.16411,-0.009163,0.110108,-0.112246,31.14,65.460484141738
8182,-8.320443,-3.728018,4.141976,-0.011148,0.12538,-0.115759,31.17,65.5681258022391
8192,-8.325827,-3.728018,4.125825,-0.010843,0.138208,-0.118661,31.18,65.663907323765
8202,-8.316256,-3.726223,4.101896,-0.008399,0.148746,-0.119577,31.18,65.766538365547
8212,-8.327023,-3.717848,4.067799,-0.004429,0.157603,-0.120035,31.24,65.9600398524678
8222,-8.313264,-3.710072,4.057031,0.000916,0.164628,-0.11805,31.24,65.9797264423583
8232,-8.319845,-3.709473,4.027121,0.00672,0.167683,-0.116064,31.18,66.1503920902456
8242,-8.319246,-3.713063,4.010371,0.013592,0.169821,-0.11133,31.18,66.2407050713673
8252,-8.338987,-3.702295,3.998407,0.020159,0.169973,-0.106443,31.2,66.3353308887124
8262,-8.343175,-3.695715,3.983452,0.027336,0.167377,-0.10064,31.2,66.4168347013201
8272,-8.352745,-3.68375,3.96072,0.034208,0.16417,-0.095142,31.18,66.5458082536896
8282,-8.35813,-3.68375,3.951746,0.040317,0.159741,-0.08827,31.18,66.604495020015
8292,-8.35155,-3.681358,3.939782,0.046731,0.153327,-0.080634,31.17,66.6517939852677
8302,-8.360522,-3.667001,3.931407,0.051771,0.146455,-0.073151,31.17,66.7016772918387
8312,-8.380861,-3.672983,3.92064,0.056505,0.138514,-0.064752,31.18,66.8064651136885
8322,-8.389835,-3.65384,3.917051,0.060323,0.12874,-0.056505,31.18,66.8267226320135
8332,-8.398808,-3.648456,3.905087,0.063835,0.119271,-0.047647,31.21,66.9037984019149
8342,-8.416754,-3.64726,3.889533,0.066126,0.109498,-0.03146,31.21,67.022136923355
8352,-8.41436,-3.64068,3.892524,0.070097,0.086743,-0.023671,31.18,66.9954919724869
8362,-8.436494,-3.64068,3.885346,0.072235,0.073915,-0.017104,31.2,67.0790423844569
8372,-8.438888,-3.632305,3.893123,0.073609,0.061392,-0.008705,31.2,67.0354158880794
8382,-8.444869,-3.637689,3.882355,0.074831,0.0478,-0.002596,31.16,67.1094028107166
8392,-8.452645,-3.637091,3.891328,0.076664,0.034056,0.004123,31.16,67.0774013625758
8402,-8.450851,-3.638287,3.897908,0.077885,0.020006,0.010996,31.24,67.0400272448219
8412,-8.456833,-3.635894,3.899105,0.07926,0.005651,0.016493,31.24,67.0438812660388
8422,-8.464012,-3.642474,3.896712,0.080023,-0.008705,0.021838,31.18,67.0770385982817
8432,-8.457432,-3.644867,3.893123,0.082009,-0.02138,0.027794,31.18,67.0846049375026
8442,-8.471789,-3.658626,3.900301,0.084299,-0.034819,0.032681,31.22,67.0882855228916
8452,-8.462217,-3.656233,3.910471,0.085674,-0.0478,0.03711,31.22,67.0129965628751
8462,-8.456235,-3.655635,3.923631,0.087354,-0.05849,0.042608,31.2,66.9308746186004
8472,-8.444869,-3.67059,3.929613,0.088575,-0.069791,0.044288,31.2,66.8893298801745
8482,-8.44427,-3.664608,3.949354,0.090408,-0.080023,0.046578,31.22,66.7788879217998
8492,-8.442476,-3.674777,3.952943,0.091783,-0.087965,0.0478,31.22,66.7654574935488
8502,-8.432307,-3.667599,3.976273,0.091935,-0.094684,0.048411,31.21,66.6153521520027
8512,-8.42453,-3.69392,4.016353,0.092393,-0.100335,0.048106,31.21,66.4130762591331
8522,-8.428718,-3.691527,4.031308,0.092546,-0.106596,0.043524,31.18,66.3414706414976
8532,-8.423334,-3.696911,4.051647,0.09163,-0.106443,0.038943,31.18,66.228945516518
8542,-8.412566,-3.703491,4.070191,0.089644,-0.104916,0.033598,31.18,66.1156539743801
8552,-8.433504,-3.7005,4.08754,0.08827,-0.101251,0.027489,31.23,66.0668110368165
8562,-8.398808,-3.713661,4.114459,0.085521,-0.0956,0.018479,31.23,65.8656294015234
8572,-8.416155,-3.708875,4.124628,0.08262,-0.087965,0.008858,31.19,65.8452703957489
8582,-8.404191,-3.712464,4.13719,0.078649,-0.077733,-0.001527,31.19,65.7579953713376
8592,-8.395219,-3.712464,4.169494,0.074984,-0.066279,-0.012828,31.18,65.571452387779
8602,-8.397013,-3.717848,4.170092,0.07025,-0.052687,-0.024893,31.18,65.5773319752434
8612,-8.404191,-3.71725,4.196413,0.064294,-0.038485,-0.037874,31.21,65.4562345111559
8622,-8.385049,-3.717848,4.20718,0.058338,-0.022449,-0.051924,31.21,65.3599166533195
8632,-8.367702,-3.714259,4.210171,0.052076,-0.005192,-0.064752,31.19,65.303418881219
8642,-8.382057,-3.710072,4.213162,0.046884,0.012675,-0.078038,31.19,65.3151007561861
8652,-8.383254,-3.722634,4.222734,0.040317,0.031307,-0.09163,31.16,65.2804097473294
8662,-8.366504,-3.714259,4.223332,0.033292,0.049633,-0.103694,31.16,65.2328608564901
8672,-8.378469,-3.722634,4.219144,0.026573,0.068417,-0.11637,31.2,65.2885412308933
8682,-8.37129,-3.701099,4.199404,0.020617,0.08659,-0.126144,31.2,65.3542025862637
8692,-8.362316,-3.71067,4.182654,0.015119,0.121257,-0.14111,31.23,65.4306328460756
8702,-8.348558,-3.699902,4.162913,0.005345,0.136528,-0.146913,31.16,65.4929150641712
8712,-8.335398,-3.709473,4.14078,0.001374,0.151036,-0.149815,31.16,65.5887666080734
8722,-8.34138,-3.709473,4.121039,-0.000611,0.163559,-0.149967,31.25,65.7045187956814
8732,-8.312068,-3.712464,4.089334,-0.002902,0.173638,-0.14844,31.25,65.8100552747123
8742,-8.319845,-3.705884,4.068995,-0.003665,0.182038,-0.145844,31.14,65.9270257410416
8752,-8.327023,-3.698706,4.046861,-0.004276,0.188452,-0.140652,31.14,66.0517009749087
8762,-8.407183,-3.114259,4.585247,-0.007178,0.190895,-0.133474,31.15,62.9132034127883
8772,-8.571091,-3.256632,4.481159,-0.103542,0.178678,-0.143248,31.15,63.9537089487259
8782,-8.079366,-3.731607,3.783651,-0.16081,0.167988,-0.148288,31.23,66.9670659762854
8792,-8.402995,-3.724428,3.975675,-0.142942,0.160963,-0.118813,31.23,66.6094280282152
8802,-8.133204,-3.71067,3.750151,-0.132405,0.151953,-0.100487,31.18,67.2422203859627
8812,-8.376076,-3.716652,3.89731,-0.117592,0.13943,-0.073915,31.18,66.9598588739916
8822,-8.2014,-3.748357,3.760919,-0.107665,0.127213,-0.055283,31.2,67.3602288733789
8832,-8.355139,-3.708277,3.830311,-0.091019,0.113163,-0.025809,31.2,67.2652971294688
8842,-8.266603,-3.726821,3.746562,-0.08262,0.097433,-0.007789,31.17,67.5510648047498
8852,-8.383853,-3.747759,3.758526,-0.06857,0.081703,0.016799,31.17,67.7419775638516
8862,-8.415558,-3.727419,3.803392,-0.06017,0.065515,0.049175,31.17,67.5481924113011
8872,-8.383254,-3.735795,3.781856,-0.041386,0.029932,0.062308,31.21,67.6054953079662
8882,-8.447262,-3.728018,3.809972,-0.032681,0.011148,0.074984,31.21,67.5773618026281
8892,-8.449057,-3.73041,3.79741,-0.026878,-0.007025,0.081092,31.18,67.6496953330102
8902,-8.484949,-3.745365,3.823133,-0.021228,-0.025198,0.086285,31.18,67.5982480674127
8912,-8.492725,-3.734,3.82732,-0.016188,-0.043371,0.089034,31.22,67.5816616992674
8922,-8.519047,-3.741179,3.844668,-0.011454,-0.061697,0.089644,31.22,67.5489638850502
8932,-8.53161,-3.747759,3.849453,-0.008399,-0.078954,0.087506,31.18,67.5545381201949
8942,-8.543573,-3.727419,3.869792,-0.004276,-0.096211,0.084605,31.18,67.4538940572279
8952,-8.553743,-3.738187,3.882355,-0.001374,-0.112094,0.080329,31.18,67.4177541725942
8966,-8.541181,-3.736991,3.918247,-0.000153,-0.127824,0.072693,31.18,67.203909624663
8972,-8.541181,-3.736991,3.918247,0.001985,-0.141415,0.067195,31.16,67.203909624663
8982,-8.548359,-3.745964,3.919443,0.004581,-0.154549,0.060628,31.16,67.2199816292413
8992,-8.52443,-3.736392,3.945765,0.005651,-0.166308,0.053756,31.16,67.0259051431685
9002,-8.522635,-3.748955,3.961916,0.007025,-0.175929,0.047495,31.16,66.9492363380479
9012,-8.506484,-3.739982,3.976273,0.008552,-0.183412,0.04215,31.23,66.8335155963368
9022,-8.467602,-3.744169,3.996612,0.009316,-0.189826,0.036346,31.23,66.6515262405505
9032,-8.445468,-3.746562,4.025326,0.011454,-0.193033,0.03375,31.2,66.4582315877465
9042,-8.423933,-3.747759,4.051647,0.01237,-0.194713,0.027947,31.18,66.2773324641493
9052,-8.392226,-3.741776,4.064209,0.013134,-0.191964,0.027642,31.18,66.1397145462984
9062,-8.380861,-3.738187,4.075575,0.013592,-0.186772,0.028711,31.2,66.0530693872642
9072,-8.344969,-3.738187,4.09412,0.013744,-0.178831,0.029932,31.2,65.8800806003088
9082,-8.32463,-3.739383,4.107878,0.013897,-0.169821,0.031918,31.18,65.7659209775435
9093,-8.298907,-3.74716,4.113262,0.014508,-0.159283,0.033598,31.18,65.6900786570156
9102,-8.292925,-3.741776,4.134798,0.014203,-0.146455,0.036957,31.2,65.5594574852848
9112,-8.277969,-3.735795,4.149753,0.014203,-0.130267,0.04047,31.2,65.4431272923727
9122,-8.266006,-3.722634,4.161717,0.012981,-0.113468,0.043371,31.2,65.3416782301511
9132,-8.248059,-3.726223,4.168896,0.011759,-0.095448,0.04612,31.2,65.2684587048373
9142,-8.249256,-3.71725,4.194618,0.010079,-0.075747,0.048717,31.21,65.1279917992595
9152,-8.245667,-3.724428,4.19402,0.007941,-0.055436,0.050549,31.21,65.1303364880487
9162,-8.246264,-3.707679,4.202993,0.004429,-0.033903,0.052076,31.18,65.068239873657
9172,-8.255836,-3.714857,4.202394,0.000611,-0.011606,0.052382,31.18,65.0996074931874
9182,-8.250452,-3.701697,4.217948,-0.003054,0.011759,0.051618,31.2,64.9936837078253
9192,-8.254042,-3.689135,4.216154,-0.007636,0.034056,0.05116,31.2,64.9985116555027
9202,-8.461619,-3.294319,4.603193,-0.012828,0.056658,0.048258,31.2,63.1175533702098
9212,-8.178668,-3.686741,4.098905,-0.056505,0.116217,0.010079,31.2,65.4445631691948
9222,-8.333005,-3.697509,4.191627,-0.103694,0.132863,0.015424,31.22,65.3077495832919
9232,-8.229516,-3.675375,4.084548,-0.10568,0.147829,0.013592,31.23,65.6206104021264
9242,-8.356933,-3.662215,4.14078,-0.104458,0.161727,0.015882,31.23,65.5902039256781
9252,-8.295319,-3.692126,4.089932,-0.106901,0.173944,0.012675,31.2,65.7513271468791
9262,-8.361719,-3.661617,4.091727,-0.105069,0.182496,0.012523,31.2,65.8558569487006
9272,-8.347363,-3.654438,4.051049,-0.106291,0.189368,0.00901,31.21,66.0314566545963
9282,-8.410173,-3.672983,4.052843,-0.104916,0.19395,0.008399,31.21,66.1728488042649
9292,-8.399406,-3.648456,4.019344,-0.104916,0.197768,0.005345,31.2,66.3028963531457
9302,-8.440084,-3.64068,4.011567,-0.103236,0.198073,0.002443,31.2,66.4222009508281
9312,-8.444869,-3.657429,3.98405,-0.103236,0.195935,-0.001833,31.2,66.5915178720778
9322,-8.467003,-3.649055,3.973282,-0.099876,0.191659,-0.005345,31.2,66.6864518453601
9332,-8.475378,-3.64726,3.951746,-0.098807,0.185703,-0.01069,31.22,66.8151195300277
9342,-8.487941,-3.655635,3.9338,-0.096059,0.177762,-0.014355,31.22,66.9425760740803
9352,-8.518449,-3.641876,3.918845,-0.092241,0.166919,-0.019242,31.21,67.0713936386137
9362,-8.525029,-3.641876,3.884149,-0.088728,0.154396,-0.023671,31.21,67.266986059528
9372,-8.539985,-3.648456,3.849453,-0.084758,0.140041,-0.026725,31.18,67.485357154814
9382,-8.548957,-3.64068,3.835097,-0.079718,0.123242,-0.03375,31.18,67.5723002550971
9392,-8.545966,-3.644269,3.806383,-0.069333,0.084299,-0.036652,31.2,67.7208414157591
9402,-8.556733,-3.647858,3.802794,-0.064446,0.062614,-0.038485,31.2,67.7642281883627
9412,-8.541181,-3.637689,3.787838,-0.059254,0.039706,-0.040775,31.2,67.8037784212619
9422,-8.547761,-3.642474,3.781258,-0.052687,0.015272,-0.041844,31.2,67.8556844565086
9432,-8.538787,-3.644867,3.769892,-0.047495,-0.009468,-0.04215,31.2,67.900112658298
9442,-8.53819,-3.655635,3.78066,-0.043066,-0.034819,-0.042302,31.23,67.8510270246643
9452,-8.522635,-3.656831,3.769892,-0.038637,-0.060934,-0.040928,31.23,67.8782744543469
9462,-8.510672,-3.662813,3.781258,-0.034056,-0.086437,-0.038026,31.18,67.799384549418
9472,-8.501101,-3.662813,3.77408,-0.031001,-0.111177,-0.035583,31.18,67.8184383905559
9482,-8.477173,-3.664608,3.790829,-0.025962,-0.135307,-0.031154,31.21,67.6833627674668
9492,-8.46461,-3.669394,3.800999,-0.023213,-0.158061,-0.027336,31.21,67.6083460032009
9502,-8.445468,-3.671786,3.81057,-0.020159,-0.178984,-0.020769,31.21,67.521104730027
9512,-8.428718,-3.677171,3.831507,-0.017562,-0.198226,-0.01405,31.21,67.3807972099331
9522,-8.416754,-3.692126,3.846462,-0.015272,-0.21533,-0.007636,31.18,67.2904253183391
9532,-8.400003,-3.698107,3.865007,-0.012523,-0.230754,0.000458,31.18,67.1632828293326
9542,-8.396414,-3.712464,3.92722,-0.00901,-0.242514,0.010843,31.22,66.8398758843259
9552,-8.353942,-3.71725,3.931407,-0.006414,-0.251066,0.019242,31.22,66.7342071738083
9562,-8.335398,-3.721437,3.970291,-0.00168,-0.261145,0.037874,31.17,66.4939648432266
9572,-8.324032,-3.719045,3.996612,0.001833,-0.262061,0.047189,31.18,66.3289763628149
9582,-8.317451,-3.745365,4.029513,0.004734,-0.258396,0.0562,31.18,66.1668424019537
9592,-8.306085,-3.728616,4.066004,0.007025,-0.252135,0.06353,31.18,65.9350252841107
9602,-8.303095,-3.742374,4.098905,0.00901,-0.242819,0.070708,31.18,65.7695069794568
9612,-8.290532,-3.737589,4.11745,0.011606,-0.230602,0.076511,31.18,65.6408355078358
9622,-8.294122,-3.734598,4.14736,0.012828,-0.215177,0.08094,31.18,65.4895058431596
9632,-8.298308,-3.748357,4.178466,0.013134,-0.197309,0.083536,31.18,65.350116466273
9642,-8.290532,-3.744768,4.194618,0.013592,-0.177304,0.085674,31.18,65.2457236054122
9652,-8.295319,-3.755535,4.22752,0.011912,-0.154854,0.084452,31.18,65.096227165774
9662,-8.296515,-3.742374,4.244269,0.010843,-0.130572,0.08323,31.18,64.999151156741
9672,-8.297112,-3.760321,4.262814,0.008705,-0.105069,0.077427,31.19,64.9225145375468
9682,-8.3013,-3.75075,4.275974,0.004887,-0.077274,0.072693,31.19,64.85433389563
9692,-8.318647,-3.748357,4.284349,0.001222,-0.04948,0.065821,31.15,64.8470542839558
9702,-8.313862,-3.739982,4.299304,-0.003207,-0.021838,0.056047,31.15,64.7512543188174
9712,-8.334201,-3.745964,4.302295,-0.009774,0.006414,0.045662,31.2,64.7867318416411
9722,-8.343175,-3.743571,4.299304,-0.015577,0.034361,0.035125,31.2,64.8194811911254
9732,-8.352147,-3.738187,4.285545,-0.028253,0.086896,0.009468,31.19,64.9045272077594
9742,-8.366504,-3.724428,4.268795,-0.034208,0.111483,-0.004123,31.2,65.0085857897311
9752,-8.356933,-3.729812,4.247859,-0.04047,0.133779,-0.016799,31.2,65.1006319375558
9762,-8.378469,-3.716054,4.238287,-0.046273,0.153938,-0.030543,31.14,65.1835389765931
9772,-8.382057,-3.719045,4.200002,-0.051771,0.172111,-0.042761,31.14,65.3916513501034
9782,-8.387442,-3.716054,4.181458,-0.0562,0.186772,-0.055436,31.19,65.4962478315592
9792,-8.387442,-3.70409,4.143771,-0.060781,0.198989,-0.067042,31.19,65.6800931279856
9802,-8.402995,-3.695715,4.116851,-0.063835,0.209069,-0.075747,31.21,65.8452570157871
9812,-8.387442,-3.687938,4.084548,-0.065515,0.215941,-0.08262,31.21,65.9730105956258
9822,-8.383853,-3.69392,4.057031,-0.06689,0.219606,-0.088881,31.17,66.1146909769597
9832,-8.389835,-3.681956,4.027719,-0.067042,0.219606,-0.092852,31.17,66.2696540841346
9842,-8.383853,-3.672385,3.997808,-0.066126,0.218232,-0.094073,31.17,66.4052120160508
9852,-8.383254,-3.667599,3.971487,-0.063988,0.214719,-0.093157,31.17,66.5380832900378
9862,-8.383853,-3.671786,3.945765,-0.061392,0.208152,-0.090103,31.2,66.6788221887949
9872,-8.385049,-3.655036,3.926622,-0.057574,0.199447,-0.085368,31.2,66.7672213661843
9882,-8.391629,-3.652644,3.899105,-0.053603,0.189063,-0.077274,31.16,66.9243890618344
9892,-8.375478,-3.649055,3.851846,-0.048564,0.177609,-0.068111,31.16,67.1388567329406
9902,-8.383853,-3.637091,3.838088,-0.043219,0.150426,-0.044593,31.16,67.2186729907889
9912,-8.372486,-3.64068,3.82732,-0.030085,0.135307,-0.031154,31.17,67.2559717588394
9922,-8.388638,-3.636492,3.815356,-0.02306,0.118813,-0.017562,31.17,67.3491808407644
9932,-8.39462,-3.633501,3.812365,-0.016188,0.102167,-0.00336,31.16,67.37471501292
9942,-8.400601,-3.62393,3.796213,-0.008858,0.085063,0.010385,31.16,67.464723376096
9952,-8.417951,-3.623332,3.789633,-0.001985,0.066737,0.025045,31.2,67.5345921621617
9962,-8.413164,-3.629314,3.792624,0.004887,0.047953,0.038637,31.2,67.5141425583454
9972,-8.430512,-3.620939,3.787838,0.011301,0.030238,0.051465,31.21,67.5675342425103
9982,-8.449656,-3.627519,3.79382,0.016952,0.011606,0.062766,31.21,67.5800558639875
9992,-8.456833,-3.62393,3.802195,0.022755,-0.00672,0.072998,31.17,67.5468712138957
10002,-8.474181,-3.61077,3.82074,0.027642,-0.025656,0.081398,31.17,67.4720573580024
10012,-8.489137,-3.625725,3.823731,0.032223,-0.04383,0.085827,31.2,67.4993307254926
10022,-8.493324,-3.627519,3.851846,0.035888,-0.06185,0.089186,31.2,67.3605858716627
10032,-8.504689,-3.625725,3.85723,0.03711,-0.078649,0.091783,31.18,67.3536284316181
10042,-8.526823,-3.633501,3.867998,0.03879,-0.094837,0.090255,31.18,67.3483587772489
10052,-8.526226,-3.632903,3.892524,0.039248,-0.109345,0.087506,31.19,67.2176274681054
10062,-8.525627,-3.638885,3.923631,0.039095,-0.124158,0.083689,31.19,67.0583361663721
10072,-8.539386,-3.649055,3.955934,0.038637,-0.136376,0.067959,31.18,66.9263125069069
10082,-8.517252,-3.659822,3.971487,0.034056,-0.157145,0.058185,31.2,66.8091651157158
10092,-8.528618,-3.667599,3.979264,0.031307,-0.166766,0.045815,31.2,66.7988009816716
10102,-8.519646,-3.662813,4.006183,0.027489,-0.172417,0.034208,31.18,66.6358294130278
10112,-8.508279,-3.674777,4.019942,0.022449,-0.176998,0.021838,31.18,66.5513619575292
10122,-8.495118,-3.677171,4.045067,0.019242,-0.181122,0.010079,31.2,66.3955087428077
10132,-8.478369,-3.689135,4.051049,0.015882,-0.181274,-0.002902,31.2,66.3403027815407
10142,-8.470592,-3.698706,4.067799,0.011606,-0.1799,-0.01573,31.2,66.2457312342577
10152,-8.440681,-3.705286,4.081557,0.008247,-0.177304,-0.027642,31.2,66.1174774611176
10162,-8.419147,-3.701099,4.095914,0.00504,-0.171959,-0.037721,31.17,65.9934591925712
10172,-8.399406,-3.714259,4.119842,0.001833,-0.164781,-0.047647,31.17,65.8395025755007
10182,-8.391031,-3.722634,4.125226,0,-0.155312,-0.056047,31.23,65.8015958418517
10192,-8.36471,-3.716652,4.131807,-0.002902,-0.14508,-0.063988,31.23,65.7054136797161
10202,-8.337791,-3.717848,4.145566,-0.004887,-0.131794,-0.070402,31.18,65.5770729288875
10212,-8.326425,-3.728616,4.158726,-0.006109,-0.118202,-0.0759,31.18,65.4944599203271
10222,-8.309675,-3.731009,4.168297,-0.00733,-0.100945,-0.078343,31.21,65.4107110256334
10232,-8.303095,-3.731607,4.181458,-0.007789,-0.082772,-0.078649,31.21,65.3285604651061
10242,-8.26481,-3.735196,4.191029,-0.009163,-0.064446,-0.078954,31.18,65.1986637345426
10252,-8.257631,-3.732205,4.206582,-0.010385,-0.023213,-0.078191,31.18,65.0989940227925
10262,-8.260024,-3.732804,4.196413,-0.011912,-0.001527,-0.075747,31.19,65.1577646199077
10272,-8.237292,-3.734598,4.202394,-0.013592,0.020006,-0.073609,31.2,65.0783835804984
10282,-8.243872,-3.731607,4.198207,-0.015424,0.043219,-0.069944,31.2,65.1117118609823
10292,-8.250452,-3.731009,4.193422,-0.016646,0.065363,-0.065821,31.2,65.150525551571
10302,-8.260622,-3.716652,4.18086,-0.019395,0.085827,-0.062308,31.2,65.2241171270791
10312,-8.26481,-3.715455,4.179663,-0.021838,0.105832,-0.058643,31.22,65.2383661385265
10322,-8.293524,-3.713063,4.16411,-0.023518,0.1237,-0.054367,31.22,65.3798706950664
10332,-8.287541,-3.710072,4.14736,-0.025504,0.140804,-0.050396,31.2,65.4512903798916
10342,-8.31147,-3.707081,4.136592,-0.027947,0.156076,-0.045815,31.2,65.5565454793713
10352,-8.319246,-3.707679,4.101896,-0.029627,0.169057,-0.043066,31.17,65.7551532723223
10362,-8.338987,-3.708875,4.077968,-0.030849,0.178525,-0.040012,31.17,65.9237979183324
10372,-8.344371,-3.698107,4.069593,-0.031307,0.186619,-0.036652,31.18,65.9689276247178
10382,-8.377273,-3.7005,4.046861,-0.031307,0.191659,-0.032529,31.18,66.1601088389
10392,-8.373683,-3.695116,4.013362,-0.031001,0.193797,-0.029016,31.22,66.3231249833786
10402,-8.400003,-3.683152,3.99721,-0.030238,0.193033,-0.026573,31.22,66.4521620578828
10412,-8.432307,-3.476772,4.168896,-0.028558,0.189368,-0.023518,31.16,65.4363700328573
10422,-8.355139,-3.694518,3.860221,-0.054367,0.175624,-0.035736,31.16,67.0934844934929
10432,-8.482555,-3.707679,3.894917,-0.067042,0.163712,-0.02474,31.21,67.1819202633686
10442,-8.388638,-3.693322,3.812963,-0.059865,0.148288,-0.018784,31.21,67.4124980485012
10452,-8.472985,-3.690929,3.841677,-0.04948,0.131794,-0.009468,31.21,67.4285038766459
10462,-8.436494,-3.713063,3.803392,-0.041692,0.11301,-0.004734,31.19,67.577496932962
10472,-8.468798,-3.688536,3.820141,-0.031154,0.094684,0.003207,31.19,67.531942524045
10482,-8.453244,-3.7005,3.793222,-0.022449,0.07422,0.009621,31.23,67.6540219671624
10492,-8.479566,-3.701099,3.806383,-0.013897,0.052687,0.016493,31.23,67.6373469490052
10502,-8.473583,-3.686144,3.79741,-0.005192,0.032681,0.022755,31.2,67.6599339724038
10512,-8.48136,-3.689733,3.803392,0.003207,0.011759,0.029322,31.2,67.6468820224903
10522,-8.47119,-3.696911,3.805784,0.010232,-0.009621,0.033903,31.22,67.6201268402124
10532,-8.467602,-3.690929,3.824329,0.017562,-0.029474,0.038332,31.22,67.5094549217275
10542,-8.478967,-3.692724,3.829114,0.023824,-0.047342,0.041997,31.18,67.5085321491542
10552,-8.462815,-3.698107,3.844069,0.028558,-0.065363,0.044593,31.18,67.4016710356631
10562,-8.470592,-3.696313,3.861418,0.032376,-0.081245,0.0478,31.2,67.3241371830351
10572,-8.455039,-3.682554,3.882355,0.035736,-0.095753,0.048411,31.2,67.1699062166385
10582,-8.460423,-3.686144,3.926622,0.038332,-0.109498,0.048411,31.2,66.9509437400137
10592,-8.447262,-3.698706,3.941577,0.040317,-0.120035,0.047953,31.2,66.8565919729347
10602,-8.444869,-3.695116,3.962514,0.041692,-0.135612,0.047037,31.2,66.7385029662112
10612,-8.446067,-3.693322,3.98405,0.041539,-0.140346,0.045204,31.2,66.6264725108317
10622,-8.425727,-3.69392,4.008576,0.040164,-0.142484,0.043066,31.2,66.4562734510505
10632,-8.427522,-3.686144,4.026522,0.039248,-0.14279,0.04047,31.2,66.3590339089671
10642,-8.41436,-3.695715,4.04387,0.037263,-0.140194,0.03879,31.2,66.2495533277002
10652,-8.397612,-3.702893,4.066602,0.034667,-0.135459,0.035583,31.18,66.1022022768073
10662,-8.394022,-3.687938,4.080361,0.03207,-0.129962,0.03146,31.18,66.0088477052695
10672,-8.393424,-3.690331,4.099504,0.029932,-0.121562,0.029016,31.25,65.9100404965643
10682,-8.386245,-3.697509,4.112664,0.026725,-0.111636,0.025809,31.25,65.8329566128701
10692,-8.387442,-3.689135,4.128816,0.02306,-0.101098,0.021991,31.2,65.7436248021359
10702,-8.367702,-3.7005,4.136592,0.019395,-0.087812,0.018784,31.2,65.671582541733
10712,-8.362915,-3.697509,4.152744,0.014661,-0.074984,0.015577,31.16,65.5744815684601
10722,-8.357532,-3.693322,4.151547,0.01069,-0.061087,0.011606,31.16,65.565084629913
10732,-8.349156,-3.71067,4.157529,0.007025,-0.04612,0.008552,31.18,65.5325137915564
10742,-8.341978,-3.710072,4.153342,0.003207,-0.031001,0.005345,31.18,65.5381907179219
10752,-8.346764,-3.695116,4.158128,-0.001527,-0.015882,0.002291,31.15,65.509306020679
10762,-8.340781,-3.693322,4.145566,-0.004734,-0.001374,-0.000153,31.15,65.5599862399383
10772,-8.335996,-3.691527,4.136592,-0.012828,0.026267,-0.005956,31.21,65.5946621778225
10782,-8.333604,-3.701099,4.122235,-0.016493,0.039401,-0.009468,31.22,65.6735264199861
10792,-8.344969,-3.702295,4.115057,-0.018784,0.050702,-0.01237,31.22,65.7365761332692
10802,-8.346764,-3.701697,4.110271,-0.021075,0.061697,-0.015119,31.21,65.7648305239563
10812,-8.355738,-3.68734,4.091727,-0.023213,0.071471,-0.017715,31.21,65.8672762526324
10822,-8.349156,-3.693322,4.083352,-0.025809,0.079565,-0.020159,31.18,65.9026233936009
10832,-8.359925,-3.690331,4.073781,-0.027031,0.085827,-0.021228,31.18,65.9728607835165
10842,-8.365308,-3.643671,4.085745,-0.029169,0.090713,-0.025504,31.2,65.8780138660768
10852,-8.487342,-3.352345,4.385446,-0.05284,0.096975,-0.032834,31.2,64.3322248435872
10862,-8.307282,-3.671786,3.97388,-0.08827,0.102625,-0.046884,31.19,66.369252060965
10872,-8.404789,-3.682554,4.022933,-0.085368,0.102014,-0.043219,31.19,66.3267789006456
10882,-8.353942,-3.669992,3.966702,-0.082009,0.101098,-0.042913,31.18,66.5040131110337
10892,-8.402397,-3.671188,3.972684,-0.077733,0.096517,-0.041539,31.18,66.5751090985961
10902,-8.392226,-3.680759,3.955336,-0.075442,0.094073,-0.042302,31.21,66.6539824600051
10912,-8.427522,-3.671786,3.964309,-0.071166,0.089034,-0.040317,31.21,66.6720310585416
10922,-8.44128,-3.565306,4.025924,-0.069639,0.084605,-0.040317,31.18,66.2816359517164
10932,-8.425129,-3.67418,3.929613,-0.077274,0.082161,-0.044899,31.18,66.8518354415265
10942,-8.443673,-3.658626,3.926024,-0.076664,0.069028,-0.044746,31.15,66.8950616627383
10952,-8.445468,-3.674777,3.922434,-0.06857,0.060934,-0.044746,31.24,66.9321060772555
10962,-8.468798,-3.673581,3.923631,-0.064446,0.052076,-0.044135,31.24,66.9726403274875
10972,-8.469396,-3.672983,3.913461,-0.060628,0.042608,-0.04383,31.2,67.0268182022993
10982,-8.483753,-3.67059,3.918247,-0.056352,0.032529,-0.04383,31.2,67.0288967059571
10992,-8.490931,-3.677171,3.91406,-0.052076,0.021838,-0.042913,31.2,67.0713609525665
11002,-8.487941,-3.676572,3.908676,-0.047495,0.01069,-0.041844,31.2,67.0930251273416
11012,-8.492128,-3.683152,3.899105,-0.043371,-0.000458,-0.041081,31.17,67.1576563166642
11022,-8.497512,-3.682554,3.898506,-0.038332,-0.012828,-0.040012,31.17,67.1712117212191
11032,-8.486146,-3.684947,3.894917,-0.034208,-0.025504,-0.037568,31.2,67.1691103100309
11042,-8.467602,-3.683152,3.894319,-0.029322,-0.038179,-0.034819,31.2,67.1329458412141
11052,-8.472386,-3.695116,3.89073,-0.023671,-0.049786,-0.032681,31.2,67.1721832854415
11062,-8.457432,-3.699304,3.903292,-0.018021,-0.062308,-0.027336,31.2,67.0793180730648
11072,-8.440681,-3.703491,3.895515,-0.012675,-0.074526,-0.022755,31.21,67.0898634426733
11082,-8.425129,-3.707679,3.906283,-0.00733,-0.085979,-0.01741,31.21,67.0050300187735
11092,-8.411968,-3.709473,3.911069,-0.002902,-0.096059,-0.010537,31.18,66.954401953157
11102,-8.405987,-3.71725,3.923033,0.002138,-0.106138,-0.002902,31.18,66.8860537423962
11112,-8.373683,-3.712464,3.946961,0.007025,-0.114385,0.012981,31.17,66.688651556045
11122,-8.356335,-3.729214,3.96072,0.015119,-0.126907,0.022602,31.18,66.595480219246
11132,-8.350353,-3.729214,3.972684,0.018937,-0.130267,0.031307,31.18,66.5199192933653
11142,-8.3348,-3.73041,3.97747,0.021533,-0.132558,0.04047,31.18,66.4632436944014
11152,-8.329416,-3.728018,3.99721,0.023976,-0.132405,0.048717,31.18,66.3456326476161
11162,-8.303095,-3.733402,4.009772,0.025656,-0.130114,0.057269,31.21,66.2289547157706
11172,-8.305488,-3.732205,4.032505,0.027489,-0.127671,0.064752,31.21,66.1131809822096
11182,-8.313862,-3.735196,4.051647,0.028405,-0.122173,0.072846,31.21,66.0332602480095
11192,-8.298308,-3.753741,4.058227,0.028405,-0.11469,0.078954,31.21,65.983402443142
11202,-8.298308,-3.750151,4.076771,0.028405,-0.10568,0.084299,31.2,65.8826732680471
11212,-8.313264,-3.742374,4.10728,0.0281,-0.096059,0.087354,31.2,65.7475498781259
11222,-8.304291,-3.745365,4.130012,0.027031,-0.083689,0.08995,31.22,65.6124692905341
11232,-8.31446,-3.739982,4.127619,0.02474,-0.071166,0.090103,31.22,65.6416394331486
11242,-8.318647,-3.720839,4.149753,0.02306,-0.057727,0.089797,31.21,65.5167888131661
11252,-8.3348,-3.731607,4.170092,0.020311,-0.041844,0.086896,31.21,65.4564227513559
11262,-8.3348,-3.735196,4.168297,0.017257,-0.025809,0.083841,31.16,65.4692191090056
11272,-8.372486,-3.725027,4.184449,0.014203,-0.010079,0.078191,31.16,65.4571128105789
11282,-8.375478,-3.718446,4.195216,0.01069,0.006567,0.07025,31.19,65.4015778477394
11292,-8.391031,-3.714857,4.192824,0.002291,0.039859,0.05116,31.21,65.4441015260456
11302,-8.410771,-3.701697,4.19402,-0.001985,0.055436,0.042302,31.21,65.4679733974195
11312,-8.417951,-3.707081,4.183851,-0.006109,0.071013,0.029932,31.15,65.541005454418
11322,-8.425129,-3.696313,4.190431,-0.009316,0.08659,0.018326,31.15,65.5123125496074
11332,-8.430512,-3.698107,4.171288,-0.013897,0.099571,0.005803,31.21,65.6243493146443
11342,-8.429317,-3.690929,4.156931,-0.01741,0.113316,-0.005498,31.21,65.689242942069
11352,-8.42812,-3.680161,4.135396,-0.020769,0.1237,-0.01741,31.16,65.7880993481779
11362,-8.431709,-3.671188,4.118048,-0.024587,0.133474,-0.030238,31.16,65.8773757064792
11372,-8.440681,-3.664608,4.104289,-0.027031,0.140804,-0.039859,31.2,65.9618088825626
11382,-8.435298,-3.659822,4.088138,-0.028711,0.147066,-0.050244,31.2,66.0299215609555
11392,-8.437093,-3.664608,4.064209,-0.031307,0.150884,-0.059407,31.17,66.1627201612754
11402,-8.430512,-3.650251,4.040281,-0.032529,0.152258,-0.067501,31.17,66.260562941405
11412,-8.430512,-3.649653,4.020541,-0.034056,0.153174,-0.073151,31.21,66.3632605502563
11422,-8.429317,-3.638287,3.993023,-0.034514,0.150273,-0.079412,31.21,66.494665957993
11432,-8.429914,-3.639483,3.985844,-0.035277,0.147066,-0.08094,31.2,66.5346819910924
11442,-8.430512,-3.636492,3.945167,-0.034667,0.140804,-0.082925,31.2,66.7471661830376
11452,-8.423334,-3.625126,3.90389,-0.034361,0.133627,-0.082467,31.21,66.9400142746716
11462,-8.435897,-3.622135,3.888337,-0.031918,0.114232,-0.078191,31.21,67.0455729851578
11472,-8.426923,-3.619742,3.872185,-0.030085,0.100793,-0.073304,31.17,67.1105435954287
11482,-8.432905,-3.619742,3.85723,-0.027794,0.087354,-0.067653,31.21,67.2021475465063
11492,-8.427522,-3.611966,3.855436,-0.025656,0.073457,-0.061545,31.21,67.193790518939
11502,-8.425727,-3.613162,3.853043,-0.023366,0.058185,-0.054214,31.18,67.2038680308399
11512,-8.434101,-3.613162,3.842873,-0.020464,0.040928,-0.046273,31.18,67.2750451234525
11522,-8.438289,-3.61735,3.824927,-0.016799,0.02474,-0.03879,31.16,67.3826401265004
11532,-8.429914,-3.613162,3.829713,-0.01405,0.007636,-0.031612,31.16,67.3364488047228
11542,-8.443673,-3.61376,3.833302,-0.010843,-0.009774,-0.023213,31.18,67.3459609789264
11552,-8.453843,-3.619742,3.842275,-0.006872,-0.026725,-0.014508,31.18,67.324271311902
11562,-8.438888,-3.625126,3.853641,-0.002749,-0.04383,-0.007941,31.16,67.238169139866
11572,-8.44427,-3.619742,3.854837,0.000153,-0.059865,0.000153,31.16,67.2381073467922
11582,-8.464012,-3.622135,3.865605,0.003054,-0.07422,0.006567,31.17,67.22351209732
11592,-8.447861,-3.628117,3.875774,0.006872,-0.088423,0.012523,31.17,67.1419094542727
11602,-8.450253,-3.638885,3.891328,0.01069,-0.101556,0.018021,31.16,67.074077764745
11612,-8.449057,-3.635894,3.902096,0.013439,-0.112246,0.023213,31.16,67.0121118436675
11622,-8.441879,-3.66042,3.932006,0.017104,-0.12202,0.02642,31.19,66.8614607495224
11632,-8.430512,-3.665804,3.960122,0.020617,-0.136376,0.03207,31.19,66.6948411945259
11642,-8.436494,-3.683152,3.974478,0.026573,-0.141721,0.03375,31.2,66.6475636169743
11652,-8.422137,-3.675375,3.992425,0.02978,-0.143859,0.032681,31.15,66.5164575879624
11662,-8.410173,-3.677768,4.016353,0.032223,-0.145386,0.03146,31.15,66.3681584309684
11672,-8.422137,-3.689733,4.026522,0.034361,-0.144775,0.029474,31.16,66.3510368195167
11682,-8.407183,-3.689733,4.044468,0.036194,-0.142179,0.026725,31.16,66.2257807926129
11692,-8.416754,-3.702893,4.062415,0.038179,-0.137597,0.022602,31.18,66.1644684071356
11702,-8.405987,-3.705286,4.086343,0.038943,-0.131794,0.017868,31.18,66.0192692107089
11712,-8.399406,-3.722036,4.101896,0.039706,-0.124464,0.011759,31.17,65.94008463092
11722,-8.390432,-3.715455,4.121039,0.039248,-0.115912,0.00504,31.17,65.8152786149489
11732,-8.385648,-3.729214,4.128816,0.038485,-0.104611,-0.001985,31.23,65.7777050210063
11742,-8.382057,-3.732804,4.152145,0.036194,-0.093004,-0.010232,31.23,65.6524208365528
11752,-8.377871,-3.745964,4.157529,0.033292,-0.080634,-0.018937,31.2,65.6281362677136
11762,-8.368299,-3.739383,4.174279,0.030085,-0.065515,-0.027947,31.2,65.5145198669034
11772,-8.373683,-3.742973,4.179065,0.025962,-0.051007,-0.036499,31.16,65.5047925616368
11782,-8.349755,-3.749553,4.186243,0.021991,-0.034361,-0.044746,31.16,65.4224184076356
11792,-8.350353,-3.745964,4.191029,0.017104,-0.018021,-0.05284,31.18,65.3954570970045
11802,-8.335996,-3.749553,4.188636,0.011606,-0.002291,-0.065363,31.18,65.3802722748145
11812,-8.323434,-3.750151,4.186841,0.002749,0.032681,-0.069944,31.17,65.3629417957406
11822,-8.330612,-3.746562,4.188636,-0.002902,0.049327,-0.073915,31.19,65.3656949124178
11832,-8.319246,-3.755535,4.169494,-0.008094,0.065363,-0.075595,31.19,65.4491525614086
11842,-8.30788,-3.747759,4.163511,-0.012065,0.080634,-0.076511,31.18,65.4480578360651
11852,-8.305488,-3.757928,4.145566,-0.015272,0.09499,-0.076511,31.18,65.5462151733872
11862,-8.297711,-3.753741,4.146163,-0.018326,0.109498,-0.074373,31.16,65.5222183310834
11872,-8.297112,-3.751348,4.124628,-0.021075,0.121409,-0.071166,31.16,65.6309180357166
11882,-8.293524,-3.74058,4.102495,-0.022907,0.133627,-0.065515,31.19,65.7284178272726
11892,-8.309077,-3.736991,4.086941,-0.024129,0.144164,-0.06017,31.19,65.8397487259003
11902,-8.302496,-3.738187,4.067799,-0.023671,0.151953,-0.052687,31.2,65.9271341838456
11912,-8.309675,-3.731009,4.059424,-0.023213,0.159589,-0.045357,31.2,65.9795132548133
11922,-8.309675,-3.734598,4.039085,-0.021991,0.165086,-0.036805,31.2,66.0897652240238
11932,-8.322835,-3.722036,4.019344,-0.020464,0.168599,-0.028253,31.2,66.2095517453604
11942,-8.34138,-3.713661,3.997808,-0.018937,0.170279,-0.019853,31.19,66.3541831734276
11952,-8.356335,-3.703491,3.983452,-0.016646,0.169821,-0.011606,31.19,66.4517386914646
11962,-8.516056,-3.198008,4.46082,-0.027184,0.169515,-0.00672,31.17,63.8777622744476
11972,-8.348558,-3.724428,3.861418,-0.083994,0.170431,-0.01909,31.17,67.1008861091593
11982,-8.432905,-3.705286,3.901497,-0.075136,0.151647,0.000611,31.16,67.0440365822007
11992,-8.379665,-3.689733,3.828516,-0.067348,0.138819,0.009774,31.16,67.3081755501795
12002,-8.461619,-3.70409,3.869792,-0.058796,0.124311,0.017562,31.16,67.2686664815531
12012,-8.421539,-3.70409,3.801597,-0.049327,0.108123,0.023824,31.2,67.5490616820281
12022,-8.508279,-3.68734,3.845266,-0.040164,0.089644,0.029474,31.2,67.4773712900538
12032,-8.452048,-3.69392,3.8004,-0.03375,0.070708,0.031918,31.16,67.6077423446048
12042,-8.522038,-3.697509,3.832105,-0.025351,0.051618,0.035583,31.16,67.5830924999566
12052,-8.489137,-3.68734,3.798606,-0.019395,0.03146,0.034667,31.16,67.6856882111954
12062,-8.539386,-3.678965,3.837489,-0.013134,0.011454,0.034819,31.16,67.573345539562
12072,-8.495717,-3.691527,3.808775,-0.008399,-0.009927,0.033292,31.18,67.6486033464296
12082,-8.559127,-3.683152,3.845864,-0.003054,-0.030085,0.032223,31.18,67.5722506094304
12092,-8.52443,-3.678366,3.831507,-0.000153,-0.050702,0.027642,31.2,67.5744844397169
12102,-8.540583,-3.680759,3.858427,0.003665,-0.069486,0.025045,31.2,67.4671361627708
12112,-8.514859,-3.672385,3.850052,0.004887,-0.088728,0.020464,31.22,67.4523728100667
12122,-8.532805,-3.680759,3.871587,0.007941,-0.105527,0.01741,31.22,67.3823773595371
12132,-8.502296,-3.685545,3.875774,0.009774,-0.121257,0.014966,31.22,67.3030679164079
12142,-8.513663,-3.677171,3.91406,0.011606,-0.136223,0.012675,31.22,67.1176279705454
12152,-8.476574,-3.675375,3.936791,0.012828,-0.159436,0.009468,31.23,66.9210570691903
12162,-8.455637,-3.683152,3.946961,0.01573,-0.166919,0.009163,31.18,66.8315718850907
12172,-8.43111,-3.67418,3.976273,0.016341,-0.173791,0.009163,31.18,66.6188234926366
12182,-8.408977,-3.68375,3.983452,0.016646,-0.17822,0.010232,31.19,66.5437211000043
12192,-8.390432,-3.686144,4.010969,0.016341,-0.180358,0.012217,31.19,66.3626181608629
12202,-8.377273,-3.690331,4.022933,0.016646,-0.179747,0.013439,31.2,66.2760152841567
12212,-8.350951,-3.684947,4.044468,0.017868,-0.177609,0.015577,31.2,66.1022453769608
12222,-8.349156,-3.68734,4.062415,0.017715,-0.172875,0.01909,31.17,66.0065719309396
12232,-8.327621,-3.690331,4.080959,0.017715,-0.16585,0.022297,31.17,65.8661735350716
12242,-8.319246,-3.691527,4.097709,0.018326,-0.156687,0.025504,31.2,65.7615974660937
12252,-8.309077,-3.696911,4.118646,0.018479,-0.145844,0.028711,31.2,65.6352879354903
12262,-8.291729,-3.698706,4.121637,0.017562,-0.133321,0.031612,31.22,65.5837977510077
12272,-8.28156,-3.701099,4.144967,0.016799,-0.118508,0.034972,31.22,65.4420190795964
12282,-8.286345,-3.696313,4.155735,0.015882,-0.102473,0.037721,31.17,65.3915600152575
12292,-8.282756,-3.692724,4.162913,0.014661,-0.085368,0.039248,31.17,65.3427553443752
12302,-8.280362,-3.686144,4.166502,0.012828,-0.067195,0.040164,31.19,65.3123649091296
12312,-8.280362,-3.696313,4.198806,0.011759,-0.048411,0.041233,31.19,65.1539888638374
12322,-8.283952,-3.69392,4.192824,0.009774,-0.028558,0.038485,31.16,65.1906641042396
12332,-8.306684,-3.690929,4.189234,0.004734,0.011148,0.036957,31.2,65.2562817345519
12342,-8.30788,-3.690929,4.193422,0.000611,0.031001,0.033598,31.2,65.2371323332187
12352,-8.323434,-3.684349,4.182654,-0.00336,0.049786,0.028711,31.21,65.3207317230412
12362,-8.33121,-3.686144,4.192225,-0.007178,0.067806,0.023518,31.21,65.2897403838184
12372,-8.344969,-3.682554,4.173083,-0.011301,0.08491,0.018173,31.21,65.4156550581038
12382,-8.361719,-3.684947,4.158726,-0.014966,0.10064,0.012523,31.21,65.5288442564667
12392,-8.374281,-3.683152,4.15394,-0.018784,0.114843,0.003665,31.21,65.5791351080635
12402,-8.395219,-3.689135,4.13719,-0.023671,0.126144,-0.003512,31.21,65.7168000943815
12412,-8.401799,-3.677768,4.116253,-0.026725,0.135001,-0.01237,31.18,65.828994762284
12422,-8.413763,-3.673581,4.103093,-0.031001,0.143401,-0.020922,31.18,65.9190646115879
12432,-8.421539,-3.678366,4.076771,-0.034056,0.14844,-0.029474,31.22,66.0770447907905
12442,-8.437093,-3.678366,4.066004,-0.036194,0.151953,-0.037415,31.22,66.1660041098761
12452,-8.456235,-3.678366,4.048656,-0.037874,0.151495,-0.045051,31.18,66.2966266883973
12462,-8.463414,-3.661617,4.014558,-0.039859,0.150273,-0.053145,31.18,66.4743071802347
12472,-8.463414,-3.668197,4.009772,-0.041539,0.146455,-0.059865,31.17,66.5052501127316
12482,-8.467003,-3.659224,3.990032,-0.042455,0.142179,-0.065973,31.17,66.6078462787429
12492,-8.474779,-3.663411,3.955336,-0.04215,0.135307,-0.072082,31.2,66.8094246090954
12502,-8.469995,-3.656233,3.940979,-0.04047,0.117744,-0.078343,31.18,66.8685174721487
12512,-8.464012,-3.665804,3.924827,-0.039554,0.108581,-0.079565,31.18,66.9496155229361
12522,-8.467003,-3.659224,3.921238,-0.036957,0.097738,-0.081092,31.16,66.9687904875504
12532,-8.458031,-3.658028,3.91406,-0.035277,0.086285,-0.079871,31.16,66.9870932196427
12542,-8.449656,-3.65384,3.905685,-0.032834,0.074373,-0.078038,31.21,67.0103177562805
12552,-8.443673,-3.646662,3.899703,-0.030085,0.062919,-0.075747,31.21,67.0232205877955
12562,-8.440084,-3.661019,3.894319,-0.026725,0.051313,-0.071624,31.17,67.057042538931
12572,-8.436494,-3.66042,3.883551,-0.023213,0.039095,-0.067195,31.17,67.106054427449
12582,-8.437093,-3.669992,3.883551,-0.019395,0.026573,-0.062308,31.17,67.1157931735028
12592,-8.432307,-3.668197,3.885346,-0.015577,0.014355,-0.056658,31.17,67.0949083135564
12602,-8.428718,-3.662215,3.884748,-0.011148,0.002291,-0.051007,31.18,67.0853844184763
12612,-8.416155,-3.658626,3.885944,-0.00672,-0.009621,-0.045662,31.18,67.0500567853453
12622,-8.425129,-3.662813,3.894917,-0.00168,-0.020769,-0.038637,31.2,67.0247762766561
12632,-8.425727,-3.672385,3.888935,0.002443,-0.032681,-0.03207,31.2,67.0661844505305
12642,-8.429317,-3.668197,3.898506,0.007636,-0.043982,-0.025045,31.17,67.0192275609765
12652,-8.416155,-3.684947,3.90389,0.012981,-0.053756,-0.018479,31.17,66.9787625774444
12662,-8.419147,-3.68734,3.916452,0.017868,-0.063225,-0.01237,31.19,66.9207585802187
12672,-8.411968,-3.686144,3.924229,0.021838,-0.080634,-0.000611,31.19,66.8638473679954
12682,-8.408379,-3.691527,3.934398,0.031001,-0.088881,0.004429,31.21,66.8076836445141
12692,-8.402995,-3.688536,3.949952,0.035736,-0.095753,0.00901,31.23,66.7118434398243
12702,-8.404191,-3.696911,3.962514,0.039095,-0.101251,0.014661,31.23,66.6558444903037
12712,-8.397612,-3.705286,3.97388,0.042302,-0.104763,0.018021,31.2,66.5900632963178
12722,-8.391031,-3.712464,3.984648,0.044593,-0.108429,0.021838,31.2,66.5263683071526
12732,-8.38445,-3.70409,4.00738,0.046578,-0.110872,0.025198,31.18,66.3854925656811
12742,-8.389835,-3.710072,4.014558,0.049022,-0.111483,0.028253,31.18,66.3646925909517
12752,-8.379665,-3.721437,4.04387,0.050396,-0.110872,0.031307,31.18,66.2003993524221
12762,-8.366504,-3.722634,4.04746,0.051007,-0.109192,0.033139,31.18,66.1549514893695
12772,-8.367103,-3.725625,4.059424,0.051313,-0.105069,0.03375,31.19,66.0964461797776
12782,-8.362316,-3.723232,4.07737,0.051007,-0.100335,0.03375,31.19,65.9902504369585
12792,-8.355139,-3.71725,4.092923,0.049327,-0.09331,0.034667,31.18,65.8880847508438
12802,-8.350951,-3.727419,4.098307,0.048411,-0.08491,0.033139,31.18,65.8607212804616
12812,-8.342576,-3.728616,4.114459,0.04612,-0.075747,0.031918,31.2,65.7597125542677
12822,-8.337193,-3.726223,4.123432,0.04383,-0.064752,0.030696,31.2,65.6990962968401
12832,-8.335398,-3.731009,4.150949,0.041081,-0.053451,0.028405,31.15,65.5565965308744
12842,-8.332406,-3.731607,4.152744,0.037415,-0.040317,0.022907,31.15,65.5413842732339
12852,-8.330013,-3.735795,4.157529,0.031307,-0.012523,0.020006,31.2,65.5153930482793
12862,-8.332406,-3.738187,4.149753,0.027336,0.002443,0.016035,31.18,65.5633000138893
12872,-8.335398,-3.733402,4.158128,0.023976,0.017104,0.011606,31.18,65.5215926601076
12882,-8.341978,-3.722634,4.162913,0.020159,0.031918,0.005803,31.18,65.5005496426286
12892,-8.34138,-3.725027,4.161119,0.016799,0.046273,0.000611,31.18,65.5108836610273
12902,-8.353344,-3.559922,4.323233,0.011912,0.061392,-0.004429,31.16,64.5402948876973
12912,-8.46461,-3.421138,4.491926,-0.030085,0.07422,-0.014966,31.16,63.8025647420809
12922,-8.26481,-3.728616,4.070191,-0.070708,0.08659,-0.030696,31.23,65.8245031576565
12932,-8.408977,-3.728616,4.143172,-0.067653,0.096822,-0.029474,31.23,65.7524663187709
12942,-8.307282,-3.718446,4.049852,-0.066737,0.10568,-0.031612,31.18,66.012654563782
12952,-8.400003,-3.706482,4.104289,-0.064599,0.114079,-0.031612,31.18,65.9142939047223
12962,-8.34138,-3.724428,4.055236,-0.063835,0.120493,-0.035125,31.21,66.0626914610757
12972,-8.39821,-3.699902,4.064807,-0.061239,0.126602,-0.035583,31.21,66.1100462732982
12982,-8.374281,-3.71067,4.032505,-0.059865,0.131183,-0.038179,31.2,66.2384747971854
12992,-8.416155,-3.711268,4.036094,-0.058032,0.133932,-0.038637,31.2,66.3083189746884
13002,-8.402397,-3.693322,4.004987,-0.056505,0.135307,-0.040164,31.19,66.4257265031448
13012,-8.425129,-3.688536,3.972684,-0.054214,0.134543,-0.041844,31.19,66.6382658958278
13022,-8.444869,-3.681358,3.965506,-0.052229,0.127518,-0.042913,31.22,66.7103770680839
13032,-8.44427,-3.678366,3.941577,-0.051313,0.120799,-0.044899,31.18,66.8321308322586
13042,-8.456833,-3.680161,3.931407,-0.049175,0.113926,-0.044899,31.18,66.9130724489959
13052,-8.459825,-3.677171,3.908078,-0.047189,0.103847,-0.043677,31.2,67.0392888946357
13062,-8.472386,-3.671786,3.90389,-0.044899,0.091324,-0.041233,31.2,67.082237277535
13072,-8.461619,-3.67059,3.885346,-0.042761,0.077885,-0.040012,31.18,67.1569352562972
13082,-8.471789,-3.669992,3.870391,-0.040623,0.063835,-0.03711,31.18,67.256017619499
13092,-8.460423,-3.669992,3.855436,-0.037568,0.048258,-0.03375,31.2,67.3119651280774
13102,-8.454441,-3.665804,3.856034,-0.033903,0.03207,-0.028405,31.2,67.2929723890404
13112,-8.469396,-3.676572,3.848257,-0.031154,0.015577,-0.023518,31.21,67.3738771402379
13122,-8.459227,-3.668197,3.841677,-0.027336,-0.002138,-0.017104,31.21,67.3807731319645
13132,-8.449057,-3.657429,3.839882,-0.023824,-0.019242,-0.012523,31.21,67.3602189599935
13142,-8.455637,-3.677171,3.85065,-0.020617,-0.036194,-0.005345,31.21,67.3339007795126
13152,-8.440084,-3.669394,3.854239,-0.016493,-0.053756,0.002443,31.2,67.2764583433789
13162,-8.426325,-3.669394,3.85723,-0.011606,-0.068875,0.009316,31.2,67.2325842346943
13172,-8.440084,-3.676572,3.862016,-0.007941,-0.082925,0.016646,31.2,67.2416394981304
13182,-8.413164,-3.672385,3.896114,-0.003207,-0.096059,0.022602,31.2,67.002417354749
13192,-8.408379,-3.671786,3.907479,0.004734,-0.11805,0.035583,31.18,66.9319294509752
13202,-8.402397,-3.677171,3.920042,0.008858,-0.12706,0.040928,31.16,66.8580524882297
13212,-8.39821,-3.684947,3.929015,0.012981,-0.133932,0.045357,31.16,66.8090587841415
13222,-8.402397,-3.689733,3.958925,0.016035,-0.138819,0.049327,31.17,66.6644435457894
13232,-8.392226,-3.682554,3.9673,0.018631,-0.142332,0.052076,31.17,66.5926004198732
13242,-8.391031,-3.678366,3.992425,0.021838,-0.144011,0.054367,31.15,66.4540882672268
13252,-8.38445,-3.677171,4.016951,0.024587,-0.14279,0.055741,31.15,66.3103395767585
13262,-8.386245,-3.698706,4.029513,0.026114,-0.140804,0.054978,31.18,66.2682222033916
13272,-8.375478,-3.68734,4.052843,0.0281,-0.136376,0.054978,31.18,66.1126988550553
13282,-8.378469,-3.698706,4.06062,0.029016,-0.13042,0.052229,31.18,66.0889877930556
13292,-8.369495,-3.68734,4.088736,0.030391,-0.122784,0.049786,31.18,65.9123212422262
13302,-8.376674,-3.698706,4.104289,0.03146,-0.114079,0.045815,31.18,65.857245472222
13312,-8.366504,-3.699902,4.121637,0.031918,-0.103694,0.041997,31.18,65.7462505954327
13322,-8.359925,-3.705286,4.133601,0.031307,-0.092393,0.036346,31.18,65.6749739518921
13332,-8.370093,-3.702295,4.147958,0.031307,-0.079871,0.03146,31.18,65.6193711350261
13342,-8.365308,-3.708875,4.155136,0.028711,-0.06521,0.025351,31.19,65.5780712406062
13352,-8.36112,-3.708277,4.177869,0.027336,-0.050702,0.019395,31.19,65.4505397153845
13362,-8.356335,-3.709473,4.190431,0.025351,-0.019548,0.004276,31.18,65.3762392951675
13372,-8.355139,-3.708875,4.194618,0.018021,-0.001833,-0.000764,31.15,65.35138586893
13382,-8.343773,-3.694518,4.183252,0.013286,0.015882,-0.008094,31.15,65.3717632826173
13392,-8.362915,-3.696313,4.182056,0.008247,0.032681,-0.016035,31.2,65.4212548361127
13402,-8.352745,-3.699304,4.184449,0.004123,0.050396,-0.022297,31.2,65.3896576094244
13412,-8.350951,-3.703491,4.185645,-0.001069,0.066737,-0.027947,31.18,65.3835913740276
13422,-8.355738,-3.703491,4.162315,-0.006414,0.082314,-0.033139,31.18,65.5149951046188
13432,-8.355139,-3.698706,4.159923,-0.011912,0.096822,-0.038943,31.2,65.5215393636687
13442,-8.355738,-3.702295,4.131807,-0.018021,0.109803,-0.043066,31.2,65.6724535226754
13452,-8.355738,-3.688536,4.115655,-0.022449,0.121715,-0.045509,31.16,65.7435162617975
13462,-8.362316,-3.701697,4.112065,-0.026878,0.131794,-0.049327,31.16,65.7888339577538
13472,-8.369495,-3.689135,4.08395,-0.031154,0.139888,-0.050396,31.18,65.9390029431383
13482,-8.374281,-3.692126,4.070789,-0.034819,0.145386,-0.051465,31.18,66.0207710386704
13492,-8.373085,-3.686741,4.046263,-0.03879,0.149357,-0.051924,31.17,66.1415183138686
13502,-8.375478,-3.691527,4.025326,-0.041081,0.15012,-0.050702,31.17,66.2607866546208
13512,-8.393424,-3.68375,3.993023,-0.041539,0.15012,-0.049175,31.18,66.460914535648
13522,-8.405987,-3.674777,3.975675,-0.042455,0.147066,-0.047342,31.18,66.5701502672567
13532,-8.504092,-3.430111,4.214359,-0.041844,0.141721,-0.045357,31.2,65.3169079653337
13542,-8.377871,-3.674777,3.884149,-0.087048,0.129962,-0.049938,31.23,66.9952478541985
13552,-8.449057,-3.68734,3.899105,-0.082925,0.11805,-0.042913,31.23,67.073605564353
13562,-8.418548,-3.674777,3.864408,-0.076969,0.105222,-0.036957,31.15,67.18345516969
13572,-8.439486,-3.673581,3.866203,-0.070708,0.091324,-0.030391,31.15,67.2156122463026
13582,-8.428718,-3.678366,3.851248,-0.065363,0.076664,-0.027031,31.21,67.2771343155266
13592,-8.468199,-3.672385,3.85065,-0.058032,0.060934,-0.020769,31.21,67.3551297704973
13602,-8.462815,-3.668197,3.845266,-0.051771,0.045968,-0.016799,31.19,67.3690374344133
13612,-8.462217,-3.689733,3.843472,-0.044899,0.030696,-0.013286,31.19,67.3962464159316
13622,-8.481958,-3.675375,3.854837,-0.038943,0.014661,-0.01069,31.2,67.3634481144841
13632,-8.492128,-3.629912,3.902694,-0.034208,-0.000305,-0.010079,31.2,67.0920461996326
13642,-8.493923,-3.677171,3.865007,-0.034208,-0.013592,-0.009774,31.15,67.3355378244946
13652,-8.490931,-3.685545,3.853043,-0.029016,-0.028863,-0.00901,31.15,67.3999166085927
13662,-8.491529,-3.687938,3.876373,-0.023824,-0.043677,-0.010232,31.19,67.2802542526518
13672,-8.489736,-3.684349,3.87398,-0.018173,-0.058338,-0.01069,31.19,67.2860797726572
13682,-8.49452,-3.696911,3.891926,-0.013744,-0.071319,-0.010537,31.2,67.2123724041298
13692,-8.477771,-3.691527,3.898506,-0.008858,-0.083536,-0.011454,31.2,67.1390215663165
13702,-8.449057,-3.699902,3.920042,-0.004429,-0.095753,-0.012065,31.15,66.9745711669557
13712,-8.453843,-3.699304,3.934997,0.002291,-0.115148,-0.011454,31.15,66.9052203034247
13722,-8.444869,-3.706482,3.943372,0.004276,-0.122173,-0.011606,31.16,66.8492523092946
13732,-8.429317,-3.701099,3.961318,0.00733,-0.127976,-0.010843,31.19,66.7180481685089
13742,-8.399406,-3.711268,3.971487,0.010079,-0.13271,-0.00901,31.19,66.6118713168423
13752,-8.409575,-3.716054,3.994817,0.012523,-0.135459,-0.006872,31.15,66.5149741192208
13762,-8.374879,-3.721437,3.99721,0.013134,-0.136681,-0.003512,31.15,66.4349357955785
13772,-8.378469,-3.712464,4.018147,0.014813,-0.136834,0.000458,31.18,66.3242296820897
13782,-8.350951,-3.726223,4.024727,0.015272,-0.135612,0.002902,31.18,66.2446414568924
13792,-8.358727,-3.733402,4.052245,0.016188,-0.131641,0.007483,31.17,66.1236138773152
13802,-8.325827,-3.731009,4.049254,0.016952,-0.126602,0.01237,31.17,66.0672684511001
13812,-8.320443,-3.72383,4.061816,0.018631,-0.120951,0.017715,31.15,65.9830701218972
13822,-8.307282,-3.731009,4.076173,0.018784,-0.112705,0.022907,31.15,65.8865566626189
13832,-8.31147,-3.726821,4.095316,0.018631,-0.104153,0.027489,31.17,65.7912531891937
13842,-8.302496,-3.736392,4.09711,0.019395,-0.093921,0.032223,31.17,65.77182856926
13852,-8.306684,-3.731607,4.109673,0.019242,-0.082161,0.037874,31.2,65.7104985971242
13862,-8.294122,-3.725027,4.115057,0.019548,-0.069486,0.041844,31.2,65.6488969604493
13872,-8.296515,-3.729214,4.13061,0.018631,-0.057116,0.045051,31.18,65.5768516449786
13882,-8.3013,-3.731009,4.140181,0.017562,-0.027031,0.049175,31.18,65.5389985335889
13892,-8.310871,-3.71725,4.157529,0.015424,-0.012981,0.049938,31.18,65.4559600734616
13902,-8.310272,-3.718446,4.143172,0.013897,0.002443,0.049786,31.19,65.5306280077771
13912,-8.316256,-3.71067,4.15394,0.012065,0.017562,0.049633,31.19,65.4799574843208
13922,-8.316256,-3.707679,4.152744,0.010537,0.033139,0.047953,31.18,65.4832925074204
13932,-8.335996,-3.719045,4.141378,0.007789,0.048106,0.045357,31.18,65.5961478861893
13942,-8.338987,-3.718446,4.14078,0.005803,0.06185,0.04215,31.19,65.6051339156692
13952,-8.358727,-3.701697,4.135994,0.004429,0.074984,0.038485,31.19,65.6565265750912
13962,-8.369495,-3.692724,4.125226,0.001833,0.087201,0.033598,31.19,65.7271821918537
13972,-8.378469,-3.692724,4.111467,0.000153,0.097891,0.028558,31.19,65.8180510831878
13982,-8.380263,-3.693322,4.101896,-0.002291,0.10736,0.023213,31.16,65.8723076306408
13992,-8.389236,-3.680759,4.086941,-0.003818,0.115148,0.017104,31.16,65.9576329697429
14002,-8.402397,-3.676572,4.086941,-0.005498,0.122478,0.010843,31.18,65.981750967278
14012,-8.420342,-3.67059,4.079762,-0.007789,0.126907,0.004581,31.18,66.0517341146563
14022,-8.42453,-3.671188,4.052843,-0.009468,0.130725,-0.000916,31.18,66.2015210720219
14032,-8.429914,-3.582056,4.12403,-0.011912,0.13271,-0.008247,31.18,65.7602869670668
14042,-8.541779,-3.399603,3.939782,-0.041081,0.134238,-0.018326,31.2,66.802791867387
