t_ms,ax,ay,az,gx,gy,gz,temp,ang_deg
59782,-8.201998,-3.717848,4.478168,-0.01069,-0.041081,0.001374,30.48,63.5596596400268
59792,-8.198408,-3.71725,4.48415,-0.01237,-0.051313,0.00168,30.47,63.52022299021
12,-8.180463,-3.713661,4.504489,-0.016493,-0.072082,0.006261,30.48,63.371122376216
22,-8.183454,-3.701697,4.499105,-0.018479,-0.080023,0.008705,30.48,63.3929138064203
32,-8.164311,-3.719045,4.508078,-0.020464,-0.087506,0.012217,30.5,63.3209081541128
42,-8.152946,-3.716054,4.512863,-0.022602,-0.093157,0.017257,30.5,63.2667897518242
52,-8.142178,-3.716652,4.530809,-0.025045,-0.096669,0.021228,30.46,63.1507154951832
62,-8.127223,-3.714259,4.542176,-0.026878,-0.099113,0.023976,30.46,63.0550627037294
72,-8.112267,-3.721437,4.552345,-0.029169,-0.09896,0.027336,30.51,62.9757284528955
82,-8.106883,-3.713063,4.576871,-0.030543,-0.096517,0.030391,30.51,62.8290564808009
92,-8.078768,-3.729214,4.57747,-0.035736,-0.086437,0.033598,30.48,62.7768564288402
102,-8.073383,-3.705884,4.593621,-0.037874,-0.078649,0.032681,30.46,62.6561869213251
112,-8.072187,-3.712464,4.602595,-0.040317,-0.07025,0.031612,30.46,62.6149106234626
122,-8.081161,-3.722634,4.612764,-0.042455,-0.059712,0.027489,30.46,62.5959080157947
132,-8.063214,-3.707679,4.619942,-0.04444,-0.048258,0.023671,30.46,62.4999652706697
142,-8.061419,-3.711866,4.623531,-0.045357,-0.03543,0.018937,30.46,62.4820542083076
152,-8.063812,-3.711866,4.62413,-0.048106,-0.022907,0.011606,30.46,62.4847622214971
162,-8.059027,-3.708875,4.635496,-0.049633,-0.008858,0.004887,30.5,62.4122595722248
172,-8.060224,-3.714857,4.636692,-0.05116,0.004276,-0.003207,30.5,62.4157062331005
182,-8.070393,-3.713063,4.63071,-0.052534,0.017562,-0.011606,30.48,62.4685044173159
192,-8.055437,-3.719045,4.625924,-0.052687,0.030849,-0.0197,30.48,62.4634821571359
202,-8.075178,-3.720839,4.612764,-0.052993,0.042608,-0.029016,30.48,62.5796240441003
212,-8.077571,-3.711866,4.616951,-0.053603,0.053909,-0.037263,30.48,62.5542118592275
222,-8.078768,-3.719643,4.602595,-0.053145,0.064141,-0.04383,30.52,62.6385414818515
232,-8.084151,-3.71725,4.589434,-0.052382,0.072693,-0.049633,30.52,62.715665413076
242,-8.075776,-3.725625,4.562515,-0.051465,0.080634,-0.055131,30.5,62.8420166205644
254,-8.095517,-3.734598,4.542176,-0.047647,0.090866,-0.059407,30.49,63.0023196239428
262,-8.098508,-3.734598,4.527819,-0.047647,0.092088,-0.059254,30.49,63.0826655092501
272,-8.093124,-3.732804,4.516453,-0.043524,0.092699,-0.057269,30.48,63.126139200365
282,-8.096116,-3.735795,4.500899,-0.041539,0.091019,-0.053756,30.48,63.2160214368279
292,-8.10449,-3.733402,4.482355,-0.037568,0.087354,-0.048106,30.5,63.3280804004213
302,-8.099705,-3.723232,4.4674,-0.034667,0.083078,-0.039859,30.5,63.3826919216152
312,-8.109874,-3.739982,4.448257,-0.032834,0.075442,-0.031918,30.46,63.5227625026126
322,-8.109874,-3.738786,4.45065,-0.029627,0.067959,-0.021838,30.46,63.5091803403561
332,-8.120642,-3.741776,4.441677,-0.026725,0.059101,-0.011148,30.48,63.5835066942598
342,-8.12124,-3.738786,4.442276,-0.025198,0.048564,-0.000458,30.48,63.5786210274276
352,-8.118848,-3.739982,4.438088,-0.023824,0.038026,0.010537,30.45,63.5958808550567
362,-8.140981,-3.726223,4.439284,-0.021838,0.027184,0.020006,30.45,63.6263832426995
372,-8.14457,-3.732804,4.438686,-0.02138,0.01573,0.029932,30.5,63.6447357342399
382,-8.128419,-3.733402,4.448257,-0.020311,0.004123,0.038637,30.5,63.5588059917708
392,-8.140981,-3.736991,4.454837,-0.020006,-0.006567,0.045051,30.49,63.5579956872637
402,-8.136793,-3.738786,4.465605,-0.020006,-0.016799,0.050702,30.49,63.4949954514166
412,-8.149954,-3.72383,4.465605,-0.0197,-0.025045,0.055283,30.5,63.5096422888526
422,-8.152946,-3.731607,4.483552,-0.020159,-0.032987,0.057421,30.5,63.4330197454137
432,-8.145168,-3.732804,4.49073,-0.021228,-0.039248,0.054978,30.47,63.3795101384619
442,-8.160124,-3.729214,4.51406,-0.021686,-0.047189,0.052534,30.5,63.2914704455823
452,-8.148758,-3.734598,4.514658,-0.021991,-0.049938,0.048258,30.5,63.2676517940589
462,-8.149356,-3.734,4.521836,-0.021533,-0.049786,0.043066,30.51,63.2318230253488
472,-8.132606,-3.741776,4.520042,-0.021228,-0.049633,0.037568,30.51,63.2101542144217
482,-8.133802,-3.743571,4.532604,-0.0197,-0.047953,0.031001,30.46,63.1508605338856
492,-8.120044,-3.734598,4.539783,-0.018326,-0.045662,0.024587,30.46,63.07230696727
502,-8.123632,-3.729214,4.544569,-0.016493,-0.041997,0.018326,30.49,63.0505452259369
512,-8.123035,-3.74058,4.539185,-0.013897,-0.038485,0.012828,30.49,63.0888529641412
522,-8.117651,-3.745365,4.531408,-0.011759,-0.034361,0.005956,30.49,63.1210275380834
532,-8.106285,-3.736991,4.529613,-0.009774,-0.030543,0.00168,30.49,63.0944063943854
542,-8.097312,-3.732205,4.545166,-0.007025,-0.027336,-0.003054,30.5,62.9886989883251
552,-8.096714,-3.74058,4.534399,-0.004887,-0.02306,-0.004429,30.5,63.0513440369783
562,-8.095517,-3.739982,4.532604,-0.003818,-0.019853,-0.006109,30.43,63.0570370899903
572,-8.090732,-3.742973,4.52423,-0.002291,-0.016799,-0.008858,30.43,63.0918022267312
582,-8.107481,-3.736991,4.521238,-0.001527,-0.015577,-0.009468,30.52,63.1399820936237
592,-8.10449,-3.738786,4.521238,-0.000458,-0.015119,-0.008399,30.52,63.1348992828006
602,-8.116454,-3.735196,4.515854,-0.000764,-0.014813,-0.00672,30.48,63.1866047937443
612,-8.140981,-3.735795,4.508676,-0.003818,-0.018021,-0.002596,30.46,63.2812915058864
622,-8.13799,-3.732804,4.518248,-0.006414,-0.021228,-0.000611,30.46,63.2222573075111
632,-8.149356,-3.734598,4.52064,-0.00901,-0.025198,0.002596,30.47,63.2385573605664
642,-8.169695,-3.729214,4.511667,-0.012981,-0.030849,0.005651,30.47,63.3259645678991
652,-8.17807,-3.736392,4.52064,-0.016799,-0.036652,0.007636,30.49,63.3074068256227
662,-8.179864,-3.739383,4.52064,-0.02138,-0.042761,0.009316,30.49,63.3147574476959
672,-8.189436,-3.73041,4.517051,-0.024893,-0.049022,0.010385,30.49,63.3457384088528
682,-8.188837,-3.729214,4.523033,-0.02978,-0.055283,0.011454,30.49,63.3126653895332
692,-8.190034,-3.729214,4.533801,-0.034361,-0.062614,0.010537,30.46,63.2607430101005
702,-8.17807,-3.728616,4.534399,-0.038943,-0.067959,0.009621,30.46,63.2291891203859
712,-8.180463,-3.712464,4.539783,-0.041997,-0.073151,0.008552,30.49,63.1902641659339
722,-8.165507,-3.726223,4.561916,-0.045509,-0.077885,0.005803,30.49,63.0575388937899
732,-8.152946,-3.731009,4.5673,-0.0478,-0.080329,0.002749,30.48,63.0058666531504
742,-8.154141,-3.724428,4.570292,-0.049633,-0.081551,-0.000458,30.48,62.9864225763736
752,-8.122437,-3.733402,4.575077,-0.051771,-0.08094,-0.00504,30.48,62.897094457869
762,-8.105088,-3.732205,4.58405,-0.051771,-0.077885,-0.009316,30.48,62.8091597277639
772,-8.080563,-3.720839,4.594818,-0.051313,-0.072693,-0.013439,30.51,62.6836692132492
782,-8.044072,-3.716652,4.606782,-0.048564,-0.056505,-0.021991,30.51,62.5308318966776
792,-8.029715,-3.728018,4.608576,-0.045662,-0.043524,-0.025351,30.48,62.4998460371737
802,-8.013563,-3.721437,4.610371,-0.042761,-0.030543,-0.027184,30.52,62.4444448312873
812,-7.993224,-3.722036,4.615755,-0.039554,-0.015119,-0.029932,30.52,62.3685214527819
822,-7.988439,-3.721437,4.612165,-0.035736,0.002138,-0.031001,30.52,62.3745787376249
832,-7.983653,-3.719643,4.610969,-0.03207,0.018173,-0.03146,30.52,62.3670677316855
842,-7.965706,-3.728018,4.621737,-0.027489,0.03543,-0.031918,30.47,62.2780363060083
852,-7.95793,-3.711866,4.601996,-0.023366,0.052382,-0.031154,30.47,62.341709399821
862,-7.965706,-3.719643,4.60738,-0.019395,0.069944,-0.0281,30.47,62.3418760186596
872,-7.969296,-3.714259,4.594818,-0.016341,0.085521,-0.024893,30.47,62.408756816568
882,-7.978269,-3.711866,4.587041,-0.01237,0.100793,-0.020922,30.48,62.4676051547791
892,-7.986644,-3.705286,4.571488,-0.010079,0.113926,-0.01573,30.48,62.5601354258858
902,-8.001,-3.719643,4.563711,-0.007025,0.125533,-0.009163,30.51,62.6506250173619
912,-8.024929,-3.713063,4.549354,-0.00504,0.134543,-0.001985,30.51,62.7742355130166
922,-8.049455,-3.719643,4.540381,-0.00336,0.140499,0.005498,30.5,62.8859660421257
932,-8.061419,-3.719643,4.51406,-0.001222,0.144164,0.014661,30.5,63.0492200930975
942,-8.082357,-3.718446,4.492525,-0.000153,0.144775,0.022907,30.45,63.2078168345694
952,-8.126026,-3.721437,4.476373,0.000458,0.136987,0.037568,30.45,63.396223988278
962,-8.152946,-3.722036,4.460222,-0.000305,0.129503,0.045815,30.54,63.5422616789959
972,-8.178668,-3.720839,4.446463,-0.000764,0.118813,0.051924,30.5,63.6709950288195
982,-8.200203,-3.71725,4.442873,-0.001069,0.105985,0.057421,30.5,63.735230316749
992,-8.228318,-3.728018,4.43749,-0.002749,0.091477,0.062461,30.48,63.8384201491523
1002,-8.243872,-3.727419,4.434498,-0.004123,0.075136,0.06521,30.48,63.8885995920619
1012,-8.245069,-3.709473,4.418945,-0.005956,0.056963,0.067042,30.5,63.9523595721081
1022,-8.255239,-3.724428,4.417151,-0.007636,0.037721,0.065668,30.5,64.000015479458
1032,-8.266603,-3.728616,4.414758,-0.008705,0.018326,0.063835,30.51,64.0423178925569
1042,-8.288139,-3.739383,4.411169,-0.010996,-0.001985,0.059865,30.51,64.1203144029084
1052,-8.28455,-3.728616,4.424329,-0.012523,-0.021991,0.053756,30.48,64.0341342070206
1062,-8.289934,-3.720241,4.430909,-0.013744,-0.040164,0.04612,30.48,64.0042725089536
1072,-8.280961,-3.725027,4.435097,-0.015577,-0.05849,0.036652,30.5,63.9674641777994
1082,-8.272586,-3.726223,4.444668,-0.016952,-0.074526,0.027184,30.5,63.9009075699162
1092,-8.267202,-3.725027,4.462614,-0.018937,-0.089186,0.016188,30.49,63.7960719070217
1102,-8.250452,-3.725625,4.470391,-0.019548,-0.101709,0.003818,30.49,63.7188286986082
1112,-8.236693,-3.733402,4.506283,-0.021075,-0.112246,-0.007636,30.52,63.512908293246
1122,-8.195418,-3.724428,4.523632,-0.022602,-0.119882,-0.030849,30.52,63.3198600188131
1132,-8.17149,-3.736392,4.529613,-0.025045,-0.126602,-0.040928,30.5,63.2464517897975
1142,-8.137392,-3.738187,4.540381,-0.026573,-0.126449,-0.05116,30.5,63.113873844743
1152,-8.126624,-3.734,4.556532,-0.028253,-0.124922,-0.060628,30.5,63.0018739719111
1162,-8.10808,-3.72383,4.572684,-0.029169,-0.119424,-0.066584,30.5,62.8648970499765
1172,-8.082357,-3.739383,4.57388,-0.030391,-0.112857,-0.071929,30.5,62.8148242753214
1182,-8.063812,-3.738786,4.580461,-0.030696,-0.104763,-0.075595,30.5,62.7365708914021
1192,-8.042875,-3.744768,4.588835,-0.031918,-0.0956,-0.078649,30.5,62.6506023135508
1202,-8.035697,-3.736991,4.591826,-0.032529,-0.084758,-0.077733,30.5,62.6095361130219
1212,-8.033902,-3.738786,4.591826,-0.032987,-0.073609,-0.074831,30.5,62.6072373816001
1222,-8.01476,-3.743571,4.589434,-0.032987,-0.062766,-0.071624,30.53,62.5789044960716
1232,-8.012366,-3.736392,4.588237,-0.03207,-0.051007,-0.065363,30.53,62.5712265845353
1242,-7.996215,-3.734598,4.587639,-0.031612,-0.039706,-0.058185,30.5,62.5334352227838
1252,-8.003393,-3.741776,4.573282,-0.030085,-0.028711,-0.049175,30.5,62.6321479303346
1262,-8.006385,-3.739982,4.576273,-0.029932,-0.018631,-0.039401,30.48,62.6220186666574
1272,-8.009974,-3.748357,4.564907,-0.029016,-0.009468,-0.028405,30.48,62.6981220740842
1282,-8.016554,-3.744768,4.560122,-0.027031,-0.002138,-0.018173,30.5,62.7343203903426
1292,-8.035098,-3.751946,4.549952,-0.025656,0.004276,-0.007178,30.5,62.8385340697783
1302,-8.050054,-3.748357,4.542176,-0.021533,0.013897,0.013897,30.51,62.909844321143
1312,-8.06441,-3.744768,4.539783,-0.020464,0.016341,0.023366,30.48,62.9521382307373
1322,-8.080563,-3.742374,4.539185,-0.018326,0.017868,0.032529,30.48,62.9907639212437
1332,-8.076973,-3.745964,4.548756,-0.016646,0.019242,0.040317,30.52,62.9373493579222
1342,-8.097312,-3.736991,4.53739,-0.015272,0.018784,0.045204,30.52,63.0335813359778
1352,-8.101499,-3.742374,4.527221,-0.013897,0.01741,0.050396,30.49,63.1012042658509
1362,-8.11466,-3.735795,4.534399,-0.013134,0.015272,0.052687,30.49,63.0883885443959
1372,-8.126026,-3.736392,4.546363,-0.012217,0.014355,0.052534,30.48,63.0547986488216
1382,-8.123632,-3.735795,4.542774,-0.010843,0.011759,0.051313,30.48,63.0667999609677
1392,-8.138588,-3.735196,4.55055,-0.010385,0.010385,0.050091,30.49,63.0617231207125
1402,-8.123035,-3.74058,4.560122,-0.01069,0.009468,0.045357,30.49,62.9822929318746
1412,-8.142178,-3.741179,4.555336,-0.009774,0.009621,0.040317,30.51,63.0522750322056
1422,-8.137392,-3.72383,4.554738,-0.009163,0.009468,0.034667,30.51,63.025368370241
1432,-8.145766,-3.728018,4.558327,-0.008552,0.011148,0.027489,30.47,63.0313301898767
1442,-8.130812,-3.733402,4.569095,-0.007941,0.01405,0.020769,30.47,62.9472392697194
1452,-8.127223,-3.723232,4.570889,-0.007636,0.017104,0.011759,30.5,62.9186509409942
1462,-8.121839,-3.726821,4.570889,-0.007636,0.021838,0.004429,30.5,62.9098196172454
1472,-8.091928,-3.731009,4.572684,-0.008094,0.033445,-0.009163,30.48,62.8344430980375
1482,-8.090732,-3.724428,4.575077,-0.007636,0.039706,-0.014966,30.53,62.8122287473117
1492,-8.085348,-3.722634,4.572086,-0.00672,0.045509,-0.018937,30.53,62.8127050658242
1502,-8.081161,-3.706482,4.567898,-0.006109,0.05284,-0.022144,30.53,62.8064311276046
1512,-8.070992,-3.723232,4.557131,-0.005803,0.059712,-0.023671,30.53,62.8554969064174
1522,-8.069795,-3.71725,4.559524,-0.005192,0.066279,-0.023824,30.52,62.8338789209343
1532,-8.061419,-3.721437,4.54397,-0.005192,0.072693,-0.023213,30.52,62.8980208675182
1542,-8.066804,-3.713661,4.545166,-0.003665,0.077733,-0.020769,30.48,62.8961838668124
1552,-8.072187,-3.720839,4.527221,-0.003207,0.08323,-0.017257,30.48,63.0085936990105
1562,-8.065009,-3.723232,4.516453,-0.002902,0.086285,-0.012065,30.49,63.0493687518813
1572,-8.087142,-3.715455,4.502096,-0.002291,0.087659,-0.007025,30.49,63.1667595856229
1582,-8.099107,-3.727419,4.493721,-0.002749,0.087506,-0.001222,30.5,63.2507535882191
1592,-8.105686,-3.714259,4.487141,-0.002596,0.086743,0.005803,30.5,63.2857391759721
1602,-8.120044,-3.716054,4.475775,-0.002138,0.083841,0.012065,30.54,63.3795639531896
1612,-8.129017,-3.715455,4.46082,-0.002138,0.077885,0.018784,30.54,63.4765810294984
1622,-8.152946,-3.718446,4.460222,-0.002291,0.07086,0.025962,30.5,63.5384609099222
1632,-8.160722,-3.729812,4.448257,-0.003054,0.061392,0.030085,30.5,63.629809693884
1642,-8.214561,-3.723232,4.441079,-0.003818,0.04948,0.037263,30.5,63.783609606012
1652,-8.218149,-3.715455,4.433302,-0.004887,0.023824,0.038943,30.48,63.8235420736174
1662,-8.225328,-3.716652,4.439284,-0.00672,0.008705,0.038943,30.48,63.8106393652717
1672,-8.238488,-3.726223,4.4339,-0.00901,-0.00733,0.037263,30.49,63.8781366917912
1682,-8.249854,-3.720839,4.430909,-0.010537,-0.023824,0.034667,30.49,63.9137904150318
1692,-8.257631,-3.725625,4.44048,-0.012217,-0.039554,0.031918,30.46,63.8875904354369
1702,-8.250452,-3.728616,4.448855,-0.014355,-0.055894,0.024282,30.46,63.831599262106
1712,-8.26481,-3.712464,4.4674,-0.017257,-0.071471,0.01741,30.52,63.7533441351267
1722,-8.254042,-3.723232,4.477569,-0.0197,-0.085216,0.00901,30.52,63.6880691089542
1732,-8.249256,-3.722036,4.474578,-0.021686,-0.097891,0.000916,30.48,63.6910732932279
1742,-8.221739,-3.731009,4.493721,-0.023976,-0.108123,-0.00733,30.48,63.5397727050731
1752,-8.215756,-3.733402,4.509872,-0.027489,-0.116523,-0.016799,30.46,63.4463723368133
1762,-8.200802,-3.72383,4.520042,-0.02978,-0.122173,-0.025198,30.46,63.3499810566836
1772,-8.182258,-3.728018,4.532006,-0.031307,-0.126602,-0.033598,30.5,63.25047805618
1782,-8.149356,-3.725625,4.546363,-0.03207,-0.128282,-0.042761,30.5,63.0980011420558
1792,-8.137392,-3.720241,4.54397,-0.033445,-0.127671,-0.050244,30.52,63.0762934032268
1802,-8.103892,-3.731607,4.559524,-0.033903,-0.1237,-0.0562,30.52,62.9304204380801
1812,-8.052446,-3.716652,4.578666,-0.034056,-0.118508,-0.062003,30.52,62.6941667642288
1822,-8.041678,-3.727419,4.58405,-0.033292,-0.100793,-0.067501,30.5,62.6528609728086
1832,-8.022536,-3.739383,4.598407,-0.032376,-0.08995,-0.069028,30.5,62.5471089658598
1842,-7.994421,-3.728616,4.606782,-0.031001,-0.076511,-0.068264,30.5,62.4246093148356
1852,-7.983054,-3.739982,4.601996,-0.029322,-0.062156,-0.065821,30.5,62.4344240652833
1862,-7.979465,-3.736392,4.610969,-0.027336,-0.047037,-0.062156,30.48,62.3758688615023
1872,-7.978867,-3.726223,4.603791,-0.02642,-0.031918,-0.056658,30.48,62.3995744073108
1882,-7.968698,-3.742374,4.604389,-0.023824,-0.016035,-0.051465,30.5,62.3902146427049
1893,-7.97109,-3.728616,4.609773,-0.021686,-0.001833,-0.044135,30.5,62.3528812347023
1902,-7.977072,-3.732205,4.596612,-0.019548,0.012828,-0.03543,30.5,62.4386905586933
1912,-7.986644,-3.732804,4.587041,-0.017868,0.026725,-0.028711,30.5,62.5114165148789
1922,-8.003393,-3.729812,4.589434,-0.015424,0.040012,-0.019548,30.47,62.5361661107023
1932,-8.00459,-3.742374,4.590032,-0.013897,0.050702,-0.011301,30.47,62.5500916100763
1942,-8.021938,-3.750151,4.567898,-0.01237,0.059407,-0.00168,30.51,62.7134270589942
1952,-8.035098,-3.736991,4.563113,-0.009927,0.067195,0.007025,30.51,62.7546471648236
1962,-8.054839,-3.731607,4.551149,-0.008247,0.072235,0.016035,30.48,62.856858892713
1972,-8.06441,-3.738786,4.542774,-0.006567,0.076053,0.023213,30.48,62.9302772740444
1982,-8.107481,-3.74058,4.527819,-0.004887,0.07758,0.029932,30.47,63.1102677849496
1992,-8.121839,-3.748357,4.511667,-0.001833,0.074526,0.042608,30.47,63.2348031328995
2002,-8.143373,-3.74716,4.50748,-0.000916,0.070708,0.046273,30.5,63.3051558371081
2012,-8.155936,-3.732804,4.498507,0.001069,0.065363,0.047953,30.51,63.3648593392154
2022,-8.163713,-3.735196,4.500899,0.002902,0.058185,0.050855,30.51,63.3732937470461
2032,-8.17149,-3.743571,4.502096,0.003512,0.050244,0.052076,30.49,63.3941629238524
2042,-8.173882,-3.736392,4.506881,0.004123,0.04215,0.051007,30.49,63.3677089241698
2052,-8.183454,-3.735196,4.498507,0.006261,0.034972,0.049022,30.52,63.4313165949278
2062,-8.165507,-3.733402,4.495516,0.007178,0.026267,0.047342,30.52,63.4030162080617
2072,-8.17149,-3.725625,4.509872,0.007483,0.019548,0.043371,30.47,63.3354765678784
2082,-8.17149,-3.729812,4.511667,0.007178,0.012828,0.038332,30.47,63.3307783342619
2092,-8.173284,-3.726821,4.519444,0.007789,0.008094,0.034361,30.53,63.2921797566235
2102,-8.165507,-3.728018,4.528417,0.007636,0.004123,0.027489,30.53,63.2296499276382
2112,-8.156534,-3.745964,4.532604,0.005803,0.002138,0.021991,30.51,63.2065861424998
2122,-8.137392,-3.729812,4.540979,0.005192,0.001527,0.016493,30.51,63.1018129426465
2132,-8.13799,-3.731009,4.555336,0.003512,0.001833,0.009927,30.51,63.0314701854936
2142,-8.133802,-3.721437,4.558327,0.001985,0.004734,0.003512,30.51,62.9960851356144
2152,-8.115258,-3.725027,4.565506,-0.000153,0.007178,-0.003207,30.47,62.919691218711
2162,-8.126624,-3.720839,4.55055,-0.002291,0.016188,-0.014203,30.47,63.018093567774
2172,-8.114061,-3.725027,4.558327,-0.006261,0.02138,-0.01741,30.52,62.9533941444756
2182,-8.099705,-3.722036,4.554738,-0.00901,0.026725,-0.022297,30.49,62.934487178876
2192,-8.113463,-3.727419,4.551149,-0.010232,0.03146,-0.025504,30.49,62.9911263596531
2202,-8.112864,-3.719045,4.545764,-0.012217,0.035888,-0.0281,30.49,63.008084078842
2212,-8.109874,-3.73041,4.535595,-0.013897,0.039706,-0.0281,30.49,63.0651950593404
2222,-8.129615,-3.726223,4.531408,-0.016035,0.040775,-0.029016,30.48,63.1284484631509
2232,-8.121839,-3.721437,4.532006,-0.017562,0.040775,-0.02978,30.48,63.1019682462683
2242,-8.142178,-3.723232,4.512266,-0.018326,0.039859,-0.029169,30.54,63.2523187735496
2255,-8.135597,-3.726223,4.492525,-0.018784,0.037415,-0.027336,30.54,63.3409889396242
2262,-8.14457,-3.734,4.486543,-0.020006,0.03375,-0.025045,30.51,63.4007974874905
2272,-8.157133,-3.734598,4.491328,-0.021075,0.027489,-0.022602,30.51,63.4062047776995
2282,-8.159525,-3.729812,4.466204,-0.020922,0.0197,-0.020006,30.51,63.5351167748041
2292,-8.1679,-3.736392,4.469195,-0.020922,0.010996,-0.016646,30.51,63.5461743646823
2302,-8.177471,-3.737589,4.465605,-0.021533,0.000764,-0.014661,30.5,63.5879139561589
2312,-8.17149,-3.728018,4.457231,-0.022297,-0.010385,-0.012523,30.5,63.606835694953
2322,-8.176275,-3.728018,4.453043,-0.022449,-0.022602,-0.010996,30.51,63.639324410775
2332,-8.178668,-3.732804,4.459623,-0.023213,-0.035277,-0.006567,30.51,63.6162184249505
2342,-8.1679,-3.727419,4.456034,-0.022449,-0.057574,-0.005956,30.5,63.6040337614631
2352,-8.175676,-3.732804,4.480561,-0.022907,-0.068264,-0.005803,30.5,63.5023019594159
2362,-8.161918,-3.735196,4.482355,-0.021991,-0.077427,-0.005192,30.5,63.4637853368822
2372,-8.143971,-3.73041,4.490132,-0.022297,-0.086132,-0.006414,30.53,63.3772239588698
2382,-8.132008,-3.716652,4.494917,-0.021228,-0.092088,-0.006261,30.53,63.3101367852668
2392,-8.132008,-3.729214,4.516453,-0.020922,-0.095906,-0.006872,30.5,63.2135587727499
2402,-8.107481,-3.726821,4.529613,-0.020159,-0.097433,-0.00901,30.5,63.0862026949639
2412,-8.096714,-3.708277,4.542176,-0.018784,-0.096211,-0.010079,30.51,62.9765484282963
2422,-8.084151,-3.716054,4.557131,-0.016952,-0.093615,-0.011454,30.51,62.8789013779438
2432,-8.061419,-3.719045,4.566702,-0.01573,-0.088423,-0.01237,30.5,62.7792664298412
2442,-8.04467,-3.714259,4.578666,-0.014661,-0.081092,-0.013439,30.5,62.6729183602937
2452,-8.039885,-3.720241,4.591826,-0.011912,-0.071319,-0.01237,30.52,62.6009521027773
2462,-8.020144,-3.721437,4.599603,-0.010079,-0.059865,-0.013897,30.52,62.5152021142516
2472,-8.020741,-3.710072,4.605586,-0.008399,-0.047342,-0.01405,30.52,62.4734459722535
2482,-8.012366,-3.713661,4.610969,-0.006567,-0.032529,-0.014508,30.52,62.4298000586765
2492,-8.00459,-3.714857,4.611567,-0.003818,-0.017257,-0.013286,30.52,62.4093021941967
2502,-8.002197,-3.710072,4.613362,-0.002443,-0.002291,-0.011759,30.52,62.3889900164185
2512,-8.018948,-3.71067,4.608576,0.000458,0.028558,-0.008552,30.5,62.4545445726505
2522,-8.017153,-3.710072,4.597808,0.001527,0.042913,-0.007483,30.48,62.5044705674825
2532,-8.026126,-3.720839,4.593023,0.002749,0.056352,-0.003971,30.48,62.5624837876744
2542,-8.038688,-3.713661,4.591228,0.00336,0.066584,-0.001833,30.49,62.5938303174882
2552,-8.042875,-3.71067,4.58405,0.004429,0.075747,0.001985,30.49,62.63717548435
2562,-8.061419,-3.71725,4.570889,0.004276,0.083383,0.005803,30.51,62.755927884862
2572,-8.079964,-3.717848,4.555336,0.004734,0.089186,0.010843,30.51,62.8800779876463
2582,-8.096714,-3.717848,4.536194,0.003971,0.091935,0.01405,30.52,63.0174757545352
2592,-8.111669,-3.729812,4.523033,0.003512,0.092546,0.017715,30.52,63.132889414827
2602,-8.133802,-3.718446,4.517649,0.002902,0.090103,0.021991,30.48,63.2001047126907
2612,-8.139186,-3.725027,4.508676,0.001985,0.085827,0.02474,30.48,63.2655667132764
2622,-8.166704,-3.728616,4.487141,0.000305,0.078496,0.027031,30.5,63.4434666193493
2632,-8.184649,-3.733402,4.47398,0,0.070555,0.029322,30.5,63.5572908392933
2642,-8.19123,-3.729812,4.472186,-0.001374,0.061087,0.03146,30.5,63.5778711506669
2652,-8.196015,-3.736392,4.457231,-0.002596,0.048869,0.030543,30.5,63.6721919456855
2662,-8.218747,-3.720839,4.458427,-0.003971,0.03543,0.029627,30.51,63.702105475953
2672,-8.218747,-3.734,4.471587,-0.004887,0.022144,0.028253,30.51,63.6487019776405
2682,-8.228917,-3.739383,4.461418,-0.006414,-0.005498,0.021228,30.53,63.7294781174651
2692,-8.216953,-3.739383,4.47398,-0.008399,-0.019395,0.016035,30.53,63.6380099668873
2702,-8.222935,-3.736392,4.480561,-0.009468,-0.031918,0.010996,30.53,63.6151173396432
2712,-8.208578,-3.739383,4.487141,-0.011301,-0.042761,0.004429,30.52,63.551697021396
2722,-8.214561,-3.735795,4.496114,-0.012217,-0.052382,-0.002596,30.52,63.516062373272
2732,-8.204989,-3.739982,4.522435,-0.012828,-0.059254,-0.010537,30.52,63.3645825812905
2742,-8.181061,-3.732804,4.527221,-0.013897,-0.064599,-0.018173,30.52,63.2770914640309
2752,-8.164909,-3.744768,4.537988,-0.015119,-0.067195,-0.02474,30.51,63.1974787165773
2762,-8.140981,-3.734598,4.55414,-0.016493,-0.067501,-0.033139,30.51,63.0484477399518
2772,-8.134401,-3.74058,4.57747,-0.016799,-0.064599,-0.038637,30.54,62.9209583643946
2782,-8.110473,-3.737589,4.586443,-0.017715,-0.059712,-0.045051,30.54,62.8156419099884
2792,-8.090134,-3.744169,4.596014,-0.019242,-0.051465,-0.050396,30.51,62.7260141056529
2802,-8.080563,-3.741179,4.610371,-0.020311,-0.042761,-0.053603,30.51,62.6270678937563
2812,-8.063214,-3.736991,4.6008,-0.021686,-0.031612,-0.056047,30.53,62.6296564055423
2822,-8.050652,-3.737589,4.605586,-0.023213,-0.018784,-0.057421,30.53,62.5759480261596
2832,-8.039885,-3.744768,4.608576,-0.023824,-0.006872,-0.057727,30.56,62.5429501524966
2842,-8.030313,-3.736991,4.587639,-0.024129,0.00672,-0.056352,30.56,62.6179901973082
2852,-8.015357,-3.736392,4.590032,-0.02474,0.020922,-0.050091,30.53,62.5692456703361
2862,-8.018948,-3.729214,4.576273,-0.02474,0.04444,-0.044899,30.54,62.640111997615
2872,-8.023134,-3.744169,4.563711,-0.02474,0.053756,-0.038179,30.54,62.7310131286592
2882,-8.024331,-3.732205,4.552943,-0.024587,0.061239,-0.032376,30.52,62.775650460669
2892,-8.036894,-3.742973,4.532604,-0.022755,0.067348,-0.023518,30.52,62.9216637564146
2902,-8.045866,-3.736991,4.508078,-0.021838,0.071013,-0.015882,30.5,63.0621094277342
2912,-8.05125,-3.748357,4.497908,-0.020006,0.072235,-0.007483,30.5,63.1395159130661
2922,-8.066804,-3.731607,4.486543,-0.018326,0.071471,0.000764,30.53,63.2162132728051
2932,-8.093124,-3.745365,4.476373,-0.016799,0.067195,0.008552,30.53,63.3451025748371
2942,-8.108678,-3.753741,4.457231,-0.01405,0.061392,0.016188,30.52,63.4886571791332
2952,-8.117052,-3.742973,4.457829,-0.012065,0.053145,0.024282,30.52,63.4934880362931
2962,-8.133802,-3.739982,4.438088,-0.009316,0.043677,0.030849,30.55,63.6305202787432
2972,-8.15773,-3.736991,4.436294,-0.007636,0.031612,0.036041,30.55,63.6918377927065
2982,-8.152946,-3.727419,4.432106,-0.004887,0.019548,0.040775,30.51,63.6921866851429
2992,-8.160124,-3.725625,4.433302,-0.001985,0.005651,0.043371,30.51,63.7007243877462
3002,-8.187043,-3.727419,4.441677,0,-0.008247,0.044288,30.54,63.7217049111037
3012,-8.187043,-3.736392,4.445267,0.00168,-0.021686,0.044288,30.54,63.7127358059511
3022,-8.190034,-3.729812,4.470989,0.003054,-0.034361,0.042913,30.54,63.5812216128876
3032,-8.198408,-3.729214,4.49073,0.005498,-0.056963,0.036041,30.49,63.4992504512729
3042,-8.203195,-3.713063,4.499105,0.006109,-0.065515,0.031154,30.49,63.4507096214102
3052,-8.181659,-3.714857,4.52423,0.007483,-0.072235,0.025045,30.55,63.2746596510975
3062,-8.1679,-3.718446,4.521836,0.007941,-0.076511,0.018937,30.55,63.258544388554
3072,-8.153543,-3.709473,4.536194,0.007636,-0.078038,0.012523,30.49,63.1422803328836
3082,-8.141579,-3.720839,4.566104,0.007941,-0.07758,0.004734,30.49,62.9742435783794
3092,-8.139186,-3.719045,4.571488,0.00672,-0.074526,-0.002291,30.5,62.939326328364
3102,-8.110473,-3.711866,4.589434,0.006261,-0.069486,-0.00901,30.5,62.7724310240979
3112,-8.102098,-3.712464,4.601398,0.005956,-0.061087,-0.01405,30.52,62.6924088255281
3122,-8.099107,-3.707081,4.602595,0.004276,-0.051618,-0.01909,30.52,62.6733250285099
3132,-8.076375,-3.709473,4.618746,0.003207,-0.040928,-0.023213,30.48,62.5396000566768
3142,-8.058429,-3.708875,4.609175,0.002443,-0.029016,-0.025809,30.48,62.5445206733686
3152,-8.053642,-3.714857,4.621737,0.001527,-0.015272,-0.027336,30.52,62.4757874731896
3162,-8.04826,-3.707679,4.610371,0.001527,-0.001833,-0.02642,30.52,62.5126822711223
3172,-8.039885,-3.719045,4.60738,0.000458,0.012065,-0.025504,30.52,62.520385747432
3182,-8.035697,-3.707081,4.604987,-0.001069,0.024587,-0.022907,30.52,62.5092064322409
3192,-8.042276,-3.711268,4.58405,-0.001374,0.03711,-0.020922,30.51,62.6364008843943
3202,-8.056036,-3.719045,4.562515,-0.002902,0.0562,-0.013134,30.51,62.7878090685067
3212,-8.052446,-3.71725,4.564907,-0.003665,0.063377,-0.007941,30.5,62.7650524984368
3222,-8.067401,-3.715455,4.540381,-0.005192,0.068111,-0.002749,30.5,62.9240327417634
3232,-8.090732,-3.722036,4.527819,-0.005956,0.071471,0.001527,30.5,63.0506850015126
3242,-8.094919,-3.722634,4.518248,-0.006872,0.072235,0.006261,30.53,63.1101535925462
3252,-8.121839,-3.725625,4.509872,-0.008094,0.069791,0.010996,30.53,63.2194830204718
3262,-8.135597,-3.725625,4.499105,-0.008705,0.065515,0.014355,30.53,63.3067091755804
3272,-8.14457,-3.727419,4.482953,-0.010537,0.058796,0.017104,30.53,63.4121403671399
3282,-8.163713,-3.729214,4.470391,-0.011454,0.049633,0.018937,30.52,63.5227657153698
3292,-8.185846,-3.738786,4.461418,-0.012981,0.039248,0.01909,30.52,63.6298953463359
3302,-8.193623,-3.731607,4.459025,-0.015272,0.027489,0.018021,30.46,63.6524991023109
3312,-8.203195,-3.738187,4.465007,-0.016035,0.014813,0.017104,30.46,63.6508816743023
3322,-8.204989,-3.728616,4.457231,-0.017104,0.000764,0.014355,30.5,63.6846933311935
3332,-8.222935,-3.736991,4.466204,-0.017257,-0.012675,0.010537,30.5,63.6888771802205
3342,-8.228917,-3.736392,4.466802,-0.017562,-0.025198,0.006109,30.46,63.6989269480151
3352,-8.221739,-3.737589,4.475177,-0.019242,-0.038485,0.000916,30.46,63.6410349038389
3362,-8.215158,-3.744768,4.500899,-0.021533,-0.050396,-0.005956,30.5,63.5025312394827
3382,-8.186445,-3.735795,4.533203,-0.02306,-0.073151,-0.026267,30.5,63.2624083237238
3392,-8.172088,-3.739383,4.545764,-0.024587,-0.076053,-0.032987,30.5,63.1689829001624
3402,-8.149954,-3.736392,4.566104,-0.025351,-0.076816,-0.039706,30.5,63.0106984495942
3412,-8.142776,-3.741179,4.579265,-0.025656,-0.074373,-0.04612,30.53,62.9322298019363
3422,-8.116454,-3.735795,4.586443,-0.025809,-0.06918,-0.050855,30.53,62.8278447586262
3432,-8.097312,-3.74058,4.590631,-0.026267,-0.062308,-0.055436,30.51,62.7664512796535
3442,-8.069196,-3.72383,4.606782,-0.026267,-0.052382,-0.05849,30.51,62.598999668547
3452,-8.056036,-3.723232,4.618746,-0.026878,-0.040012,-0.060934,30.5,62.5060211732058
3462,-8.0345,-3.72383,4.616951,-0.026573,-0.026878,-0.062308,30.5,62.4640569108417
3472,-8.015956,-3.735196,4.625326,-0.025962,-0.011606,-0.06185,30.49,62.3895020164074
3482,-8.009376,-3.731009,4.626523,-0.025504,0.004276,-0.059865,30.49,62.3628211576708
3492,-7.995617,-3.739982,4.619942,-0.024587,0.020617,-0.058032,30.52,62.3732149612446
3502,-7.990831,-3.735196,4.606184,-0.022755,0.036194,-0.052993,30.52,62.4264111158568
3512,-7.974679,-3.738786,4.595416,-0.021838,0.052229,-0.047342,30.5,62.446471180375
3522,-7.974082,-3.744768,4.579265,-0.020617,0.066126,-0.040623,30.5,62.5344435027719
3532,-7.98126,-3.73041,4.544569,-0.018326,0.078496,-0.033139,30.54,62.7134662293482
3542,-8.009376,-3.728018,4.529015,-0.016188,0.089186,-0.024129,30.54,62.857985123237
3552,-8.012965,-3.747759,4.511069,-0.011301,0.103847,-0.004887,30.48,62.9806637396945
3562,-8.033902,-3.739383,4.499105,-0.007941,0.10736,0.005192,30.49,63.0825272350186
3572,-8.053642,-3.743571,4.474578,-0.004734,0.107512,0.016035,30.49,63.2598189456933
3582,-8.066804,-3.735196,4.459025,-0.002138,0.104458,0.025504,30.51,63.3616527614128
3592,-8.079964,-3.74058,4.434498,0.000764,0.099113,0.033903,30.51,63.5246188514906
3602,-8.110473,-3.726223,4.418347,0.003818,0.09163,0.043371,30.48,63.6634267517591
3612,-8.133204,-3.741776,4.422534,0.007025,0.081856,0.051007,30.48,63.7110077386681
3622,-8.169695,-3.745365,4.424927,0.010079,0.068417,0.05681,30.51,63.7865337497056
3632,-8.177471,-3.735795,4.430311,0.012828,0.053909,0.062919,30.51,63.7667193654366
3642,-8.196015,-3.731009,4.405785,0.015424,0.038026,0.065821,30.48,63.9300589074528
3652,-8.214561,-3.738786,4.409374,0.017868,0.020159,0.067653,30.48,63.9620587800653
3662,-8.224131,-3.725625,4.428516,0.019548,0.002443,0.06689,30.5,63.872250369787
3672,-8.25165,-3.731607,4.426722,0.021533,-0.014966,0.06521,30.5,63.9503333672105
3682,-8.247462,-3.724428,4.442276,0.022602,-0.03207,0.062003,30.48,63.8540072299654
3692,-8.257033,-3.728616,4.449454,0.021838,-0.048869,0.056658,30.48,63.8435615017455
3702,-8.257631,-3.735196,4.471587,0.02138,-0.062308,0.051007,30.52,63.7390657266356
3712,-8.244471,-3.708277,4.505685,0.020769,-0.075289,0.043677,30.52,63.5077206982882
3722,-8.24148,-3.727419,4.519444,0.016952,-0.093921,0.025351,30.52,63.4509443835139
3732,-8.213365,-3.719643,4.556532,0.013592,-0.099571,0.014966,30.52,63.1897197937705
3742,-8.205587,-3.718446,4.558327,0.011301,-0.102625,0.005651,30.52,63.1612296601108
3752,-8.190632,-3.72383,4.578068,0.008094,-0.102778,-0.004123,30.5,63.0320646902221
3762,-8.170293,-3.719045,4.600202,0.003818,-0.099571,-0.013744,30.5,62.8672179248002
3772,-8.155338,-3.711268,4.607978,0,-0.09499,-0.022755,30.58,62.7842098567848
3782,-8.128419,-3.715455,4.609773,-0.004429,-0.087201,-0.031154,30.58,62.7158222057234
3792,-8.105686,-3.713661,4.626523,-0.008094,-0.077885,-0.038026,30.52,62.5749071725508
3802,-8.090134,-3.71725,4.62413,-0.012217,-0.06689,-0.04383,30.52,62.5537929822808
3812,-8.087741,-3.722036,4.630112,-0.016493,-0.054978,-0.048411,30.55,62.5230232732254
3822,-8.057232,-3.71725,4.616353,-0.019548,-0.041997,-0.052687,30.55,62.5144202820449
3832,-8.04826,-3.723232,4.610371,-0.022755,-0.028711,-0.053909,30.49,62.5299307076186
3842,-8.029117,-3.725027,4.616951,-0.02474,-0.016035,-0.055436,30.49,62.4524354084889
3852,-8.038688,-3.729812,4.60738,-0.026725,-0.00336,-0.05452,30.5,62.5294911488499
3862,-8.024331,-3.72383,4.590032,-0.028253,0.008399,-0.052687,30.5,62.5767651206233
3872,-8.029715,-3.731607,4.58405,-0.029627,0.018784,-0.049938,30.47,62.6288701386121
3882,-8.025527,-3.73041,4.559524,-0.030238,0.027794,-0.04612,30.47,62.7428344333844
3892,-8.042276,-3.733402,4.543372,-0.02978,0.041997,-0.036652,30.52,62.8687375177507
3902,-8.045268,-3.732205,4.53739,-0.027794,0.046273,-0.030543,30.53,62.9051532098276
3912,-8.061419,-3.736991,4.516453,-0.027031,0.048564,-0.02474,30.53,63.0559303183329
3922,-8.067401,-3.741776,4.505087,-0.02474,0.049175,-0.018784,30.49,63.1335400030497
3932,-8.076973,-3.735196,4.500301,-0.023213,0.047647,-0.012981,30.49,63.1734431167818
3942,-8.092526,-3.734598,4.501498,-0.02138,0.045204,-0.007178,30.48,63.2032272998261
3952,-8.098508,-3.733402,4.488338,-0.0197,0.041539,-0.002138,30.48,63.2834012644821
3962,-8.109874,-3.732205,4.496712,-0.016952,0.036194,0.002596,30.53,63.265839354945
3972,-8.119445,-3.738187,4.489533,-0.014813,0.030849,0.006567,30.53,63.3314126981078
3982,-8.135597,-3.731009,4.487739,-0.01405,0.024893,0.008858,30.53,63.3705849855357
3992,-8.135597,-3.729214,4.495516,-0.01237,0.018173,0.010996,30.53,63.3288949083384
4002,-8.147561,-3.722036,4.505685,-0.009927,0.011759,0.013592,30.5,63.2972127372095
4012,-8.157133,-3.73041,4.512266,-0.008552,0.006109,0.014203,30.5,63.2949141069817
4022,-8.147561,-3.71725,4.512266,-0.008247,0.000764,0.012675,30.52,63.2585187341835
4032,-8.14457,-3.738786,4.523632,-0.006872,-0.002749,0.012675,30.52,63.2166168648025
4042,-8.158927,-3.72383,4.53739,-0.006567,-0.005803,0.010079,30.54,63.1641471784709
4052,-8.146963,-3.71725,4.546961,-0.006109,-0.007636,0.007178,30.54,63.080358890448
4062,-8.142776,-3.716652,4.552345,-0.005803,-0.007941,0.002291,30.48,63.0424877194706
4072,-8.141579,-3.715455,4.557131,-0.006109,-0.003665,-0.001527,30.48,63.014047881529
4082,-8.129615,-3.718446,4.566702,-0.00672,-0.000458,-0.005498,30.48,62.9404037798842
4092,-8.108678,-3.714857,4.573282,-0.00733,0.004276,-0.008705,30.54,62.8535183807577
4102,-8.096116,-3.720241,4.578068,-0.007636,0.010232,-0.011148,30.54,62.8052223558764
4112,-8.090134,-3.711268,4.575675,-0.007636,0.016341,-0.013134,30.47,62.7933881812093
4122,-8.082357,-3.721437,4.576871,-0.008247,0.022602,-0.015119,30.47,62.7799150577597
4132,-8.082357,-3.714857,4.558327,-0.007789,0.029627,-0.01573,30.52,62.8672332332507
4142,-8.070992,-3.720839,4.554738,-0.007789,0.037263,-0.01741,30.52,62.8650909419076
4152,-8.073383,-3.72383,4.551149,-0.007789,0.043371,-0.017104,30.51,62.8923708433234
4162,-8.063214,-3.719045,4.540381,-0.00733,0.048564,-0.016493,30.51,62.9180186054238
4172,-8.063214,-3.725625,4.528417,-0.006567,0.053451,-0.015577,30.51,62.9864501456208
4182,-8.067401,-3.729812,4.515256,-0.005192,0.057574,-0.012828,30.51,63.0683459105496
4192,-8.081161,-3.739383,4.516453,-0.00504,0.060018,-0.010996,30.49,63.1051253811374
4202,-8.085946,-3.731607,4.500899,-0.003818,0.060476,-0.008247,30.49,63.1875870315368
4212,-8.096116,-3.734598,4.493721,-0.00168,0.060018,-0.004581,30.5,63.2514966351702
4222,-8.108678,-3.747759,4.487141,-0.000153,0.057269,-0.001069,30.5,63.3288274446052
4232,-8.133204,-3.734598,4.469792,0.002443,0.052687,0.002443,30.5,63.4607308878911
4242,-8.142178,-3.742973,4.451847,0.003665,0.039248,0.008858,30.5,63.582465801657
4256,-8.158329,-3.750151,4.445865,0.004581,0.031307,0.012523,30.54,63.6580652028979
4262,-8.1679,-3.746562,4.451249,0.005651,0.021533,0.014661,30.54,63.6487521942081
4272,-8.179864,-3.744768,4.447659,0.005345,0.010232,0.016341,30.54,63.6927870754792
4282,-8.187043,-3.732804,4.451847,0.006414,-0.001527,0.017562,30.5,63.6753012663619
4292,-8.194221,-3.744768,4.45065,0.006261,-0.013897,0.018326,30.5,63.7104911963432
4302,-8.203195,-3.744169,4.468596,0.004887,-0.026114,0.017715,30.48,63.6388437100431
4312,-8.203793,-3.734,4.464409,0.005498,-0.038179,0.017868,30.48,63.650922620334
4322,-8.209177,-3.738786,4.482355,0.004581,-0.049327,0.015272,30.49,63.576825445247
4332,-8.220542,-3.738786,4.481757,0.002902,-0.060781,0.013897,30.49,63.606028713331
4342,-8.193623,-3.742973,4.496712,0.000764,-0.070555,0.011912,30.49,63.4722203840347
4352,-8.19781,-3.739383,4.51406,-0.001222,-0.078802,0.008094,30.49,63.3898619390382
4362,-8.18764,-3.731607,4.523033,-0.00336,-0.085827,0.003818,30.49,63.3124170676367
4372,-8.17149,-3.738786,4.521238,-0.005192,-0.091019,-0.001069,30.49,63.2915999607348
4382,-8.179864,-3.73041,4.549952,-0.007025,-0.094837,-0.004123,30.5,63.1563165566441
4392,-8.160124,-3.73041,4.560719,-0.00901,-0.095448,-0.009316,30.5,63.0554707667301
4402,-8.15773,-3.725027,4.587639,-0.011912,-0.094226,-0.014355,30.51,62.9075962793338
4412,-8.109874,-3.739982,4.588835,-0.013592,-0.087048,-0.023213,30.51,62.8046936263476
4422,-8.096116,-3.734,4.591228,-0.018479,-0.079871,-0.026267,30.5,62.753369527546
4432,-8.091928,-3.734598,4.591826,-0.019395,-0.072998,-0.03146,30.53,62.741036864771
4442,-8.081758,-3.722036,4.603791,-0.019853,-0.062614,-0.033598,30.53,62.6422364005642
4452,-8.060822,-3.718446,4.605586,-0.020769,-0.052229,-0.035888,30.57,62.5790875611765
4462,-8.053044,-3.722634,4.60738,-0.02138,-0.04047,-0.037874,30.57,62.5559567205717
4472,-8.033303,-3.721437,4.602595,-0.021686,-0.028558,-0.039554,30.52,62.5315978204083
4482,-8.023134,-3.726821,4.613362,-0.021075,-0.01573,-0.039554,30.52,62.4583025542676
4492,-8.018349,-3.716054,4.593023,-0.021228,-0.003054,-0.038179,30.52,62.5384466542493
4502,-8.01476,-3.720839,4.591826,-0.020464,0.009163,-0.037874,30.52,62.5412613655501
4512,-8.014161,-3.734,4.593023,-0.0197,0.020311,-0.034819,30.52,62.5484303257726
4522,-8.000402,-3.714259,4.580461,-0.017868,0.031154,-0.03207,30.52,62.5574142726293
4532,-8.008778,-3.726223,4.574479,-0.017257,0.041692,-0.028711,30.52,62.6215404714987
4542,-8.017751,-3.725027,4.564907,-0.015577,0.049633,-0.024282,30.52,62.6906980793959
4552,-8.028519,-3.719643,4.553542,-0.01405,0.057727,-0.018937,30.49,62.768657486379
4562,-8.033902,-3.725027,4.549952,-0.012828,0.064294,-0.01405,30.49,62.8058509360623
4572,-8.035098,-3.729214,4.526622,-0.010996,0.068875,-0.008399,30.53,62.9328630921068
4582,-8.05783,-3.711866,4.525426,-0.009621,0.071471,0.001833,30.53,62.9739442289238
4592,-8.070393,-3.714857,4.515256,-0.006567,0.074067,0.007636,30.52,63.059107787878
4602,-8.087741,-3.726223,4.508078,-0.005192,0.072235,0.013592,30.54,63.1491896409191
4612,-8.102695,-3.720839,4.493123,-0.004276,0.069486,0.01741,30.54,63.2551393737893
4622,-8.111669,-3.714857,4.494319,-0.002596,0.065973,0.021075,30.53,63.2636315622899
4632,-8.134999,-3.708277,4.488338,-0.001222,0.061239,0.024435,30.53,63.3418563525827
4642,-8.132606,-3.726223,4.491328,-0.000764,0.055741,0.027336,30.48,63.3401284875594
4652,-8.142178,-3.721437,4.494319,0.000458,0.050244,0.029932,30.48,63.3420662531479
4662,-8.148159,-3.714857,4.494319,0.001222,0.043524,0.030849,30.51,63.3490152084828
4672,-8.151749,-3.719643,4.501498,0.002443,0.036957,0.030543,30.51,63.325815207624
4682,-8.166105,-3.713661,4.504489,0.003207,0.030849,0.030543,30.52,63.3376809826452
4692,-8.16132,-3.715455,4.502096,0.004123,0.025198,0.029016,30.52,63.3406363858786
4702,-8.176873,-3.721437,4.511667,0.005345,0.019548,0.027031,30.53,63.3344231462241
4712,-8.181061,-3.71725,4.517649,0.005956,0.014661,0.025045,30.53,63.3092852461161
4722,-8.182856,-3.71725,4.521836,0.005498,0.011301,0.020464,30.52,63.2921620890852
4732,-8.179864,-3.71725,4.52423,0.006109,0.007483,0.016341,30.52,63.2730085539624
4742,-8.170892,-3.72383,4.529613,0.006109,0.005345,0.011454,30.5,63.2316785111471
4752,-8.175676,-3.708277,4.530211,0.005803,0.003512,0.006567,30.5,63.2232929282907
4762,-8.156534,-3.717848,4.533203,0.004581,0.002596,-0.004429,30.51,63.1734590676996
4772,-8.154141,-3.709473,4.542774,0.003665,0.003054,-0.008858,30.55,63.110197368896
4782,-8.148758,-3.721437,4.534399,0.002902,0.003971,-0.013592,30.55,63.152986525531
4792,-8.151151,-3.715455,4.530809,0.002138,0.005498,-0.017257,30.48,63.1704793965532
4802,-8.136793,-3.719643,4.532006,0.000764,0.006872,-0.022144,30.48,63.1351825420893
4812,-8.136195,-3.719643,4.535595,-0.001527,0.008552,-0.025656,30.52,63.1154897500237
4822,-8.121839,-3.736392,4.522435,-0.004123,0.009316,-0.028863,30.52,63.1669253018901
4832,-8.124231,-3.72383,4.531408,-0.004734,0.010385,-0.029474,30.52,63.1132219236108
4842,-8.108678,-3.741179,4.514658,-0.006261,0.010079,-0.030849,30.52,63.1809428208196
4852,-8.112864,-3.722634,4.512266,-0.007941,0.008552,-0.031154,30.53,63.1829653070681
4862,-8.118249,-3.739982,4.505087,-0.009774,0.007178,-0.030543,30.53,63.2509887853498
4872,-8.123035,-3.744169,4.496114,-0.012217,0.005651,-0.029322,30.57,63.3125596938819
4882,-8.110473,-3.744768,4.484748,-0.013134,0.00168,-0.026878,30.57,63.3420499341626
4892,-8.12782,-3.739383,4.487141,-0.014355,-0.002902,-0.025045,30.51,63.3644807257392
4902,-8.120642,-3.739383,4.47398,-0.016341,-0.008247,-0.022602,30.51,63.4151506051295
4912,-8.126624,-3.742973,4.469792,-0.017104,-0.013897,-0.019853,30.49,63.4543857045325
4922,-8.148758,-3.743571,4.475775,-0.018479,-0.020617,-0.016493,30.49,63.4758015288411
4932,-8.130214,-3.747759,4.478765,-0.018173,-0.03543,-0.010232,30.5,63.4219048860353
4942,-8.129017,-3.737589,4.477569,-0.018937,-0.04215,-0.007025,30.52,63.4143472205748
4952,-8.142776,-3.745964,4.480561,-0.018631,-0.049938,-0.006109,30.52,63.4399904119036
4962,-8.134999,-3.743571,4.487739,-0.018784,-0.05681,-0.003971,30.52,63.38263658078
4972,-8.139186,-3.742973,4.494917,-0.017257,-0.06353,-0.003512,30.52,63.3550547172922
4982,-8.151749,-3.742973,4.505685,-0.017257,-0.068722,-0.003054,30.53,63.3293402704774
4992,-8.146365,-3.728616,4.523632,-0.016341,-0.072846,-0.002443,30.53,63.2099130142088
5002,-8.127223,-3.732804,4.538587,-0.016341,-0.074526,-0.00336,30.51,63.0933367273301
5012,-8.134999,-3.732804,4.544569,-0.015119,-0.075442,-0.004581,30.51,63.0811427574121
5022,-8.119445,-3.736392,4.553542,-0.01405,-0.075747,-0.006872,30.54,63.0027698995206
5032,-8.118249,-3.742374,4.574479,-0.012828,-0.073304,-0.009468,30.54,62.8999946600576
5042,-8.114061,-3.734,4.581657,-0.011912,-0.06918,-0.011759,30.57,62.8445245438046
5052,-8.103892,-3.736991,4.585845,-0.010996,-0.063072,-0.013744,30.57,62.8024343636949
5062,-8.095517,-3.736392,4.597808,-0.010079,-0.054672,-0.016646,30.55,62.7211564743008
5072,-8.085946,-3.725625,4.611567,-0.009468,-0.046426,-0.018937,30.55,62.6167029736754
5082,-8.079366,-3.723232,4.607978,-0.009927,-0.035736,-0.021075,30.53,62.6165748446199
5092,-8.063214,-3.728018,4.620541,-0.00901,-0.023213,-0.023671,30.53,62.5194265718535
5102,-8.048858,-3.718446,4.621139,-0.00901,0.00168,-0.027184,30.53,62.4713073591697
5112,-8.04467,-3.721437,4.618148,-0.006872,0.014813,-0.027489,30.5,62.479765577763
5122,-8.021339,-3.718446,4.61755,-0.007178,0.028253,-0.027489,30.5,62.4232837632314
5132,-8.03091,-3.718446,4.606782,-0.007178,0.041233,-0.026267,30.52,62.5011826016035
5142,-8.035098,-3.720241,4.598407,-0.006261,0.05284,-0.023824,30.52,62.5559194789262
5152,-8.023732,-3.713063,4.579862,-0.005803,0.063377,-0.022602,30.52,62.615272280017
5162,-8.020144,-3.721437,4.563711,-0.004734,0.072846,-0.018937,30.52,62.6985576157933
5172,-8.035697,-3.729214,4.555336,-0.004123,0.081092,-0.014813,30.54,62.787218111625
5182,-8.036894,-3.725027,4.539783,-0.00336,0.087201,-0.010385,30.54,62.8650563381788
5192,-8.047661,-3.725625,4.532604,-0.003207,0.091935,-0.005651,30.55,62.9281047284589
5202,-8.050652,-3.735196,4.510471,-0.002291,0.093462,0,30.55,63.0591791928657
5212,-8.063812,-3.722634,4.49731,0.000611,0.094684,0.006109,30.52,63.1440884130814
5222,-8.07817,-3.729812,4.495516,0.001069,0.093004,0.012065,30.52,63.1949455943813
5232,-8.086544,-3.727419,4.478168,0.002138,0.089339,0.017715,30.49,63.301069387693
5242,-8.105088,-3.726223,4.470391,0.003512,0.083689,0.023518,30.49,63.3831340631831
5252,-8.115856,-3.722634,4.454239,0.00504,0.07758,0.029474,30.51,63.4873720507246
5262,-8.143373,-3.718446,4.448855,0.007025,0.069028,0.033598,30.51,63.5745429776095
5272,-8.16132,-3.731009,4.454837,0.008247,0.059559,0.040775,30.59,63.5987405143397
5282,-8.169695,-3.722634,4.456034,0.009468,0.038332,0.043219,30.54,63.6031389093024
5292,-8.179864,-3.73041,4.46082,0.011148,0.027336,0.04444,30.54,63.6103362086265
5302,-8.195418,-3.726223,4.464409,0.01069,0.016646,0.044899,30.5,63.6234815347239
5312,-8.195418,-3.734,4.478168,0.011759,0.004887,0.043524,30.5,63.5614153814525
5322,-8.199007,-3.729214,4.474578,0.012065,-0.006261,0.04047,30.52,63.5829836742051
5332,-8.215158,-3.717848,4.494917,0.011148,-0.015272,0.037721,30.52,63.5047305835756
5342,-8.218747,-3.731607,4.496114,0.010996,-0.023213,0.033445,30.55,63.5213286785468
5352,-8.212766,-3.729214,4.506283,0.009927,-0.031001,0.0281,30.55,63.4533002376772
5362,-8.221141,-3.722036,4.515256,0.007789,-0.036499,0.020769,30.54,63.4195578616893
5373,-8.214561,-3.729214,4.53739,0.005956,-0.040317,0.014508,30.54,63.2995560802893
5382,-8.210373,-3.724428,4.545764,0.003054,-0.042761,0.005956,30.49,63.24233687714
5392,-8.201998,-3.731009,4.551149,0.000916,-0.04383,-0.002749,30.49,63.2025162340719
5402,-8.190034,-3.719643,4.566702,-0.001985,-0.043982,-0.012981,30.52,63.0837358672806
5412,-8.173882,-3.728018,4.570292,-0.005651,-0.041692,-0.02138,30.52,63.0366379070463
5422,-8.158927,-3.726821,4.57747,-0.009774,-0.038332,-0.029627,30.53,62.9638577441852
5432,-8.145168,-3.723232,4.580461,-0.012675,-0.034972,-0.037263,30.53,62.9124204538407
5442,-8.118249,-3.728018,4.572086,-0.015272,-0.030849,-0.04444,30.52,62.8965506071658
5452,-8.109276,-3.724428,4.575675,-0.020922,-0.019548,-0.057269,30.52,62.8531717731942
5462,-8.093722,-3.725027,4.557131,-0.023671,-0.014203,-0.061697,30.51,62.9113822517889
5472,-8.093722,-3.724428,4.551747,-0.025198,-0.009163,-0.064752,30.52,62.9381798801796
5482,-8.084151,-3.729812,4.545166,-0.027031,-0.004276,-0.066432,30.52,62.9549786363092
5492,-8.060224,-3.729812,4.533203,-0.027184,-0.000764,-0.066279,30.54,62.9594533884975
5502,-8.056036,-3.739383,4.528417,-0.028405,0.002596,-0.064141,30.54,62.9845397689815
5512,-8.056036,-3.72383,4.519444,-0.028863,0.004429,-0.062461,30.52,63.0134455736931
5522,-8.048858,-3.725027,4.504489,-0.028405,0.006109,-0.057879,30.52,63.0744904754048
5532,-8.058429,-3.723232,4.506283,-0.026725,0.005651,-0.053145,30.52,63.085961691833
5542,-8.049455,-3.735196,4.499703,-0.026114,0.005345,-0.047037,30.52,63.1116258766999
5552,-8.054839,-3.733402,4.484748,-0.023671,0.004887,-0.039401,30.53,63.1992178695663
5562,-8.059625,-3.732804,4.482953,-0.02138,0.002902,-0.031001,30.53,63.2190674535628
5572,-8.056634,-3.734,4.476373,-0.019395,-0.000153,-0.023671,30.54,63.2471723129373
5582,-8.069795,-3.737589,4.481757,-0.017257,-0.00336,-0.014203,30.54,63.2543460389078
5592,-8.076375,-3.74058,4.481757,-0.014203,-0.007025,-0.006567,30.52,63.2730476133965
5602,-8.082357,-3.727419,4.479962,-0.011912,-0.011148,0.001069,30.52,63.2820302243883
5612,-8.094919,-3.734598,4.498507,-0.009316,-0.015882,0.009468,30.54,63.224166923849
5622,-8.102695,-3.731607,4.511667,-0.007025,-0.022449,0.02138,30.54,63.1718293234705
5632,-8.107481,-3.734598,4.521836,-0.002596,-0.025198,0.025962,30.52,63.1343365418764
5642,-8.112864,-3.732804,4.527819,0.000153,-0.026878,0.030391,30.53,63.1144994583293
5652,-8.124231,-3.735795,4.532604,0.002291,-0.027794,0.033598,30.53,63.1200280053477
5662,-8.124829,-3.72383,4.545764,0.002749,-0.028711,0.034819,30.54,63.0414629458745
5672,-8.128419,-3.717848,4.554738,0.003818,-0.028253,0.034667,30.54,62.9977823883621
5682,-8.118249,-3.721437,4.566702,0.004429,-0.026878,0.032834,30.52,62.9167856497192
5692,-8.123035,-3.719045,4.5673,0.005345,-0.023518,0.030696,30.52,62.9224673982133
5702,-8.137392,-3.723232,4.582853,0.004887,-0.0197,0.027642,30.55,62.8819335426678
5712,-8.134999,-3.726821,4.580461,0.004734,-0.015119,0.022602,30.55,62.8922973200779
5722,-8.122437,-3.720839,4.592425,0.004734,-0.009774,0.017868,30.52,62.7953968448128
5732,-8.130812,-3.723232,4.587639,0.004123,-0.002902,0.012217,30.52,62.8421029409434
5742,-8.117651,-3.720241,4.591228,0.003512,0.004276,0.004734,30.52,62.7894711251408
5752,-8.123632,-3.721437,4.589434,0.002749,0.011148,-0.000764,30.52,62.8140521790483
5762,-8.118249,-3.72383,4.593023,0.002749,0.018479,-0.007025,30.54,62.7856841610319
5772,-8.107481,-3.722036,4.590631,0.001374,0.025351,-0.01237,30.54,62.7703184393165
5782,-8.120044,-3.731009,4.5673,0.000611,0.03207,-0.01741,30.54,62.9283643712439
5792,-8.097312,-3.729214,4.557131,0.000153,0.038332,-0.02642,30.54,62.9244431655171
5802,-8.097312,-3.727419,4.552943,-0.001833,0.048564,-0.029169,30.5,62.943832716241
5812,-8.098508,-3.731009,4.540381,-0.001069,0.052534,-0.030696,30.52,63.0146327083866
5822,-8.090134,-3.727419,4.529613,-0.00168,0.055283,-0.03146,30.52,63.0459540180824
5832,-8.083553,-3.736392,4.529015,-0.001527,0.057116,-0.03146,30.55,63.0432515167035
5842,-8.079366,-3.735795,4.503891,-0.001374,0.057879,-0.029322,30.55,63.1613246551037
5852,-8.097312,-3.744768,4.503891,-0.000764,0.057421,-0.026725,30.52,63.2132349847715
5862,-8.091928,-3.726821,4.496114,-0.000458,0.055436,-0.023671,30.52,63.2209864071352
5872,-8.094321,-3.742973,4.483552,-0.000458,0.053145,-0.019395,30.54,63.3084845497911
5882,-8.098508,-3.734598,4.487141,-0.000458,0.049327,-0.014813,30.54,63.2908296907015
5892,-8.11466,-3.733402,4.481159,-0.000916,0.044593,-0.010232,30.55,63.3579830653555
5902,-8.102098,-3.738786,4.47398,-0.000611,0.039095,-0.004887,30.55,63.3712485699105
5912,-8.13141,-3.741179,4.473382,-0.001527,0.032223,0.000611,30.5,63.4452020826094
5922,-8.136793,-3.729214,4.470391,-0.001833,0.025351,0.005651,30.5,63.4602647603212
5932,-8.142776,-3.732205,4.467998,-0.002138,0.018937,0.010996,30.56,63.4896164516022
5942,-8.145168,-3.726821,4.479364,-0.002749,0.010232,0.013134,30.56,63.4312571270128
5952,-8.155936,-3.732205,4.475177,-0.00336,0.003207,0.017562,30.55,63.4834232045053
5962,-8.176873,-3.736392,4.49731,-0.004123,-0.003971,0.019548,30.55,63.4234242747975
5972,-8.182258,-3.732804,4.496114,-0.005498,-0.018173,0.022755,30.54,63.4382087127109
5982,-8.180463,-3.732804,4.502096,-0.006109,-0.024893,0.022144,30.54,63.403561912973
5992,-8.186445,-3.742973,4.508078,-0.007025,-0.031001,0.020006,30.54,63.3977488221782
6002,-8.179864,-3.727419,4.514658,-0.007941,-0.036805,0.018326,30.49,63.3324942223376
6012,-8.176873,-3.731607,4.526622,-0.008399,-0.040164,0.01405,30.49,63.2691109258887
6022,-8.17149,-3.73041,4.536791,-0.008858,-0.043524,0.009621,30.52,63.2035875495324
6032,-8.175676,-3.721437,4.532604,-0.009621,-0.045662,0.004276,30.52,63.2250935500953
6042,-8.167302,-3.720839,4.542774,-0.010385,-0.04612,-0.001374,30.54,63.15318622551
6052,-8.161918,-3.715455,4.548158,-0.011759,-0.04612,-0.008094,30.54,63.1074633711287
6062,-8.145766,-3.722634,4.558925,-0.012065,-0.044746,-0.014203,30.51,63.0225019719333
6072,-8.143373,-3.734,4.558327,-0.012828,-0.042302,-0.019242,30.51,63.032146499785
6082,-8.112267,-3.72383,4.565506,-0.014203,-0.039248,-0.026573,30.49,62.9113202365642
6092,-8.117052,-3.718446,4.563113,-0.015119,-0.035125,-0.033139,30.49,62.9289726567849
6102,-8.105686,-3.726821,4.570292,-0.015424,-0.031001,-0.038332,30.55,62.8746494621662
6112,-8.100902,-3.71067,4.575077,-0.015577,-0.024893,-0.042302,30.55,62.8213789893326
6122,-8.080563,-3.720839,4.5673,-0.01573,-0.019242,-0.045968,30.52,62.8237536683747
6132,-8.05783,-3.715455,4.555934,-0.015882,-0.012828,-0.048717,30.52,62.8217562947444
6142,-8.046464,-3.722634,4.55414,-0.016493,0.000305,-0.050702,30.52,62.8117410498938
6152,-8.037491,-3.724428,4.546363,-0.016188,0.006567,-0.049786,30.55,62.8321209363697
6162,-8.033902,-3.723232,4.545764,-0.01573,0.012217,-0.047953,30.55,62.8253080048419
6172,-8.041678,-3.711866,4.549952,-0.014966,0.017715,-0.044593,30.52,62.8098783003147
6182,-8.020144,-3.716054,4.537988,-0.013744,0.02306,-0.039554,30.52,62.8243759293661
6192,-8.039885,-3.729812,4.525426,-0.01237,0.027642,-0.034208,30.54,62.951030672323
6202,-8.032706,-3.713063,4.518846,-0.010232,0.031001,-0.027031,30.54,62.9492848590989
6212,-8.039286,-3.724428,4.510471,-0.008247,0.034361,-0.018631,30.53,63.0204295361908
6222,-8.042875,-3.726821,4.50748,-0.006567,0.035583,-0.012523,30.53,63.0469281468939
6232,-8.05125,-3.705884,4.496712,-0.003665,0.036346,-0.004581,30.51,63.0991918572456
6242,-8.062616,-3.723232,4.493721,-0.001527,0.037415,0.004429,30.51,63.1603487778668
6252,-8.079366,-3.722036,4.500301,0.000458,0.035888,0.011759,30.52,63.1647739327749
6262,-8.089535,-3.719643,4.499105,0.003054,0.034514,0.0197,30.52,63.1922598969866
6272,-8.101499,-3.720241,4.499105,0.005651,0.031307,0.026573,30.52,63.221037461695
6282,-8.101499,-3.732205,4.501498,0.007483,0.027794,0.033445,30.52,63.2217031378427
6292,-8.126026,-3.716054,4.500899,0.009621,0.024435,0.038637,30.46,63.2648960380989
6302,-8.147561,-3.719643,4.496712,0.011912,0.019395,0.041997,30.46,63.3404868984621
6312,-8.164311,-3.72383,4.511069,0.013439,0.014203,0.045051,30.54,63.3107452935011
6322,-8.169096,-3.721437,4.515854,0.014813,0.004887,0.044288,30.56,63.2949775606899
6332,-8.187043,-3.717848,4.527819,0.014508,-0.000764,0.041692,30.56,63.2721279308471
6342,-8.196015,-3.715455,4.532006,0.01405,-0.005651,0.037874,30.51,63.2692296293127
6352,-8.196614,-3.71725,4.527221,0.013286,-0.010385,0.033139,30.51,63.2968260147258
6362,-8.188837,-3.726223,4.534997,0.011759,-0.014355,0.027642,30.52,63.2487107399755
6372,-8.199606,-3.720241,4.548756,0.011148,-0.016952,0.021075,30.52,63.197666986687
6382,-8.184649,-3.722036,4.549354,0.008094,-0.019548,0.013286,30.52,63.161620349976
6392,-8.193025,-3.722036,4.549952,0.005498,-0.02138,0.004887,30.52,63.178149568612
6402,-8.175676,-3.731009,4.559524,0.003207,-0.021838,-0.004429,30.54,63.0986139820984
6412,-8.177471,-3.735196,4.554738,0.000611,-0.022907,-0.012217,30.54,63.131552097699
6422,-8.161918,-3.74058,4.561916,-0.001985,-0.021686,-0.019853,30.5,63.0645171495629
6432,-8.146365,-3.726223,4.558925,-0.005498,-0.020311,-0.027336,30.5,63.0277696170579
6442,-8.136793,-3.733402,4.552345,-0.007483,-0.018021,-0.033903,30.51,63.0464439356515
6452,-8.114061,-3.746562,4.559524,-0.009621,-0.015272,-0.039401,30.51,62.9706926623738
6462,-8.095517,-3.735196,4.552345,-0.012217,-0.01237,-0.045051,30.55,62.9511109416941
6472,-8.085946,-3.745365,4.55414,-0.013897,-0.008094,-0.048564,30.55,62.9304492189034
6482,-8.077571,-3.744768,4.552943,-0.016188,-0.004276,-0.051007,30.54,62.916088926966
6492,-8.069795,-3.748357,4.544569,-0.017562,0.004429,-0.051007,30.56,62.9443725302581
6502,-8.070992,-3.748955,4.549952,-0.01741,0.008399,-0.050244,30.56,62.9203788991699
6512,-8.063214,-3.74716,4.542774,-0.018173,0.012065,-0.047495,30.48,62.9366512252431
6522,-8.055437,-3.74058,4.533801,-0.017715,0.016188,-0.04383,30.48,62.9568776486937
6532,-8.063214,-3.745365,4.523033,-0.01741,0.018631,-0.039706,30.53,63.0356497364682
6542,-8.059625,-3.747759,4.518248,-0.016799,0.021228,-0.034972,30.53,63.0543053965305
6552,-8.061419,-3.738187,4.513462,-0.01573,0.022907,-0.02978,30.5,63.0725689820792
6562,-8.072785,-3.737589,4.517051,-0.014661,0.024893,-0.023824,30.5,63.0803590355969
6572,-8.076973,-3.754937,4.52064,-0.014508,0.025504,-0.018173,30.55,63.0908292431512
6582,-8.094919,-3.741776,4.50748,-0.013439,0.025045,-0.012675,30.55,63.1860063067107
6592,-8.090732,-3.735196,4.521238,-0.012981,0.024435,-0.00672,30.54,63.0986343896712
6602,-8.098508,-3.739982,4.512863,-0.012065,0.023213,-0.001069,30.54,63.1649498838029
6612,-8.117651,-3.741179,4.502096,-0.011454,0.02138,0.002902,30.53,63.2661710049495
6622,-8.117651,-3.732804,4.512863,-0.010537,0.018937,0.008705,30.53,63.202111087399
6632,-8.128419,-3.732205,4.51406,-0.009927,0.015424,0.010996,30.53,63.2205833052945
6642,-8.145168,-3.734598,4.518846,-0.009621,0.010843,0.012217,30.53,63.2379156356173
6652,-8.147561,-3.729214,4.518846,-0.008705,0.008247,0.014355,30.49,63.2377439688394
6662,-8.146963,-3.720241,4.522435,-0.007789,0.000764,0.012828,30.49,63.20845197339
6672,-8.152946,-3.719045,4.529015,-0.006567,-0.002291,0.013134,30.53,63.1876571831992
6682,-8.161918,-3.731607,4.527221,-0.005803,-0.004887,0.011148,30.55,63.2311845620911
6692,-8.155338,-3.725027,4.523632,-0.005498,-0.007178,0.007941,30.55,63.2270603188088
6702,-8.149356,-3.719643,4.533801,-0.004887,-0.008705,0.005192,30.53,63.1555130300399
6712,-8.141579,-3.710072,4.534997,-0.004123,-0.01069,0.000611,30.53,63.1209224653353
6722,-8.148159,-3.705884,4.540979,-0.003054,-0.011301,-0.002596,30.52,63.1014415267458
6732,-8.145168,-3.725625,4.540381,-0.00336,-0.011301,-0.005956,30.52,63.1186063493086
6742,-8.124829,-3.714857,4.549354,-0.001222,-0.010385,-0.009621,30.5,63.0134988151496
6752,-8.12124,-3.725027,4.541577,-0.001069,-0.009468,-0.012217,30.5,63.0556353122884
6762,-8.105686,-3.724428,4.540381,-0.000458,-0.00733,-0.015577,30.52,63.0244255557979
6772,-8.101499,-3.718446,4.540979,0.000458,-0.005192,-0.017715,30.52,63.005002582604
6782,-8.088339,-3.715455,4.533203,0.002749,-0.002443,-0.019242,30.54,63.0103581907255
6792,-8.081161,-3.716054,4.545166,0.003665,0.00168,-0.019548,30.54,62.9328835142178
6802,-8.081758,-3.719045,4.531408,0.00504,0.003971,-0.020769,30.51,63.007870490168
6812,-8.070992,-3.719045,4.527819,0.006261,0.007789,-0.019395,30.51,63.0007451131968
6822,-8.060822,-3.720241,4.522435,0.007025,0.011148,-0.018326,30.54,63.0055294017458
6832,-8.06441,-3.716652,4.526622,0.008094,0.017104,-0.012675,30.54,62.9886619160099
6842,-8.065607,-3.725625,4.522435,0.009468,0.01909,-0.008858,30.5,63.0227499629742
6852,-8.072785,-3.73041,4.511667,0.010232,0.020617,-0.005498,30.53,63.1001018781663
6862,-8.069196,-3.729214,4.512863,0.010996,0.021533,-0.000611,30.53,63.0841957935474
6872,-8.080563,-3.723232,4.526024,0.010843,0.022144,0.003665,30.55,63.0371419307782
6882,-8.09133,-3.725625,4.517649,0.011148,0.021838,0.00901,30.55,63.1080031600792
6892,-8.101499,-3.72383,4.523033,0.011301,0.020617,0.012523,30.56,63.1024870997767
6902,-8.116454,-3.729812,4.51406,0.010537,0.0197,0.016646,30.56,63.1899618665691
6912,-8.120044,-3.729812,4.513462,0.009774,0.017104,0.020159,30.52,63.2014375877511
6922,-8.137392,-3.729812,4.522435,0.009163,0.014813,0.023671,30.52,63.1962932658941
6932,-8.146963,-3.732205,4.518248,0.007941,0.011759,0.024587,30.52,63.2425958673235
6942,-8.158927,-3.728616,4.52423,0.005192,0.008552,0.026267,30.52,63.2362329077617
6952,-8.145766,-3.724428,4.522435,0.004581,0.004123,0.026725,30.53,63.2101285849076
6962,-8.169695,-3.732205,4.521238,0.003818,0.000153,0.025656,30.53,63.2804117591608
6972,-8.180463,-3.732205,4.529613,0.001527,-0.003818,0.024129,30.53,63.2629044333149
6982,-8.182258,-3.731607,4.530809,-0.000153,-0.007941,0.02138,30.53,63.2603722300211
6992,-8.179864,-3.729214,4.534997,-0.001985,-0.012217,0.017104,30.54,63.2309706728961
7002,-8.19123,-3.726821,4.536194,-0.00336,-0.016035,0.006261,30.54,63.2488415571404
7012,-8.180463,-3.72383,4.545764,-0.006261,-0.022907,0.001222,30.54,63.1719649829044
7022,-8.184649,-3.726223,4.539185,-0.007941,-0.025045,-0.005956,30.52,63.2176814651135
7032,-8.173284,-3.720241,4.536791,-0.010079,-0.027184,-0.013897,30.52,63.1969496693578
7042,-8.173882,-3.73041,4.551149,-0.011606,-0.028405,-0.021075,30.53,63.1362605672115
7052,-8.175676,-3.723232,4.556532,-0.013286,-0.029016,-0.027947,30.53,63.105488637031
7062,-8.162517,-3.738187,4.552345,-0.014355,-0.027947,-0.035277,30.55,63.1119196266249
7072,-8.146365,-3.732205,4.551747,-0.014813,-0.027489,-0.042302,30.55,63.0706772218527
7082,-8.132606,-3.733402,4.560122,-0.016188,-0.025962,-0.048564,30.54,62.9970575021162
7092,-8.119445,-3.731009,4.562515,-0.016493,-0.024282,-0.053145,30.54,62.9512816168003
7102,-8.109276,-3.725625,4.548756,-0.018021,-0.020769,-0.058185,30.53,62.9914928897499
7112,-8.09791,-3.731009,4.55414,-0.018479,-0.017257,-0.060781,30.53,62.943055221469
7122,-8.086544,-3.734598,4.549354,-0.018479,-0.012981,-0.062614,30.52,62.9444948155122
7132,-8.075776,-3.732205,4.557729,-0.018937,-0.00901,-0.063683,30.52,62.8736416347324
7142,-8.060224,-3.724428,4.545764,-0.018937,-0.004429,-0.062461,30.54,62.8892906496277
7152,-8.05125,-3.731009,4.543372,-0.018631,0.000611,-0.060323,30.54,62.8874354604816
7162,-8.0345,-3.734,4.542176,-0.01909,0.006109,-0.056963,30.53,62.8570161508789
7172,-8.039286,-3.732205,4.540979,-0.017868,0.011301,-0.05284,30.53,62.8725523261434
7182,-8.02792,-3.720839,4.530809,-0.016493,0.020617,-0.040775,30.49,62.8850539432997
7192,-8.029117,-3.742374,4.536194,-0.014966,0.02474,-0.032681,30.53,62.8841246092
7202,-8.0345,-3.734598,4.528417,-0.014813,0.028711,-0.024893,30.53,62.9281806362934
7212,-8.042875,-3.726223,4.527819,-0.012675,0.033139,-0.016646,30.56,62.9419119547876
7222,-8.042276,-3.719643,4.53739,-0.011606,0.036194,-0.007483,30.56,62.8841955807047
7232,-8.051848,-3.727419,4.519444,-0.010079,0.038943,0.000916,30.5,63.0074551989999
7242,-8.052446,-3.731009,4.527221,-0.008247,0.041844,0.009316,30.5,62.9729565512299
7252,-8.07817,-3.728018,4.521238,-0.006109,0.042913,0.016493,30.54,63.0611926395073
7262,-8.076375,-3.731009,4.515256,-0.004581,0.043219,0.024129,30.54,63.0908412214683
7272,-8.082954,-3.731607,4.518248,-0.002138,0.043371,0.030543,30.52,63.0916940219921
7282,-8.109874,-3.734,4.509274,0.000458,0.042302,0.035125,30.52,63.203507267471
7292,-8.111669,-3.732804,4.510471,0.003054,0.040928,0.039859,30.51,63.2003067169161
7302,-8.130214,-3.725027,4.515854,0.004276,0.038179,0.042913,30.51,63.207916920096
7312,-8.139785,-3.737589,4.511069,0.006567,0.035125,0.042913,30.54,63.268210099642
7322,-8.154141,-3.735196,4.508078,0.008552,0.03207,0.043524,30.54,63.3143992223805
7332,-8.162517,-3.729214,4.510471,0.009621,0.028405,0.040928,30.54,63.3153402697841
7342,-8.166105,-3.739383,4.515854,0.011148,0.024587,0.038485,30.54,63.3071053888641
7352,-8.177471,-3.72383,4.503891,0.012217,0.016188,0.028711,30.52,63.3779645093939
7362,-8.195418,-3.738786,4.508078,0.01405,0.011454,0.021991,30.55,63.4141076897227
7372,-8.197212,-3.719045,4.517051,0.015119,0.006567,0.014813,30.55,63.3518009497226
7382,-8.203195,-3.729214,4.517649,0.015119,0.002902,0.006872,30.55,63.373370527693
7392,-8.195418,-3.720839,4.520042,0.015119,-0.000764,0.000305,30.55,63.3343168592509
7402,-8.176873,-3.728018,4.523033,0.01405,-0.005651,-0.008094,30.52,63.2835505508165
7412,-8.170892,-3.72383,4.52423,0.011912,-0.009316,-0.016035,30.52,63.2590655260619
7422,-8.164909,-3.720839,4.521238,0.011301,-0.012523,-0.023366,30.55,63.2571506373055
7432,-8.164311,-3.728616,4.523632,0.009316,-0.015119,-0.029169,30.55,63.2518477385533
7442,-8.154739,-3.726223,4.52064,0.007636,-0.016952,-0.035125,30.55,63.2421800586207
7452,-8.129017,-3.732205,4.526024,0.006872,-0.018631,-0.038485,30.55,63.1609370445504
7462,-8.117651,-3.722634,4.526024,0.00504,-0.019853,-0.041692,30.56,63.1239329369604
7472,-8.118848,-3.735196,4.526622,0.003512,-0.020464,-0.043524,30.56,63.1372513065322
7482,-8.102695,-3.720839,4.52064,0.001985,-0.020617,-0.044593,30.57,63.1142989595871
7492,-8.096116,-3.725625,4.515256,0.000305,-0.020922,-0.042608,30.57,63.1315199354724
7502,-8.081161,-3.732205,4.524827,-0.001527,-0.019853,-0.040164,30.55,63.0544550362675
7512,-8.087142,-3.735795,4.523632,-0.00336,-0.018784,-0.036041,30.55,63.0785860015552
7522,-8.071589,-3.732205,4.517051,-0.004429,-0.017104,-0.026267,30.5,63.0716562505394
7532,-8.070992,-3.739383,4.523033,-0.005803,-0.015424,-0.019548,30.53,63.0474650892304
7542,-8.068598,-3.735795,4.517649,-0.007025,-0.013134,-0.013744,30.53,63.0654530651227
7552,-8.072187,-3.737589,4.526024,-0.007636,-0.011912,-0.007025,30.54,63.033019401766
7562,-8.081758,-3.731009,4.524827,-0.007025,-0.01069,0.000916,30.54,63.0545606683863
7572,-8.084151,-3.725625,4.525426,-0.007483,-0.009621,0.005498,30.59,63.0512833930369
7582,-8.083553,-3.727419,4.532006,-0.007636,-0.008552,0.012065,30.59,63.0181795966968
7592,-8.092526,-3.739383,4.545166,-0.007941,-0.007025,0.01741,30.52,62.9852201282415
7602,-8.100902,-3.734598,4.532604,-0.007178,-0.005956,0.021991,30.52,63.0638696694301
7612,-8.116454,-3.731607,4.543372,-0.006567,-0.005803,0.024587,30.53,63.0423339432507
7622,-8.120642,-3.739982,4.538587,-0.005956,-0.006109,0.026573,30.53,63.0856314168501
7632,-8.134401,-3.734598,4.543372,-0.006261,-0.005345,0.026114,30.53,63.0877643276264
7642,-8.133204,-3.737589,4.54397,-0.006872,-0.005498,0.024282,30.53,63.0851359344226
7652,-8.145168,-3.721437,4.539783,-0.006261,-0.005498,0.021991,30.54,63.1171574254545
7662,-8.149954,-3.722036,4.543372,-0.005498,-0.005345,0.018937,30.54,63.1107685135386
7672,-8.152347,-3.722634,4.546363,-0.006109,-0.006567,0.013897,30.52,63.1018126697888
7682,-8.154141,-3.715455,4.551747,-0.006567,-0.006872,0.006872,30.52,63.0709659891439
7692,-8.159525,-3.710072,4.566702,-0.006872,-0.006567,-0.000458,30.48,63.0019121418981
7702,-8.155936,-3.723232,4.572684,-0.007789,-0.004734,-0.016341,30.56,62.9772282444731
7712,-8.154141,-3.720839,4.560719,-0.008858,-0.003054,-0.023671,30.56,63.0311557245609
7722,-8.151151,-3.710072,4.563711,-0.009163,-0.001222,-0.03146,30.54,62.9973794157537
7732,-8.130214,-3.711866,4.564309,-0.009316,0.000458,-0.038485,30.54,62.946882453818
7742,-8.130812,-3.720241,4.569095,-0.009774,0.003054,-0.04444,30.54,62.9330078110208
7752,-8.114061,-3.717848,4.561916,-0.010232,0.006261,-0.050091,30.54,62.9273436344267
7762,-8.109874,-3.710072,4.549354,-0.010843,0.009316,-0.054672,30.53,62.9730113267307
7772,-8.103294,-3.711866,4.557729,-0.010385,0.013592,-0.0562,30.53,62.9166938877788
7782,-8.084151,-3.719045,4.545166,-0.01069,0.017104,-0.058643,30.56,62.9432322977099
7792,-8.072785,-3.722036,4.542774,-0.010537,0.021075,-0.059101,30.56,62.93177284933
7802,-8.057232,-3.721437,4.543372,-0.009774,0.026114,-0.057727,30.56,62.8911281872743
7812,-8.053642,-3.716652,4.539783,-0.009316,0.030085,-0.053451,30.56,62.8957024912688
7822,-8.045268,-3.707679,4.532006,-0.008247,0.034208,-0.048869,30.56,62.9057574691462
7832,-8.049455,-3.72383,4.530211,-0.007178,0.037721,-0.043524,30.56,62.9426525288863
7842,-8.041081,-3.731607,4.527221,-0.005651,0.041081,-0.035583,30.56,62.9466460433799
7852,-8.039286,-3.729214,4.521238,-0.004429,0.04444,-0.027184,30.56,62.9704293076893
7862,-8.042276,-3.725027,4.504489,-0.002443,0.046426,-0.018937,30.54,63.0589033038263
7872,-8.043473,-3.725625,4.503293,0.001222,0.049022,-0.000764,30.54,63.0685393920431
7882,-8.072187,-3.729214,4.494917,0.00336,0.049022,0.008705,30.52,63.1832841124663
7892,-8.067401,-3.71725,4.493721,0.004734,0.048869,0.017104,30.57,63.1651286502711
7902,-8.09133,-3.726821,4.490132,0.006872,0.046426,0.025198,30.57,63.2502530182229
7912,-8.096116,-3.731607,4.493123,0.007941,0.044288,0.033292,30.56,63.251326331326
7922,-8.124231,-3.725625,4.486543,0.009163,0.040775,0.039706,30.56,63.3444165542639
7933,-8.134999,-3.735196,4.484748,0.010385,0.036499,0.044899,30.53,63.3889707461507
7942,-8.151749,-3.736392,4.49073,0.011759,0.031307,0.0478,30.53,63.3986518930904
7952,-8.156534,-3.720241,4.491926,0.011759,0.025962,0.050396,30.55,63.3864920716296
7962,-8.155936,-3.728616,4.493123,0.012523,0.01909,0.049633,30.55,63.3878889033096
7972,-8.176873,-3.731607,4.492525,0.012523,0.011606,0.047647,30.52,63.4427549356351
7982,-8.194819,-3.732804,4.491926,0.012217,0.003971,0.04444,30.52,63.4886361447636
7992,-8.200802,-3.738187,4.49731,0.01237,-0.002596,0.040317,30.53,63.4807221037657
8002,-8.210373,-3.734,4.505685,0.011454,-0.009468,0.032834,30.53,63.4558359910738
8012,-8.210373,-3.74058,4.51406,0.011301,-0.016952,0.025962,30.56,63.4202043476801
8022,-8.212766,-3.738786,4.50748,0.010996,-0.02306,0.017562,30.56,63.4572752879789
8032,-8.210373,-3.737589,4.519444,0.009163,-0.028405,0.00901,30.57,63.3897125428126
8042,-8.207382,-3.734598,4.528417,0.007789,-0.037721,-0.010232,30.57,63.334083132455
8052,-8.190632,-3.731009,4.534997,0.003971,-0.041844,-0.020464,30.49,63.2579658278922
8062,-8.17448,-3.734598,4.540381,0.00168,-0.043524,-0.029322,30.55,63.1967932099697
8072,-8.170892,-3.746562,4.549354,0.000153,-0.044593,-0.037568,30.55,63.1556471276118
8082,-8.149356,-3.738187,4.549354,-0.001985,-0.044135,-0.045968,30.54,63.0962869890394
8092,-8.129017,-3.736392,4.554738,-0.004276,-0.042455,-0.051618,30.54,63.0192180913479
8102,-8.125427,-3.729812,4.554738,-0.006872,-0.04047,-0.058032,30.53,63.0036511751481
8112,-8.107481,-3.738786,4.561916,-0.008552,-0.037415,-0.060934,30.53,62.9345386958198
8122,-8.099705,-3.731009,4.555336,-0.01069,-0.03375,-0.062614,30.54,62.9412041903092
8132,-8.079366,-3.732804,4.555934,-0.012675,-0.030085,-0.063225,30.54,62.8919680544296
8142,-8.070992,-3.733402,4.558327,-0.013592,-0.02474,-0.062308,30.49,62.860551254744
8152,-8.060224,-3.737589,4.558925,-0.014813,-0.0197,-0.060323,30.49,62.8365302516691
8162,-8.053044,-3.73041,4.546961,-0.016493,-0.01405,-0.057421,30.53,62.8726833814642
8172,-8.048858,-3.738187,4.536791,-0.016799,-0.008705,-0.051924,30.53,62.9233388640128
8182,-8.031509,-3.739982,4.54397,-0.016799,-0.003665,-0.045968,30.53,62.8473342756017
8192,-8.036295,-3.734,4.540381,-0.016952,0.001374,-0.038637,30.53,62.8704811309017
8202,-8.043473,-3.728018,4.533203,-0.016341,0.005192,-0.031765,30.56,62.9177179033925
8212,-8.048858,-3.734,4.532604,-0.016035,0.009468,-0.014508,30.56,62.9401631718064
8222,-8.050652,-3.736392,4.516453,-0.012828,0.016188,-0.005803,30.54,63.0298094765656
8232,-8.056634,-3.727419,4.523632,-0.011912,0.017868,0.001833,30.53,62.9973315648208
8242,-8.075178,-3.727419,4.521238,-0.010232,0.018631,0.00672,30.53,63.05347187256
8252,-8.08475,-3.728616,4.519444,-0.008705,0.019548,0.015272,30.55,63.0865545599791
8262,-8.083553,-3.728616,4.524827,-0.005956,0.019395,0.020311,30.55,63.056191285354
8272,-8.097312,-3.732804,4.512863,-0.004581,0.018173,0.024587,30.56,63.1543557618581
8282,-8.114061,-3.726223,4.523033,-0.002596,0.017104,0.027794,30.56,63.1346354705479
8292,-8.121839,-3.712464,4.521238,-0.000764,0.015424,0.030085,30.54,63.1472681044684
8302,-8.124231,-3.726223,4.527221,0.000764,0.014203,0.030543,30.54,63.1371568227186
8312,-8.135597,-3.720241,4.530809,0.002443,0.012523,0.029169,30.54,63.1391173318827
8322,-8.147561,-3.713063,4.532604,0.004123,0.010537,0.028405,30.54,63.1503606404332
8332,-8.141579,-3.716054,4.530809,0.005956,0.009163,0.025198,30.53,63.1486691850123
8342,-8.140981,-3.710072,4.536791,0.006872,0.007636,0.021686,30.53,63.1103772948893
8352,-8.152347,-3.714857,4.540979,0.008094,0.006872,0.016493,30.54,63.1208732787846
8362,-8.139186,-3.714857,4.54756,0.008858,0.005956,0.010996,30.54,63.0564554481417
8372,-8.147561,-3.713661,4.554738,0.009316,0.006872,0.006567,30.56,63.0383693445055
8382,-8.13799,-3.713661,4.549952,0.009468,0.007941,0,30.56,63.0401825786854
8392,-8.130214,-3.718446,4.552943,0.01069,0.011912,-0.010079,30.54,63.0117933497339
8402,-8.130214,-3.713661,4.560122,0.009621,0.014355,-0.016799,30.57,62.9701108529154
8412,-8.123035,-3.711866,4.552345,0.009163,0.017715,-0.021228,30.57,62.9908076298696
8422,-8.11466,-3.719045,4.553542,0.008858,0.020769,-0.024893,30.55,62.972692624683
8432,-8.100902,-3.722036,4.552345,0.008247,0.024435,-0.027489,30.55,62.9495169358462
8442,-8.094321,-3.716054,4.548756,0.00733,0.028253,-0.029169,30.56,62.9457427321067
8452,-8.090732,-3.722036,4.548756,0.00672,0.031765,-0.030391,30.56,62.9437540076521
8462,-8.093124,-3.723232,4.536194,0.006109,0.034819,-0.029627,30.55,63.0148401964524
8472,-8.081758,-3.724428,4.545166,0.006414,0.038026,-0.029474,30.55,62.9434350103965
8482,-8.087741,-3.714857,4.521238,0.00504,0.04047,-0.027642,30.52,63.0694867666075
8492,-8.085946,-3.727419,4.523033,0.003971,0.041539,-0.02474,30.52,63.0697128124529
8502,-8.085946,-3.734598,4.521238,0.002749,0.043371,-0.022449,30.52,63.0867066264816
8512,-8.096116,-3.721437,4.523033,0.002596,0.042913,-0.017562,30.52,63.0872076102268
8522,-8.096714,-3.728018,4.504489,0.00168,0.042455,-0.013439,30.57,63.1906235357251
8532,-8.103294,-3.736392,4.503891,0.001527,0.041386,-0.008247,30.57,63.2181932908289
8542,-8.11466,-3.729214,4.499703,0.000611,0.038637,-0.003207,30.56,63.2585204984241
8552,-8.111669,-3.735196,4.487141,0.000305,0.035583,0.001222,30.56,63.3222738467737
8562,-8.139186,-3.72383,4.483552,0.000764,0.024893,0.007483,30.56,63.3927079765333
8572,-8.14457,-3.735196,4.487141,-0.000611,0.018631,0.010843,30.57,63.3990164340112
8582,-8.153543,-3.743571,4.486543,-0.001069,0.012523,0.012981,30.57,63.4318620406099
8592,-8.156534,-3.742374,4.490132,-0.002138,0.004887,0.013286,30.61,63.4192005378425
8602,-8.175079,-3.734,4.481159,-0.002443,-0.00336,0.014203,30.61,63.4991309344017
8612,-8.1679,-3.737589,4.490132,-0.002902,-0.010232,0.012828,30.55,63.4404916323294
8622,-8.177471,-3.726821,4.495516,-0.002902,-0.017868,0.010996,30.55,63.4238241282978
8632,-8.178668,-3.729812,4.499105,-0.003512,-0.02474,0.008705,30.55,63.4114699909257
8642,-8.189436,-3.735795,4.502694,-0.004734,-0.031612,0.005345,30.55,63.4244881563842
8652,-8.19123,-3.732205,4.508676,-0.005345,-0.038485,0.001069,30.55,63.3944048920194
8662,-8.191828,-3.736991,4.52064,-0.005803,-0.043524,-0.003665,30.55,63.3400138214147
8672,-8.179864,-3.735795,4.521238,-0.007178,-0.048411,-0.010079,30.56,63.3079038912251
8682,-8.166105,-3.73041,4.531408,-0.008247,-0.051465,-0.014813,30.56,63.2183814628091
8692,-8.159525,-3.725625,4.533203,-0.008094,-0.053298,-0.020464,30.59,63.1887646863402
8702,-8.152347,-3.736991,4.544569,-0.00901,-0.055131,-0.026114,30.59,63.1263303480445
8712,-8.149954,-3.736991,4.54756,-0.009316,-0.054825,-0.032223,30.58,63.105520843385
8722,-8.124829,-3.720839,4.562515,-0.009927,-0.052993,-0.036652,30.58,62.9529778197805
8732,-8.112864,-3.732205,4.563711,-0.011148,-0.050549,-0.046426,30.53,62.9309595930345
8742,-8.090134,-3.728616,4.567898,-0.011148,-0.041844,-0.049786,30.53,62.8519383305601
8752,-8.082954,-3.721437,4.564907,-0.011301,-0.036805,-0.050855,30.53,62.8422868448653
8762,-8.075776,-3.727419,4.575077,-0.011606,-0.029932,-0.051771,30.54,62.7799559605646
8772,-8.059625,-3.725625,4.571488,-0.010843,-0.022449,-0.05116,30.54,62.7578147404392
8782,-8.048858,-3.720839,4.568497,-0.010537,-0.01573,-0.051618,30.59,62.7421120235626
8792,-8.041081,-3.727419,4.570292,-0.009163,-0.007178,-0.048564,30.59,62.7216458938174
8802,-8.028519,-3.727419,4.566104,-0.008858,0.000764,-0.044135,30.55,62.7130143382627
8812,-8.033303,-3.727419,4.564907,-0.007483,0.008399,-0.039248,30.55,62.7305723252183
8822,-8.027322,-3.725027,4.548158,-0.005803,0.016646,-0.034056,30.58,62.7993310587194
8832,-8.024929,-3.722036,4.555336,-0.004734,0.023671,-0.027489,30.58,62.7535417311622
8842,-8.023732,-3.729812,4.542176,-0.003665,0.02978,-0.021686,30.55,62.8267142806151
8852,-8.030313,-3.729214,4.536791,-0.002596,0.036041,-0.014355,30.55,62.8693388893223
8862,-8.031509,-3.728616,4.534399,-0.001069,0.041539,-0.00733,30.55,62.8837870404332
8872,-8.041678,-3.733402,4.530211,0.001374,0.045509,0.000153,30.55,62.9347175586839
8882,-8.04826,-3.736392,4.526622,0.003054,0.049022,0.007941,30.54,62.9720199073304
8892,-8.057232,-3.735795,4.526024,0.004887,0.050244,0.014355,30.54,62.9956841615946
8902,-8.094919,-3.738786,4.516453,0.005956,0.05116,0.020311,30.55,63.1368579102879
8912,-8.109874,-3.718446,4.515256,0.007789,0.050091,0.030085,30.57,63.1561359668347
8922,-8.108678,-3.731009,4.511667,0.009468,0.047953,0.033598,30.57,63.1852345792604
8932,-8.125427,-3.708875,4.511667,0.011301,0.045968,0.036499,30.51,63.2007443568692
8942,-8.159525,-3.722634,4.505087,0.011454,0.041997,0.037568,30.51,63.3288188243194
8952,-8.152347,-3.728018,4.511069,0.011454,0.037263,0.036346,30.55,63.2872993009192
8962,-8.172686,-3.721437,4.509872,0.011454,0.032376,0.034819,30.55,63.3338182243841
8972,-8.173882,-3.728616,4.510471,0.01237,0.026878,0.03146,30.54,63.3411665247204
8982,-8.185846,-3.729812,4.509274,0.012828,0.021533,0.028253,30.54,63.3763366037138
8992,-8.185248,-3.731607,4.514658,0.012065,0.016341,0.023213,30.52,63.3494485570227
9002,-8.192427,-3.720241,4.514658,0.011606,0.009927,0.017257,30.52,63.3541133747513
9012,-8.197212,-3.720241,4.512266,0.011301,0.00504,0.010843,30.56,63.377396863557
9022,-8.188239,-3.723232,4.527819,0.010385,0.000764,0.003818,30.56,63.2806138283674
9032,-8.172686,-3.728018,4.526622,0.01069,-0.003207,-0.003818,30.52,63.255534425208
9042,-8.177471,-3.732205,4.531408,0.00901,-0.006567,-0.009927,30.52,63.2468099149676
9052,-8.173284,-3.717848,4.529613,0.008399,-0.008858,-0.016341,30.52,63.2309039882823
9062,-8.162517,-3.729812,4.539185,0.007178,-0.010232,-0.023213,30.52,63.1698119988433
9072,-8.140981,-3.723232,4.536194,0.006414,-0.011606,-0.028253,30.53,63.1275294536967
9082,-8.124829,-3.737589,4.539783,0.004887,-0.010843,-0.037415,30.53,63.0867870370903
9092,-8.112267,-3.734598,4.534399,0.00336,-0.009927,-0.039859,30.57,63.0814643153424
9102,-8.103294,-3.731009,4.545764,0.001985,-0.00733,-0.041844,30.58,62.9984703289504
9112,-8.095517,-3.731607,4.548756,0.001222,-0.004887,-0.042302,30.58,62.965497978128
9122,-8.082954,-3.736392,4.542176,0.000305,-0.002138,-0.040928,30.54,62.9745999881036
9132,-8.081758,-3.729214,4.542774,-0.001222,0.001222,-0.039554,30.54,62.9608759019814
9142,-8.069795,-3.731607,4.542774,-0.001374,0.004123,-0.036957,30.56,62.9351615004341
9152,-8.066205,-3.73041,4.531408,-0.002138,0.008094,-0.033139,30.56,62.9834657690467
9162,-8.062017,-3.741179,4.529613,-0.002596,0.011912,-0.028711,30.56,62.9945465280326
9172,-8.081161,-3.738187,4.534997,-0.003054,0.014813,-0.023366,30.56,63.0089922579303
9182,-8.063214,-3.742973,4.530211,-0.003665,0.01741,-0.017715,30.51,62.9962874686803
9192,-8.073982,-3.733402,4.521238,-0.004734,0.018631,-0.01237,30.51,63.0571759409258
9202,-8.076375,-3.742374,4.52423,-0.005803,0.020311,-0.007178,30.55,63.0573158691207
9212,-8.086544,-3.726821,4.510471,-0.006109,0.02138,-0.001833,30.55,63.1347642581148
9222,-8.090134,-3.726821,4.512863,-0.00733,0.020464,0.002902,30.54,63.1309747327458
9232,-8.106883,-3.728018,4.518248,-0.008094,0.019853,0.006414,30.54,63.1441442616916
9242,-8.115258,-3.732804,4.508676,-0.008399,0.017868,0.009927,30.52,63.217898954318
9252,-8.133802,-3.734,4.511667,-0.00901,0.015424,0.01405,30.52,63.2473249127416
9262,-8.151151,-3.71725,4.509872,-0.009163,0.00733,0.013134,30.54,63.2791275153768
9272,-8.149954,-3.719045,4.512863,-0.010079,0.003207,0.011606,30.57,63.262984002641
9282,-8.166105,-3.729812,4.509274,-0.009621,-0.002138,0.009163,30.57,63.3304347765827
9292,-8.170892,-3.722634,4.506881,-0.009316,-0.007025,0.006567,30.55,63.3461528929607
9302,-8.160722,-3.724428,4.501498,-0.009163,-0.012523,0.002749,30.55,63.351826241274
9312,-8.181061,-3.722036,4.516453,-0.009468,-0.017257,-0.002902,30.57,63.320439911898
9322,-8.184649,-3.715455,4.525426,-0.00901,-0.021838,-0.008094,30.57,63.2761815693298
9332,-8.170293,-3.716652,4.521836,-0.00733,-0.026267,-0.012828,30.54,63.2622253434204
9342,-8.162517,-3.720839,4.521836,-0.00672,-0.030238,-0.018173,30.54,63.2485186376631
9352,-8.163713,-3.722036,4.525426,-0.006261,-0.032529,-0.023824,30.55,63.2343075943876
9362,-8.137392,-3.705286,4.532006,-0.004734,-0.034208,-0.029474,30.55,63.1211980513433
9372,-8.136793,-3.714857,4.534997,-0.004276,-0.035583,-0.035277,30.57,63.1148041559657
9382,-8.126624,-3.714259,4.542176,-0.002443,-0.034667,-0.039095,30.57,63.0536515683547
9392,-8.123035,-3.723232,4.544569,-0.000916,-0.033445,-0.041692,30.52,63.0426794312901
9402,-8.09791,-3.716652,4.555336,0.000153,-0.030849,-0.044899,30.52,62.9213349532672
9412,-8.085348,-3.713063,4.557729,0.001374,-0.027642,-0.04612,30.55,62.8754300319554
9422,-8.060224,-3.714259,4.552943,0.003054,-0.02306,-0.047189,30.55,62.8414308893957
9432,-8.05783,-3.714259,4.568497,0.005651,-0.010843,-0.043982,30.54,62.756279991568
9442,-8.053044,-3.711268,4.563711,0.006872,-0.003665,-0.040164,30.58,62.7660022590843
9452,-8.039286,-3.719045,4.565506,0.007941,0.004276,-0.03543,30.58,62.7325385100954
9462,-8.040483,-3.719045,4.564309,0.007636,0.011759,-0.030849,30.57,62.7415173439497
9472,-8.033902,-3.720241,4.554738,0.00733,0.018784,-0.024893,30.57,62.7760616050964
9482,-8.023134,-3.732804,4.560122,0.00901,0.026725,-0.018021,30.55,62.7367161040312
9492,-8.026126,-3.725027,4.55414,0.009621,0.033903,-0.009774,30.55,62.765843756899
9502,-8.03091,-3.72383,4.554738,0.009468,0.039706,-0.002443,30.54,62.7728869446195
9512,-8.041678,-3.729812,4.540381,0.009927,0.044135,0.004734,30.54,62.8786634561123
9522,-8.062017,-3.74058,4.535595,0.009163,0.049327,0.010996,30.56,62.9632845086189
9532,-8.057232,-3.73041,4.540381,0.009468,0.052687,0.018326,30.56,62.9162850606369
9542,-8.082954,-3.728018,4.526622,0.00901,0.054978,0.023518,30.55,63.0449450858067
9552,-8.092526,-3.736392,4.52064,0.009316,0.055894,0.028711,30.55,63.1072168771576
9562,-8.101499,-3.735196,4.52423,0.009774,0.0562,0.033292,30.54,63.1086887084577
9572,-8.120044,-3.739982,4.509274,0.00901,0.054672,0.035888,30.54,63.2337925840865
9582,-8.130214,-3.731009,4.499105,0.008705,0.05116,0.037874,30.55,63.299898313032
9592,-8.15773,-3.742374,4.496114,0.008399,0.047037,0.038026,30.55,63.3914423162314
9602,-8.184649,-3.741179,4.496712,0.007636,0.035125,0.035277,30.58,63.4495613198003
9612,-8.192427,-3.742374,4.49731,0.007636,0.029016,0.03146,30.59,63.4657772931387
9622,-8.189436,-3.742374,4.496114,0.007178,0.021075,0.026725,30.59,63.4649500315635
9632,-8.200802,-3.741776,4.498507,0.007025,0.013439,0.021228,30.58,63.4784123272831
9642,-8.20798,-3.741179,4.505087,0.006872,0.005956,0.014355,30.58,63.4608995019336
9652,-8.214561,-3.739383,4.498507,0.006109,-0.000916,0.00672,30.54,63.5076581112208
9662,-8.212766,-3.748357,4.516453,0.005345,-0.007941,-0.000916,30.54,63.4217816338916
9672,-8.210373,-3.739383,4.523033,0.003971,-0.014508,-0.009316,30.52,63.3733856510765
9682,-8.199007,-3.743571,4.526024,0.003818,-0.020006,-0.018479,30.52,63.3362907872351
9692,-8.188837,-3.734598,4.526622,0.002443,-0.024435,-0.025809,30.56,63.3001312882875
9702,-8.182856,-3.738187,4.523632,0.001222,-0.027947,-0.033445,30.56,63.3052298414927
9712,-8.166105,-3.728616,4.544569,-0.000153,-0.030543,-0.040317,30.55,63.1495649225746
9722,-8.16132,-3.738786,4.551149,-0.001985,-0.03146,-0.046884,30.55,63.1158324900627
9732,-8.148159,-3.732205,4.557131,-0.003054,-0.031765,-0.052229,30.55,63.047532140261
9742,-8.128419,-3.726821,4.551747,-0.00504,-0.030849,-0.056505,30.55,63.0226857506926
9752,-8.11466,-3.720241,4.560719,-0.00672,-0.028863,-0.060018,30.58,62.937445740515
9762,-8.101499,-3.732205,4.558925,-0.008247,-0.025962,-0.061697,30.58,62.9284649302133
9772,-8.083553,-3.719643,4.560122,-0.009621,-0.01741,-0.060781,30.56,62.8661447723894
9782,-8.071589,-3.731009,4.561318,-0.011606,-0.011454,-0.057879,30.57,62.8440819963046
9792,-8.063812,-3.722634,4.562515,-0.012217,-0.006261,-0.05452,30.57,62.81028182685
9802,-8.053044,-3.727419,4.545764,-0.013439,-0.000916,-0.050396,30.54,62.8755122832822
9812,-8.026724,-3.72383,4.54397,-0.013897,0.004887,-0.044288,30.54,62.8180318210144
9822,-8.042276,-3.724428,4.534399,-0.013286,0.010232,-0.037415,30.57,62.9047893738252
9832,-8.024331,-3.718446,4.532006,-0.012675,0.014203,-0.029932,30.57,62.8677099952081
9842,-8.033303,-3.716652,4.527221,-0.012523,0.018173,-0.022297,30.55,62.9116680679228
9852,-8.050652,-3.72383,4.527221,-0.011454,0.022449,-0.014661,30.55,62.9608154301523
9862,-8.048858,-3.716652,4.515256,-0.010232,0.025504,-0.007178,30.57,63.0100418244822
9872,-8.066205,-3.734598,4.512863,-0.008399,0.027489,0.001833,30.57,63.0830139114462
9882,-8.068598,-3.723232,4.509274,-0.005192,0.028558,0.008399,30.54,63.0946554397096
9892,-8.073383,-3.726821,4.508676,-0.003971,0.028253,0.014203,30.54,63.1129298690828
9902,-8.075776,-3.714857,4.502096,-0.001222,0.027336,0.020311,30.55,63.1393067290445
9912,-8.09133,-3.73041,4.500301,0,0.025809,0.02474,30.55,63.2020105594921
9922,-8.109874,-3.727419,4.505087,0.002902,0.024587,0.028711,30.6,63.2178195381383
9932,-8.124231,-3.718446,4.489533,0.005803,0.020922,0.030696,30.6,63.3214183045005
9942,-8.136195,-3.721437,4.501498,0.008094,0.017562,0.03146,30.58,63.2913970399445
9952,-8.149954,-3.722036,4.518248,0.011606,0.009468,0.030085,30.58,63.2387144683444
9962,-8.153543,-3.720839,4.509274,0.013897,0.005498,0.0281,30.58,63.2915911387966
9972,-8.166105,-3.728018,4.516453,0.01573,0.002291,0.024282,30.58,63.2919503004494
9982,-8.165507,-3.721437,4.522435,0.016646,-0.001374,0.019853,30.58,63.2530880633179
9992,-8.177471,-3.722036,4.52064,0.017715,-0.003818,0.016188,30.58,63.2907698894995
10002,-8.15773,-3.722634,4.532006,0.017868,-0.005651,0.009621,30.58,63.1874620333356
10012,-8.157133,-3.706482,4.539783,0.018173,-0.008552,0.00336,30.57,63.1292475644269
10022,-8.152946,-3.720839,4.541577,0.017562,-0.010079,-0.002596,30.57,63.1256361077103
10032,-8.155338,-3.722036,4.54756,0.016952,-0.010385,-0.00901,30.55,63.1021039162899
10042,-8.146365,-3.719045,4.555336,0.016341,-0.009774,-0.014661,30.55,63.0382937536624
10052,-8.155936,-3.711268,4.564907,0.014813,-0.009621,-0.021075,30.55,63.0038557361352
10062,-8.152946,-3.719643,4.560719,0.013134,-0.007483,-0.025962,30.55,63.0270633627063
10072,-8.133802,-3.725625,4.554738,0.010996,-0.005803,-0.030543,30.55,63.0188525585839
10082,-8.116454,-3.725027,4.555934,0.008858,-0.002902,-0.034819,30.55,62.9712263596873
10092,-8.10808,-3.721437,4.558925,0.007941,0,-0.037721,30.54,62.9323182885785
10102,-8.109276,-3.732205,4.552345,0.005498,0.003054,-0.039706,30.54,62.9803478257033
10112,-8.089535,-3.731607,4.55055,0.00336,0.006109,-0.040012,30.56,62.9422037445647
10122,-8.094919,-3.729214,4.548158,0.000153,0.013286,-0.037568,30.56,62.9645278931253
10132,-8.088937,-3.727419,4.545166,-0.001069,0.016035,-0.035736,30.57,62.9636917251588
10142,-8.091928,-3.732804,4.525426,-0.001833,0.018631,-0.032987,30.56,63.0774410338078
10152,-8.069196,-3.743571,4.528417,-0.002443,0.021075,-0.0281,30.56,63.0202608529109
10162,-8.068,-3.738187,4.524827,-0.003971,0.022144,-0.024129,30.55,63.0299065081178
10172,-8.075776,-3.739982,4.514658,-0.004123,0.02306,-0.019242,30.55,63.1022782887917
10182,-8.07458,-3.736392,4.515256,-0.004581,0.023366,-0.014508,30.55,63.092477992648
10192,-8.084151,-3.736392,4.499105,-0.005192,0.022907,-0.010079,30.55,63.197756885432
10202,-8.094321,-3.735795,4.508676,-0.005192,0.022144,-0.004429,30.56,63.171991565454
10212,-8.093124,-3.745964,4.50748,-0.005345,0.020464,-0.000305,30.56,63.1863400134156
10222,-8.103294,-3.744768,4.503891,-0.004734,0.018173,0.003971,30.54,63.2272576645703
10232,-8.114061,-3.741776,4.498507,-0.003818,0.014966,0.006261,30.54,63.2767735373179
10242,-8.118848,-3.734,4.501498,-0.003665,0.01237,0.009468,30.61,63.2642965060448
10252,-8.126624,-3.73041,4.506283,-0.002443,0.009316,0.010996,30.61,63.2541742379343
10262,-8.136195,-3.732205,4.509872,-0.002596,0.005956,0.011912,30.58,63.2601572927869
10272,-8.145766,-3.733402,4.516453,-0.001833,0.002443,0.011454,30.58,63.2502320787716
10282,-8.145766,-3.732804,4.522435,-0.000916,-0.000458,0.010843,30.56,63.219098206103
10292,-8.153543,-3.743571,4.521836,-0.001069,-0.007483,0.005956,30.56,63.2518464372265
10302,-8.154739,-3.717848,4.529613,-0.002443,-0.009468,0.001985,30.59,63.1875323535093
10312,-8.176275,-3.729812,4.539783,-0.002443,-0.011148,-0.003207,30.57,63.1989204636012
10322,-8.156534,-3.728616,4.536791,-0.001985,-0.012675,-0.007178,30.57,63.1667098660183
10332,-8.158329,-3.723232,4.549952,-0.002291,-0.013744,-0.011912,30.6,63.0982432943205
10342,-8.156534,-3.721437,4.542774,-0.002596,-0.01405,-0.017562,30.6,63.1286006892131
10352,-8.15773,-3.721437,4.555336,-0.002443,-0.013439,-0.023213,30.55,63.0675648024824
10362,-8.147561,-3.718446,4.561318,-0.002902,-0.012675,-0.027794,30.55,63.0100678716142
10372,-8.136195,-3.719045,4.561916,-0.003971,-0.01069,-0.032376,30.59,62.9809007585862
10382,-8.129017,-3.725625,4.549952,-0.004276,-0.007789,-0.036041,30.59,63.0319381526677
10392,-8.118249,-3.716054,4.552345,-0.004581,-0.005498,-0.039859,30.6,62.9840298313892
10402,-8.106883,-3.718446,4.557729,-0.005345,-0.002138,-0.041844,30.6,62.9323317483536
10412,-8.10808,-3.719045,4.560122,-0.005345,0.002138,-0.043524,30.55,62.9236263404798
10422,-8.082954,-3.716652,4.543372,-0.004429,0.005651,-0.044746,30.55,62.9469498364347
10432,-8.093124,-3.727419,4.548158,-0.004581,0.008858,-0.045051,30.59,62.9583285189225
10442,-8.07458,-3.714259,4.546363,-0.004429,0.012675,-0.043524,30.59,62.9091930273255
10452,-8.066205,-3.72383,4.539185,-0.003971,0.016493,-0.041081,30.61,62.9364765696685
10462,-8.070992,-3.722036,4.527819,-0.00168,0.019242,-0.032681,30.61,63.004010322843
10472,-8.052446,-3.722036,4.518846,0.000305,0.024435,-0.027489,30.58,63.006036305018
10482,-8.06441,-3.721437,4.519444,0.001374,0.027031,-0.022297,30.59,63.0306623206399
10492,-8.059027,-3.735196,4.51406,0.002138,0.028253,-0.015882,30.59,63.0605756764511
10502,-8.077571,-3.726821,4.503293,0.004123,0.028711,-0.009163,30.58,63.1504006196761
10512,-8.05783,-3.73041,4.511667,0.005803,0.028863,-0.003512,30.58,63.0647744981591
10522,-8.073982,-3.735795,4.493123,0.007941,0.028253,0.002749,30.56,63.2038763966741
10532,-8.082357,-3.723232,4.503293,0.009316,0.027489,0.009927,30.56,63.1577792615219
10542,-8.088339,-3.734,4.499703,0.009774,0.025809,0.01405,30.56,63.2019379211389
10552,-8.106285,-3.728018,4.505087,0.011454,0.023976,0.018784,30.56,63.2100431040632
10562,-8.099107,-3.724428,4.501498,0.012675,0.02138,0.023366,30.55,63.2076813990122
10572,-8.113463,-3.725625,4.492525,0.013134,0.018326,0.027489,30.55,63.2885982987996
10582,-8.122437,-3.728616,4.506283,0.013592,0.015119,0.029627,30.57,63.242443342719
10592,-8.133802,-3.722634,4.515256,0.014355,0.011912,0.02978,30.57,63.2168094569088
10602,-8.155338,-3.734,4.51406,0.014508,0.008094,0.030543,30.54,63.2854144851007
10612,-8.143971,-3.73041,4.509274,0.014813,0.005345,0.030085,30.54,63.2794566355993
10622,-8.156534,-3.722634,4.519444,0.014661,0.00168,0.027489,30.56,63.2486387431244
10632,-8.170293,-3.727419,4.534399,0.014813,-0.002291,0.024893,30.56,63.209763400275
10642,-8.17149,-3.732804,4.529613,0.015119,-0.007025,0.015882,30.59,63.2426284298414
10652,-8.166105,-3.725027,4.545764,0.013439,-0.008552,0.01069,30.59,63.1396606076566
10662,-8.172088,-3.731009,4.548756,0.012675,-0.009774,0.00672,30.59,63.1448507861171
10672,-8.17448,-3.725027,4.540979,0.010996,-0.011301,0.000458,30.57,63.1835573054954
10682,-8.163115,-3.727419,4.548158,0.010385,-0.011454,-0.005651,30.57,63.1230538846122
10692,-8.160124,-3.734,4.548756,0.009621,-0.011606,-0.011912,30.57,63.1200564817742
10702,-8.170293,-3.728018,4.557729,0.007941,-0.011912,-0.016188,30.57,63.0919187599923
10712,-8.150552,-3.724428,4.555934,0.006261,-0.010232,-0.022297,30.5,63.0508767461366
10722,-8.134999,-3.717848,4.552943,0.004276,-0.008705,-0.027184,30.5,63.0224232234313
10732,-8.136195,-3.722634,4.553542,0.003207,-0.007178,-0.031918,30.59,63.0273454943691
10742,-8.140383,-3.722634,4.55414,0.001374,-0.004734,-0.035125,30.59,63.0341597623401
10752,-8.133204,-3.721437,4.549354,0.000458,-0.002138,-0.038332,30.54,63.04032346451
10762,-8.109874,-3.729214,4.548158,-0.001069,0,-0.040012,30.54,62.9998440986386
10772,-8.096714,-3.723232,4.544569,-0.002902,0.002749,-0.040928,30.58,62.9805713436225
10782,-8.100304,-3.726821,4.533801,-0.004734,0.004581,-0.041539,30.58,63.0479066532502
10792,-8.097312,-3.728616,4.545764,-0.005956,0.007178,-0.039706,30.54,62.9817432778643
10802,-8.090732,-3.735196,4.529613,-0.006872,0.00901,-0.039554,30.54,63.0558266130556
10812,-8.082954,-3.741179,4.526024,-0.008552,0.011301,-0.034361,30.57,63.0623518548386
10822,-8.078768,-3.728616,4.525426,-0.01069,0.011912,-0.03207,30.55,63.0418266679749
10832,-8.094919,-3.727419,4.524827,-0.011301,0.013286,-0.027794,30.55,63.0817029181984
10842,-8.086544,-3.725027,4.506881,-0.010843,0.012828,-0.023671,30.6,63.1512042269068
10852,-8.087741,-3.734598,4.529015,-0.010996,0.01237,-0.020006,30.6,63.0511771177383
10862,-8.091928,-3.728616,4.509274,-0.011148,0.011454,-0.016952,30.59,63.1555174354289
10872,-8.102098,-3.73041,4.517649,-0.011454,0.011148,-0.012981,30.59,63.138542118999
10882,-8.10449,-3.732205,4.510471,-0.011301,0.009927,-0.009774,30.59,63.1828095511343
10892,-8.10808,-3.725027,4.508676,-0.011454,0.008094,-0.006109,30.59,63.1926679369668
10903,-8.106285,-3.722634,4.508676,-0.009927,0.006414,-0.003971,30.55,63.1858685833025
10912,-8.099107,-3.727419,4.508676,-0.009621,0.003971,-0.002291,30.55,63.1741674330119
10922,-8.12124,-3.72383,4.513462,-0.008552,0.001985,-0.000611,30.56,63.1978036143954
10932,-8.126026,-3.732205,4.512266,-0.00733,0.000305,0.000305,30.56,63.2241401279767
10942,-8.138588,-3.722634,4.525426,-0.005498,-0.001833,-0.000153,30.56,63.1761438992852
10952,-8.13799,-3.720839,4.522435,-0.004581,-0.002291,-0.000458,30.56,63.1880697199439
10962,-8.126624,-3.724428,4.529613,-0.00336,-0.004429,-0.001222,30.54,63.1286438023716
10972,-8.114061,-3.725027,4.539783,-0.001833,-0.004887,-0.003512,30.54,63.0478710676709
10982,-8.12782,-3.719643,4.544569,-0.000458,-0.005956,-0.007636,30.58,63.0500770742078
10992,-8.126026,-3.714857,4.542176,0.002291,-0.004734,-0.009927,30.58,63.0528867077392
11002,-8.129017,-3.716054,4.557729,0.003665,-0.003512,-0.013592,30.58,62.9820394757852
11012,-8.126026,-3.722036,4.55055,0.005651,-0.000611,-0.01573,30.58,63.0179761281089
11022,-8.123035,-3.712464,4.557131,0.007636,0.00168,-0.017715,30.58,62.9670865974755
11032,-8.122437,-3.713661,4.548158,0.008399,0.004581,-0.019548,30.57,63.0126581429534
11042,-8.100902,-3.719643,4.55414,0.009468,0.007941,-0.021075,30.57,62.93776661368
11052,-8.106883,-3.725625,4.55414,0.009927,0.011606,-0.022449,30.57,62.9584079574933
11062,-8.096714,-3.722036,4.55414,0.010996,0.015119,-0.02306,30.57,62.9304562190401
11072,-8.102098,-3.724428,4.544569,0.011301,0.019242,-0.023366,30.52,62.9945927161872
11082,-8.083553,-3.725027,4.53739,0.011606,0.022449,-0.023213,30.52,62.9880572614956
11092,-8.099705,-3.725625,4.544569,0.011912,0.025809,-0.022144,30.59,62.9902403520263
11102,-8.080563,-3.732205,4.533801,0.011912,0.029016,-0.019395,30.59,63.0071582430019
11112,-8.086544,-3.734,4.527819,0.012217,0.031765,-0.016799,30.58,63.0538149536455
11122,-8.082357,-3.725625,4.524827,0.011912,0.034208,-0.013897,30.58,63.0501102809419
11132,-8.081758,-3.739383,4.533801,0.012217,0.035277,-0.010385,30.57,63.0178197128803
11142,-8.072785,-3.742973,4.511069,0.011759,0.036652,-0.006414,30.57,63.1168767416411
11152,-8.085348,-3.733402,4.508676,0.011301,0.036499,0.002749,30.59,63.1482889024574
11162,-8.107481,-3.732205,4.505685,0.010079,0.034972,0.005345,30.54,63.2143108582543
11172,-8.108678,-3.741776,4.500899,0.009621,0.032987,0.008094,30.54,63.2519396221922
11182,-8.12124,-3.741179,4.49731,0.008399,0.029474,0.011606,30.53,63.2990339585273
11192,-8.120642,-3.731607,4.49731,0.008094,0.025198,0.014508,30.53,63.2873407249177
11202,-8.137392,-3.756134,4.49731,0.007789,0.02138,0.016035,30.59,63.352770342035
11212,-8.140383,-3.742374,4.493123,0.006872,0.016341,0.018021,30.59,63.3663674983054
11222,-8.149356,-3.737589,4.497908,0.005956,0.011759,0.018631,30.57,63.3577028891921
11232,-8.159525,-3.735795,4.499703,0.004734,0.006109,0.017868,30.57,63.3702927739234
11242,-8.163713,-3.74058,4.502694,0.004123,0.000305,0.016341,30.54,63.3698710048861
11252,-8.163713,-3.745365,4.500899,0.003818,-0.005956,0.014355,30.54,63.384119911104
11262,-8.17448,-3.734,4.50748,0.002291,-0.012217,0.010996,30.59,63.3635073205285
11272,-8.172686,-3.737589,4.521238,0.000916,-0.017562,0.007025,30.59,63.2931094353989
11282,-8.183454,-3.734598,4.521836,0.000611,-0.021838,0.003207,30.59,63.3119409922083
11292,-8.173284,-3.734,4.513462,0.000458,-0.02642,-0.00168,30.59,63.330261233995
11302,-8.178668,-3.731009,4.52423,-0.000764,-0.029627,-0.006414,30.52,63.2848200831006
11312,-8.16132,-3.736392,4.536791,-0.00168,-0.032223,-0.011912,30.52,63.1862205304148
11322,-8.152347,-3.727419,4.546961,-0.002749,-0.033139,-0.017868,30.54,63.1039010776344
11332,-8.14457,-3.726821,4.54397,-0.003818,-0.035277,-0.027642,30.54,63.1002249934106
11342,-8.148159,-3.720241,4.563711,-0.004429,-0.033445,-0.033292,30.59,63.0012497019416
11352,-8.127223,-3.727419,4.553542,-0.005345,-0.031307,-0.038179,30.53,63.0113808553688
11362,-8.117651,-3.720839,4.561318,-0.005192,-0.029474,-0.041844,30.53,62.942113907943
11372,-8.105686,-3.731607,4.566702,-0.005803,-0.025198,-0.04444,30.59,62.8981253973835
11382,-8.101499,-3.719045,4.562515,-0.005956,-0.020464,-0.045662,30.59,62.8958581146789
11392,-8.096116,-3.718446,4.561318,-0.006414,-0.016035,-0.046731,30.56,62.8885471489307
11402,-8.083553,-3.720839,4.573282,-0.006567,-0.010996,-0.047189,30.56,62.8003824823023
11412,-8.076973,-3.721437,4.560122,-0.006567,-0.005803,-0.047342,30.53,62.8524792603839
11422,-8.073383,-3.714857,4.558925,-0.006414,-0.000458,-0.044746,30.53,62.8428509632399
11432,-8.063214,-3.716054,4.556532,-0.006567,0.00504,-0.042455,30.54,62.8321821507168
11442,-8.054241,-3.721437,4.555336,-0.005651,0.010079,-0.038637,30.54,62.8228400177516
11452,-8.061419,-3.723232,4.549354,-0.005651,0.01573,-0.033903,30.59,62.8724660826161
11462,-8.042875,-3.726821,4.541577,-0.00504,0.019853,-0.030543,30.59,62.8720888240489
11472,-8.048858,-3.728018,4.539783,-0.004276,0.024282,-0.024129,30.56,62.896822116726
11482,-8.05783,-3.718446,4.529613,-0.003665,0.027794,-0.018937,30.56,62.9596950344381
11492,-8.053044,-3.717848,4.526622,-0.001985,0.031307,-0.01237,30.6,62.9630010961219
11502,-8.068,-3.723232,4.521836,-0.000916,0.034208,-0.001527,30.6,63.0288666052604
11512,-8.066205,-3.719045,4.521836,0,0.034819,0.002443,30.56,63.02004459942
11522,-8.080563,-3.722634,4.511069,0.001527,0.034514,0.007636,30.56,63.1130525019783
11532,-8.097312,-3.731009,4.51406,0.002291,0.034361,0.012523,30.56,63.146287105279
11542,-8.102695,-3.720241,4.509872,0.003971,0.032987,0.016493,30.56,63.1687253302916
11552,-8.105088,-3.726821,4.518248,0.005803,0.031154,0.018326,30.56,63.1386286297273
11562,-8.127223,-3.729214,4.508676,0.006567,0.028405,0.020311,30.54,63.2420650345591
11572,-8.129017,-3.725625,4.508078,0.00672,0.025809,0.021533,30.54,63.2454669647251
11582,-8.145766,-3.724428,4.511069,0.007178,0.022907,0.020617,30.55,63.2680947983946
11592,-8.143373,-3.722036,4.51406,0.008094,0.019853,0.020159,30.55,63.2446807773802
11602,-8.146963,-3.722036,4.512266,0.010079,0.017104,0.018937,30.56,63.262229899529
11612,-8.15773,-3.729214,4.518846,0.009468,0.014508,0.015272,30.56,63.2614983669202
11622,-8.149954,-3.71725,4.52423,0.010385,0.011301,0.010996,30.55,63.2031105062227
11632,-8.155338,-3.719643,4.538587,0.01069,0.008399,0.00672,30.55,63.1451758928598
11642,-8.166704,-3.716652,4.541577,0.011759,0.006567,0.004429,30.52,63.1534062718646
11652,-8.162517,-3.728616,4.521238,0.011454,0.004734,0,30.52,63.2598497869575
11662,-8.162517,-3.72383,4.542176,0.011454,0.00336,-0.004429,30.57,63.1482157400111
11672,-8.152347,-3.735795,4.539783,0.010232,0.001833,-0.014661,30.57,63.149382114097
11682,-8.158927,-3.720241,4.54397,0.010385,0.001985,-0.018937,30.59,63.1268502908238
11692,-8.140981,-3.725027,4.55055,0.009316,0.002443,-0.022755,30.58,63.0563964693105
11702,-8.12782,-3.729812,4.543372,0.008399,0.003054,-0.025351,30.58,63.0671390734923
11712,-8.123632,-3.738187,4.539783,0.00733,0.004123,-0.028711,30.59,63.0846213324275
11722,-8.119445,-3.731009,4.54397,0.006261,0.005498,-0.031001,30.59,63.0456818910282
11732,-8.117052,-3.731607,4.540381,0.005803,0.00672,-0.032376,30.56,63.0589847948414
11742,-8.106285,-3.737589,4.536791,0.00504,0.008094,-0.03375,30.56,63.0584279277989
11752,-8.102695,-3.729812,4.527819,0.003971,0.009774,-0.033903,30.58,63.0873329955557
11762,-8.111071,-3.746562,4.53739,0.003054,0.010996,-0.032529,30.58,63.0763727721486
11772,-8.107481,-3.735196,4.522435,0.00168,0.012065,-0.031001,30.57,63.1319244202757
11782,-8.096714,-3.736991,4.520042,0.000458,0.012828,-0.028711,30.57,63.1207808560731
11792,-8.094919,-3.738786,4.515854,0.000305,0.012981,-0.026114,30.57,63.1399211176695
11802,-8.093124,-3.741179,4.512266,-0.000458,0.013134,-0.022907,30.57,63.1566532418022
11812,-8.090732,-3.74716,4.513462,-0.000611,0.012828,-0.01909,30.55,63.1514172630173
11822,-8.081758,-3.736991,4.508676,-0.000764,0.011912,-0.016341,30.55,63.1437420778808
11832,-8.090134,-3.736392,4.509872,-0.002749,0.011912,-0.013134,30.55,63.1566746635114
11842,-8.092526,-3.729812,4.496114,-0.003054,0.009774,-0.008399,30.55,63.225628332759
11852,-8.115258,-3.742374,4.499105,-0.003512,0.004887,-0.001833,30.56,63.2771588289846
11862,-8.114061,-3.735795,4.502694,-0.003818,0.003971,0.00168,30.56,63.2489067925408
11872,-8.119445,-3.739383,4.504489,-0.004123,0.000611,0.003512,30.56,63.256198322968
11882,-8.124829,-3.729812,4.509274,-0.003818,-0.001833,0.004581,30.58,63.2340468126527
11892,-8.130812,-3.729812,4.510471,-0.003665,-0.004887,0.005498,30.58,63.2419400132471
11902,-8.136195,-3.719643,4.512266,-0.003665,-0.007789,0.006414,30.57,63.2344744420893
11912,-8.136195,-3.734,4.520042,-0.00336,-0.01069,0.005651,30.57,63.2101911909502
11922,-8.150552,-3.723232,4.526024,-0.003512,-0.013592,0.005498,30.55,63.201762220144
11932,-8.146365,-3.724428,4.527819,-0.003207,-0.015577,0.003512,30.55,63.1840940102896
11942,-8.149954,-3.725625,4.524827,-0.00336,-0.018173,-0.000305,30.55,63.2090200773587
11952,-8.143373,-3.723232,4.530809,-0.002749,-0.020006,-0.003054,30.55,63.1605689252416
11962,-8.153543,-3.719643,4.529015,-0.002291,-0.020922,-0.006872,30.58,63.1896939511511
11972,-8.146365,-3.719045,4.548158,-0.002443,-0.021228,-0.009621,30.58,63.0747902850812
11982,-8.148758,-3.716652,4.55414,-0.002291,-0.021686,-0.014355,30.59,63.047432739253
11992,-8.139186,-3.711268,4.553542,-0.002291,-0.021533,-0.018937,30.59,63.0221633911395
12002,-8.126624,-3.72383,4.555336,-0.001374,-0.020769,-0.021838,30.58,62.9969641920007
12012,-8.12124,-3.71067,4.556532,-0.001374,-0.019242,-0.025656,30.58,62.9639580165663
12022,-8.126624,-3.702893,4.561916,-0.000458,-0.013439,-0.032681,30.58,62.9408950862368
12032,-8.101499,-3.716652,4.552943,0,-0.010537,-0.034972,30.59,62.9420323936126
12042,-8.106883,-3.718446,4.560719,0.000916,-0.007483,-0.036346,30.59,62.9171032376605
12052,-8.094321,-3.726821,4.561916,0.001374,-0.003665,-0.036499,30.57,62.8903734630798
12062,-8.087741,-3.708875,4.560122,0.001833,0.000611,-0.037415,30.57,62.8643434901265
12072,-8.08475,-3.719643,4.55414,0.001527,0.004581,-0.03711,30.57,62.8994986682184
12082,-8.084151,-3.718446,4.549952,0.002443,0.010232,-0.034972,30.57,62.9181445093229
12092,-8.070393,-3.71725,4.548158,0.003818,0.014203,-0.032987,30.56,62.8933469444136
12102,-8.066205,-3.732804,4.545764,0.004887,0.018631,-0.030085,30.56,62.9126840182916
12112,-8.063214,-3.732205,4.537988,0.006109,0.022907,-0.026114,30.61,62.944686258197
12122,-8.055437,-3.724428,4.534399,0.005803,0.027184,-0.021838,30.61,62.9360658889029
12132,-8.058429,-3.722036,4.535595,0.00733,0.030543,-0.017104,30.54,62.9344229570991
12142,-8.058429,-3.728018,4.530809,0.007636,0.033445,-0.011912,30.54,62.9654841055843
12152,-8.050054,-3.724428,4.526622,0.008858,0.036499,-0.006567,30.59,62.9631222729138
12162,-8.062017,-3.73041,4.525426,0.009468,0.03879,-0.000611,30.59,63.0041703416031
12172,-8.061419,-3.732205,4.521238,0.010079,0.040317,0.003818,30.56,63.0261715312656
12182,-8.075178,-3.726821,4.518248,0.009927,0.041692,0.009927,30.56,63.0681284662277
12192,-8.095517,-3.726223,4.512266,0.010079,0.042761,0.017257,30.55,63.1460561441015
12202,-8.099107,-3.737589,4.50748,0.01237,0.041233,0.021686,30.55,63.1912986884192
12212,-8.117651,-3.72383,4.526622,0.01237,0.039401,0.02474,30.55,63.1221704332537
12222,-8.117052,-3.737589,4.520042,0.012065,0.038179,0.026573,30.59,63.1692043809902
12232,-8.133204,-3.734,4.516453,0.012217,0.035277,0.026267,30.59,63.221499983843
12242,-8.14457,-3.725027,4.512266,0.011454,0.032376,0.026725,30.57,63.2598318431894
12252,-8.148159,-3.731607,4.506283,0.011301,0.029322,0.025045,30.57,63.305775238081
12263,-8.170293,-3.726821,4.510471,0.010843,0.025504,0.023824,30.58,63.3309077023627
12272,-8.169096,-3.722634,4.515854,0.010079,0.021075,0.020617,30.58,63.2962492026574
12282,-8.187043,-3.723232,4.525426,0.010079,0.01741,0.016799,30.59,63.2899919544098
12292,-8.178668,-3.73041,4.511667,0.009163,0.013592,0.012523,30.59,63.3481101337186
12302,-8.191828,-3.733402,4.524827,0.008552,0.009774,0.007789,30.59,63.3149362931564
12312,-8.187043,-3.725027,4.523632,0.006567,0.005192,0.001985,30.59,63.3010129736975
12322,-8.198408,-3.728018,4.533203,0.00672,0.001069,-0.004123,30.61,63.2819989510268
12332,-8.188239,-3.728616,4.526024,0.004581,-0.002596,-0.010232,30.61,63.2954387827427
12342,-8.181061,-3.725625,4.528417,0.003512,-0.005803,-0.016799,30.56,63.2633888755349
12352,-8.173284,-3.725027,4.532006,0.000916,-0.00901,-0.023213,30.56,63.2263669411119
12362,-8.170293,-3.731009,4.519444,0.000153,-0.011759,-0.027642,30.58,63.2896635245316
12372,-8.153543,-3.722634,4.531408,-0.002596,-0.015577,-0.038332,30.57,63.1807052298894
12382,-8.143373,-3.725027,4.532006,-0.003818,-0.016646,-0.042608,30.57,63.1563957834919
12392,-8.135597,-3.714259,4.524827,-0.004887,-0.017715,-0.045968,30.59,63.1632028468503
12402,-8.13141,-3.72383,4.534997,-0.006567,-0.018021,-0.048258,30.59,63.1117962440013
12412,-8.129615,-3.720839,4.530809,-0.007789,-0.018173,-0.04948,30.58,63.1257100697491
12422,-8.112267,-3.721437,4.52423,-0.008552,-0.018021,-0.050702,30.58,63.1191364852502
12432,-8.098508,-3.725625,4.526024,-0.009316,-0.017715,-0.050396,30.55,63.0820989754994
12442,-8.090134,-3.720839,4.525426,-0.010385,-0.017562,-0.049327,30.55,63.0602081329926
12452,-8.07817,-3.731607,4.526024,-0.010996,-0.015119,-0.045662,30.59,63.040617257315
12462,-8.073982,-3.729214,4.516453,-0.010232,-0.014355,-0.043219,30.59,63.0771055912982
12472,-8.068,-3.728616,4.529015,-0.010232,-0.012828,-0.040317,30.58,62.9979974756466
12482,-8.076973,-3.734598,4.522435,-0.009621,-0.01069,-0.036194,30.58,63.0594171305996
12492,-8.07458,-3.73041,4.52064,-0.009316,-0.009316,-0.030696,30.57,63.0583834171995
12502,-8.05783,-3.732205,4.526024,-0.009468,-0.007941,-0.026267,30.57,62.9931604317386
12512,-8.065009,-3.73041,4.520042,-0.007941,-0.005803,-0.020769,30.59,63.038825287011
12522,-8.066205,-3.718446,4.527221,-0.006872,-0.004276,-0.015577,30.59,62.9918101101779
12532,-8.072187,-3.719045,4.531408,-0.005192,-0.00168,-0.010079,30.57,62.9852089586083
12542,-8.085348,-3.73041,4.528417,-0.002138,0.001222,-0.001222,30.57,63.0440249628727
12552,-8.081758,-3.72383,4.53739,-0.000764,0.002902,0.002138,30.58,62.9825049895821
12562,-8.088937,-3.726223,4.529613,0.000458,0.004123,0.005192,30.55,63.0418274109568
12572,-8.099107,-3.732804,4.533801,0.003207,0.005345,0.008247,30.55,63.051580375696
12582,-8.110473,-3.725027,4.532006,0.004734,0.006414,0.010843,30.59,63.0790922112725
12592,-8.109874,-3.73041,4.526622,0.007025,0.008094,0.011454,30.59,63.1109892225778
12602,-8.129017,-3.722634,4.534997,0.008552,0.00901,0.012675,30.57,63.1048856083904
12612,-8.123632,-3.719045,4.54756,0.009927,0.010079,0.011606,30.57,63.0243312095236
12622,-8.124231,-3.715455,4.545764,0.012065,0.011759,0.011148,30.58,63.0310196266868
12632,-8.129615,-3.725625,4.556532,0.013897,0.01237,0.010079,30.58,62.9998669511937
12642,-8.117651,-3.727419,4.546961,0.014355,0.013134,0.007483,30.57,63.0223348590187
12652,-8.13799,-3.724428,4.544569,0.014355,0.014508,0.004887,30.57,63.0791520122599
12662,-8.135597,-3.729812,4.546961,0.015272,0.015424,0.001985,30.59,63.0671510191161
12672,-8.145766,-3.725625,4.545166,0.015424,0.016035,-0.001069,30.59,63.0956637161989
12682,-8.141579,-3.73041,4.54397,0.01573,0.017562,-0.004887,30.58,63.0970621216187
12692,-8.145766,-3.720839,4.548158,0.01573,0.018784,-0.008399,30.58,63.0753077837567
12702,-8.132008,-3.731009,4.534399,0.014813,0.019242,-0.011301,30.57,63.1239749838232
12712,-8.125427,-3.726821,4.546363,0.014966,0.02138,-0.016646,30.57,63.0430491790218
12722,-8.117651,-3.728018,4.546363,0.01237,0.021686,-0.019242,30.54,63.0260294729176
12732,-8.118848,-3.726821,4.537988,0.011606,0.022907,-0.020922,30.58,63.0702356297719
12742,-8.119445,-3.738786,4.531408,0.010843,0.02306,-0.020922,30.58,63.1181204199122
12752,-8.103892,-3.739383,4.529015,0.010079,0.023976,-0.021686,30.57,63.0944251257378
12762,-8.108678,-3.734,4.521238,0.008858,0.023976,-0.022144,30.57,63.1395568386776
12772,-8.093124,-3.737589,4.520042,0.007789,0.023824,-0.020769,30.59,63.1129830766635
12782,-8.09133,-3.734,4.52064,0.006567,0.024587,-0.01909,30.59,63.1018004821014
12792,-8.097312,-3.726821,4.518846,0.005345,0.024435,-0.017868,30.57,63.1172704975165
12802,-8.096714,-3.732804,4.527221,0.00504,0.023366,-0.015577,30.57,63.079546235439
12812,-8.09791,-3.73041,4.515256,0.004123,0.022907,-0.012523,30.58,63.1409272476991
12822,-8.101499,-3.734598,4.514658,0.002902,0.021686,-0.009927,30.58,63.1569617595939
12832,-8.107481,-3.729812,4.517649,0.002138,0.020617,-0.007636,30.58,63.1505510186839
12842,-8.096116,-3.733402,4.513462,0.001833,0.01909,-0.005498,30.58,63.1491274988255
12852,-8.106285,-3.734598,4.502096,0.002291,0.01741,-0.002443,30.54,63.232453971289
12862,-8.106883,-3.733402,4.508676,0.000916,0.014813,0.000458,30.54,63.1989016985883
12872,-8.116454,-3.739982,4.514658,0.000458,0.013744,0.001374,30.55,63.1978806064419
12882,-8.135597,-3.729812,4.511069,0.001222,0.011759,0.003971,30.55,63.2500821786044
12892,-8.130812,-3.737589,4.50748,0.000611,0.007789,0.004887,30.59,63.2655670314782
12902,-8.150552,-3.74058,4.51406,-0.000153,0.00504,0.003971,30.61,63.2812872306209
12912,-8.147561,-3.732804,4.521238,-0.000611,0.002291,0.002749,30.61,63.2293947505427
12922,-8.13799,-3.728018,4.527221,-0.000305,0.000153,0.000458,30.6,63.17136875134
12932,-8.156534,-3.722036,4.518248,0.000458,-0.001527,-0.001069,30.6,63.2540958721301
12942,-8.158329,-3.71725,4.530211,-0.000458,-0.003818,-0.00504,30.58,63.1922549107573
12952,-8.152946,-3.720241,4.536791,-0.001069,-0.004887,-0.007941,30.58,63.1493476571723
12962,-8.161918,-3.722634,4.525426,-0.000611,-0.00672,-0.011148,30.55,63.2307506144589
12972,-8.148758,-3.721437,4.528417,-0.00168,-0.008094,-0.015119,30.55,63.1834513917337
12982,-8.143373,-3.714259,4.532006,-0.001985,-0.009468,-0.019242,30.61,63.1448582426287
12992,-8.153543,-3.71067,4.542176,-0.001985,-0.009927,-0.02306,30.61,63.1131145371822
13002,-8.154739,-3.726223,4.535595,-0.00168,-0.011454,-0.02642,30.59,63.1660328177992
13012,-8.148758,-3.726223,4.546363,-0.001833,-0.011606,-0.030391,30.59,63.0972395140832
13022,-8.142776,-3.718446,4.539783,-0.002138,-0.011454,-0.033445,30.62,63.1083337335528
13032,-8.136793,-3.715455,4.540381,-0.002291,-0.010996,-0.036499,30.62,63.0880177129512
13042,-8.119445,-3.708875,4.532604,-0.002443,-0.011148,-0.038332,30.55,63.0797482452123
13052,-8.113463,-3.71725,4.532604,-0.002596,-0.010385,-0.039554,30.55,63.0746797967859
13062,-8.101499,-3.710072,4.537988,-0.00168,-0.009468,-0.04047,30.58,63.0111965522382
13072,-8.082357,-3.723232,4.533801,-0.001222,-0.008247,-0.040317,30.55,63.0016136560142
13082,-8.084151,-3.720839,4.530809,-0.000611,-0.007025,-0.038026,30.55,63.0185466753226
13092,-8.081161,-3.715455,4.526622,-0.000458,-0.005345,-0.035583,30.54,63.0270318432039
13102,-8.066205,-3.713063,4.527221,0.000458,-0.004734,-0.032987,30.54,62.9859307561769
13112,-8.067401,-3.725625,4.531408,0.001374,-0.002596,-0.029474,30.6,62.9810608814084
13122,-8.068,-3.713063,4.530809,0.002138,-0.001374,-0.02474,30.6,62.9718175665727
13132,-8.065607,-3.729812,4.529613,0.003207,0.000458,-0.020159,30.57,62.9905805580281
13142,-8.068598,-3.717848,4.522435,0.004429,0.001985,-0.015272,30.57,63.0213368200657
13152,-8.062017,-3.717848,4.525426,0.005192,0.003818,-0.010537,30.52,62.9904211335902
13162,-8.06441,-3.722036,4.527819,0.005956,0.005803,-0.006109,30.52,62.9884185650158
13172,-8.058429,-3.728616,4.532604,0.007636,0.007941,-0.00168,30.55,62.9569509397709
13182,-8.071589,-3.727419,4.526622,0.008705,0.010232,0.001985,30.55,63.0174286802287
13192,-8.083553,-3.732804,4.533801,0.008705,0.011759,0.00672,30.57,63.0148769608353
13202,-8.083553,-3.72383,4.540979,0.009468,0.013897,0.010385,30.57,62.9684169975784
13212,-8.090134,-3.737589,4.530211,0.01069,0.015882,0.013286,30.55,63.053967077901
13222,-8.093124,-3.73041,4.548756,0.011148,0.016188,0.014203,30.55,62.9585370735927
13232,-8.113463,-3.735196,4.548158,0.011759,0.020006,0.016646,30.65,63.0147942983988
13242,-8.117052,-3.729214,4.541577,0.011301,0.020769,0.015882,30.55,63.0503000318072
13252,-8.130214,-3.733402,4.549952,0.012065,0.02138,0.01405,30.55,63.0431494691834
13262,-8.136195,-3.728018,4.545764,0.01237,0.022449,0.01237,30.59,63.0727153298054
13272,-8.133204,-3.739982,4.545166,0.011912,0.02306,0.010079,30.59,63.0816318168336
13282,-8.146963,-3.732804,4.54756,0.011912,0.023976,0.00672,30.62,63.0940089226489
13292,-8.154739,-3.734,4.546363,0.010996,0.024587,0.003665,30.62,63.1196044789206
13302,-8.139785,-3.731607,4.54397,0.01069,0.024435,-0.000305,30.63,63.0941390781703
13312,-8.152347,-3.732205,4.54397,0.010996,0.024435,-0.003665,30.63,63.124240140865
13322,-8.153543,-3.734,4.532006,0.009927,0.025045,-0.008247,30.55,63.1898221725471
13332,-8.153543,-3.732205,4.54397,0.008705,0.024587,-0.012217,30.55,63.1270420265757
13342,-8.152347,-3.728018,4.527221,0.007941,0.023824,-0.015577,30.61,63.2049831947884
13352,-8.149954,-3.742374,4.534399,0.008247,0.022297,-0.018479,30.61,63.1782320974707
13362,-8.140981,-3.736991,4.517051,0.008094,0.021991,-0.022602,30.6,63.2398484079599
13372,-8.139785,-3.733402,4.517051,0.006261,0.0197,-0.026114,30.6,63.2332026426478
13382,-8.130214,-3.725625,4.515854,0.005345,0.017562,-0.028253,30.6,63.2085590630026
13392,-8.129017,-3.73041,4.519444,0.004429,0.016493,-0.029169,30.6,63.1925727340383
13402,-8.126026,-3.745365,4.512266,0.003512,0.014355,-0.030391,30.59,63.2383084803047
13412,-8.118848,-3.741179,4.517649,0.00168,0.009774,-0.030696,30.63,63.1895094280291
13422,-8.113463,-3.731607,4.516453,0.001222,0.008552,-0.02978,30.63,63.1726526897532
13432,-8.117052,-3.738786,4.506283,0,0.006567,-0.027947,30.59,63.2407842214917
13442,-8.111669,-3.733402,4.515854,0.000305,0.004581,-0.025656,30.59,63.1734405736027
13452,-8.100304,-3.728018,4.505685,0.000458,0.002902,-0.024435,30.58,63.1929368476577
13462,-8.102695,-3.727419,4.501498,-0.001222,0.000458,-0.021533,30.58,63.2193390541521
13472,-8.098508,-3.728018,4.503293,-0.002443,-0.000611,-0.018937,30.58,63.2009629250405
13482,-8.106285,-3.728018,4.50748,-0.00336,-0.001833,-0.017562,30.58,63.197799435197
13492,-8.102098,-3.721437,4.508676,-0.002902,-0.003207,-0.01405,30.56,63.1747332720797
13502,-8.108678,-3.735795,4.518248,-0.003818,-0.005192,-0.011606,30.56,63.1567735340932
13512,-8.101499,-3.728616,4.517649,-0.004123,-0.005956,-0.008858,30.59,63.1351905385028
13522,-8.11466,-3.727419,4.521836,-0.004429,-0.007025,-0.007178,30.59,63.1434470912899
13532,-8.117651,-3.722634,4.517051,-0.003971,-0.00733,-0.005192,30.59,63.1697551173825
13542,-8.112864,-3.723232,4.528417,-0.004123,-0.007636,-0.004123,30.59,63.1011006480546
13552,-8.116454,-3.716652,4.521238,-0.004429,-0.008247,-0.002749,30.58,63.1391094959317
13562,-8.124231,-3.722634,4.533801,-0.003971,-0.00901,-0.002443,30.58,63.0997301520445
13572,-8.126624,-3.722036,4.534997,-0.003665,-0.00901,-0.003207,30.55,63.0986157079931
13582,-8.133204,-3.713661,4.531408,-0.003512,-0.007789,-0.005956,30.59,63.123378776211
13592,-8.130214,-3.715455,4.53739,-0.002749,-0.007483,-0.006872,30.59,63.0877805924102
13602,-8.137392,-3.714259,4.539783,-0.001222,-0.006414,-0.009468,30.58,63.0911880900849
13612,-8.129017,-3.71725,4.549354,-0.000153,-0.005956,-0.011759,30.58,63.0259516162403
13622,-8.132008,-3.720839,4.545166,0.000764,-0.005345,-0.013134,30.62,63.0581835017672
13632,-8.130812,-3.716054,4.545764,0.002443,-0.00336,-0.016341,30.62,63.0471716621197
13642,-8.128419,-3.721437,4.542176,0.003818,-0.001985,-0.01909,30.6,63.0656094140405
13652,-8.130214,-3.726821,4.545166,0.004734,-0.000764,-0.02138,30.6,63.0604081389043
13662,-8.118249,-3.717848,4.536194,0.005651,0.000458,-0.022907,30.62,63.0682856054159
13672,-8.111071,-3.718446,4.542176,0.006567,0.001833,-0.024587,30.62,63.0214982734659
13682,-8.105686,-3.723232,4.533801,0.007941,0.00336,-0.025962,30.61,63.0567073545808
13692,-8.103892,-3.714857,4.546363,0.009316,0.005498,-0.02642,30.61,62.9792991215532
13702,-8.106285,-3.728616,4.531408,0.01069,0.007025,-0.027642,30.6,63.0761661695568
13712,-8.099107,-3.726821,4.540381,0.011454,0.009163,-0.027031,30.6,63.0114951021975
13722,-8.085348,-3.726223,4.544569,0.012065,0.011606,-0.025809,30.58,62.9569426229216
13732,-8.080563,-3.728616,4.544569,0.012523,0.012828,-0.025351,30.58,62.9482272432148
13742,-8.079366,-3.726223,4.538587,0.013592,0.014661,-0.023366,30.61,62.9733376802986
13752,-8.083553,-3.720839,4.527819,0.013592,0.01909,-0.017104,30.61,63.0324228562374
13762,-8.082954,-3.729812,4.52423,0.013592,0.020769,-0.01405,30.61,63.0591334256822
13772,-8.066205,-3.735795,4.52423,0.01405,0.022297,-0.009774,30.62,63.0261004233098
13782,-8.083553,-3.724428,4.524827,0.013897,0.022907,-0.007025,30.62,63.0516322638751
13792,-8.082954,-3.74058,4.531408,0.013897,0.023518,-0.002749,30.58,63.0341780320405
13802,-8.08475,-3.725027,4.528417,0.012675,0.025045,0.001374,30.58,63.0367513695184
13812,-8.081758,-3.731607,4.52064,0.012217,0.025656,0.005345,30.59,63.0766326550561
13822,-8.086544,-3.732804,4.520042,0.012065,0.025962,0.00901,30.59,63.0922814198342
13832,-8.102695,-3.731607,4.512863,0.011912,0.025962,0.011148,30.59,63.1657126338932
13842,-8.109874,-3.734598,4.52423,0.009927,0.02642,0.013439,30.59,63.1277342678673
13852,-8.12124,-3.734598,4.518846,0.009468,0.025351,0.014966,30.61,63.1819042464724
13862,-8.12124,-3.731009,4.518248,0.008858,0.023824,0.017104,30.61,63.1810886598678
13872,-8.135597,-3.738786,4.529613,0.007789,0.022144,0.017868,30.57,63.165147864436
13882,-8.139785,-3.73041,4.520042,0.008094,0.02138,0.017715,30.57,63.2147397332435
13892,-8.143971,-3.731607,4.527819,0.006414,0.020311,0.016035,30.55,63.1861821822759
13902,-8.152347,-3.729812,4.528417,0.005498,0.016952,0.014508,30.55,63.2008121226274
13912,-8.157133,-3.73041,4.525426,0.004581,0.014661,0.01069,30.53,63.22786824607
13922,-8.169096,-3.725027,4.539185,0.00336,0.011759,0.00336,30.53,63.1800887182167
13932,-8.163713,-3.733402,4.530211,0.001985,0.006109,-0.000611,30.59,63.2220781871006
13942,-8.17448,-3.73041,4.527221,0.001527,0.003054,-0.005803,30.59,63.2592152698162
13952,-8.176873,-3.731607,4.531408,-0.000458,0.000611,-0.011759,30.59,63.2447797903751
