t_ms,ax,ay,az,gx,gy,gz,temp,ang_deg
12,-8.800204,-3.519842,3.842873,-0.067195,-0.18326,-0.07422,31.04,67.9298568874983
22,-8.752945,-3.549154,3.856034,-0.070555,-0.210138,-0.10232,31.04,67.7919581426119
32,-8.748757,-3.528815,3.877569,-0.072693,-0.235336,-0.129045,31.01,67.6555240894062
42,-8.704492,-3.550351,3.894319,-0.076205,-0.25748,-0.152564,31.01,67.4978083997266
52,-8.640482,-3.457629,4.08754,-0.08827,-0.281303,-0.170431,31.03,66.2885387954556
62,-8.617152,-3.665804,3.912265,-0.106749,-0.304211,-0.183718,31.03,67.3259397926007
72,-8.568698,-3.487539,4.091727,-0.093921,-0.303295,-0.20128,30.99,66.1407019844258
82,-8.563314,-3.571288,3.981059,-0.109498,-0.319788,-0.207694,30.99,66.7768921573371
92,-8.523833,-3.569493,4.0008,-0.11469,-0.328493,-0.213345,31.01,66.5903893632954
102,-8.437093,-3.579663,4.036094,-0.117592,-0.331394,-0.217163,31.01,66.2323715432005
112,-8.375478,-3.614359,4.051049,-0.120493,-0.326813,-0.214872,31.04,66.0543276991749
122,-8.338987,-3.591627,4.070789,-0.122937,-0.319177,-0.206778,31.03,65.8510980468588
132,-8.244471,-3.637091,4.168896,-0.123547,-0.308487,-0.19624,31.03,65.1728218690221
142,-8.206783,-3.631706,4.184449,-0.116828,-0.290772,-0.182343,31.05,65.002103744337
152,-8.212766,-3.639483,4.11386,-0.110872,-0.272446,-0.166613,31.05,65.3942308764323
162,-8.186445,-3.638885,4.114459,-0.105527,-0.255342,-0.147371,31.02,65.3322607102725
172,-8.133204,-3.617948,4.176672,-0.098197,-0.237321,-0.125838,31.02,64.8638226578931
182,-8.102098,-3.676572,4.156333,-0.095142,-0.220217,-0.100793,31,64.9604779262691
192,-8.069795,-3.66401,4.250251,-0.079565,-0.194102,-0.078802,31,64.3790735071335
202,-8.077571,-3.652046,4.156931,-0.067653,-0.167988,-0.056963,31.05,64.876908455047
212,-8.069196,-3.649653,4.183851,-0.057879,-0.143859,-0.031154,31.05,64.7129317567908
222,-8.05783,-3.649653,4.202394,-0.050244,-0.116675,-0.005651,31.01,64.5889637076215
232,-8.065009,-3.674777,4.259224,-0.03711,-0.082772,0.014508,31.01,64.3321853391764
242,-8.065009,-3.65384,4.196413,-0.027184,-0.04047,0.030696,31.05,64.6412984373659
262,-8.085348,-3.645465,4.24726,-0.004581,0.022144,0.072998,31.06,64.4112273760674
272,-8.102098,-3.665804,4.22393,0.000611,0.059559,0.090103,31.06,64.593101189089
282,-8.153543,-3.657429,4.223332,0.008399,0.120951,0.120035,31,64.7043335367605
292,-8.188239,-3.649055,4.219144,0.024129,0.151342,0.13042,31.04,64.7960507358901
302,-8.214561,-3.638287,4.213162,0.028863,0.180511,0.13607,31.04,64.8756993131466
312,-8.262416,-3.64726,4.201199,0.032529,0.207694,0.14111,31.06,65.0537528818468
322,-8.30489,-3.638885,4.200002,0.034819,0.232282,0.140804,31.06,65.1458472686168
332,-8.34138,-3.628716,4.174878,0.036957,0.255953,0.13943,31.02,65.3470240653797
342,-8.367103,-3.632305,4.163511,0.038332,0.274126,0.133627,31.02,65.4656986919342
352,-8.419745,-3.625126,4.144369,0.038485,0.290619,0.126602,31.03,65.6724074012745
362,-8.440084,-3.620939,4.11745,0.038637,0.3036,0.118661,31.03,65.8519871103427
372,-8.477771,-3.621537,4.098905,0.03879,0.312152,0.108276,31.02,66.0291259301467
382,-8.513064,-3.613162,4.06062,0.038943,0.317497,0.097738,31.02,66.2948493052493
392,-8.533404,-3.614359,4.036094,0.039248,0.318872,0.08659,31.03,66.4658804739934
402,-8.542377,-3.613162,4.004389,0.038026,0.316428,0.075289,31.03,66.6483922650365
412,-8.572886,-3.605984,3.97388,0.038485,0.310778,0.064599,31.04,66.8639304299315
422,-8.588439,-3.602993,3.943372,0.038026,0.299782,0.054214,31.04,67.0521975062331
432,-8.60818,-3.600002,3.926024,0.038332,0.286954,0.044593,31.04,67.1802478805414
442,-8.619546,-3.6006,3.858427,0.038637,0.270613,0.035583,31.04,67.5570282824206
452,-8.64467,-3.595216,3.844668,0.039248,0.250607,0.02138,31.02,67.6746601375272
462,-8.653644,-3.594618,3.823731,0.040775,0.204334,0.014508,31.04,67.8016326101144
472,-8.670991,-3.586841,3.806981,0.042608,0.17822,0.008247,31.04,67.9172704271993
482,-8.673384,-3.588037,3.801597,0.04383,0.150578,0.001985,31,67.9511732074584
492,-8.620144,-3.454039,4.027121,0.042761,0.121562,-0.005498,31,66.5556564427669
502,-8.684152,-3.39721,4.042674,-0.00336,0.078496,0.000916,31.03,66.5617749810496
512,-8.685348,-3.611966,3.755535,-0.034972,0.041386,-0.001069,31.03,68.23562282496
522,-8.703294,-3.558127,3.762115,-0.027947,0.009774,-0.00733,31.01,68.1927991817728
532,-8.700901,-3.606582,3.769892,-0.025198,-0.022449,-0.016646,31.01,68.1860767201363
542,-8.683554,-3.54736,3.832105,-0.02138,-0.052993,-0.025962,31.02,67.7784180594881
552,-8.64826,-3.49711,3.951746,-0.035125,-0.091477,-0.028558,31.02,67.0416269602246
562,-8.68475,-3.598805,3.806383,-0.050244,-0.130572,-0.033598,31.02,67.9571194926249
572,-8.670394,-3.546163,3.881757,-0.046273,-0.156382,-0.044746,31.02,67.4916970155818
582,-8.632706,-3.547958,3.921238,-0.055589,-0.185245,-0.05284,31.08,67.2111939212981
592,-8.623135,-3.588636,3.876971,-0.063072,-0.210901,-0.061087,31.08,67.4571275503541
602,-8.597412,-3.601198,3.890131,-0.062003,-0.228005,-0.071624,31.02,67.347082646307
612,-8.569296,-3.583252,3.924827,-0.060628,-0.241139,-0.081398,31.02,67.0932205538654
622,-8.487342,-3.586841,3.966104,-0.061239,-0.251371,-0.090408,31.06,66.7111852738671
632,-8.442476,-3.59402,3.982853,-0.060934,-0.258549,-0.100487,31.06,66.5358725924267
642,-8.401799,-3.601796,3.999603,-0.060323,-0.257174,-0.101251,31.04,66.3691011063733
652,-8.359326,-3.619742,4.021737,-0.060018,-0.250607,-0.100182,31.01,66.1788348253755
662,-8.340183,-3.598805,4.037888,-0.058948,-0.242666,-0.096211,31.01,66.033429106386
672,-8.306684,-3.608975,4.05404,-0.055894,-0.231518,-0.090866,31.01,65.885580129586
682,-8.266006,-3.616751,4.055834,-0.052382,-0.217468,-0.082314,31.01,65.7952135512354
692,-8.246863,-3.615555,4.09053,-0.048564,-0.20296,-0.072693,31.01,65.5690939676899
702,-8.213962,-3.624528,4.073183,-0.043371,-0.185398,-0.060934,31.01,65.5971748035458
712,-8.223534,-3.619144,4.085745,-0.036957,-0.166919,-0.048717,31.03,65.5465672743295
722,-8.209774,-3.623332,4.093522,-0.031307,-0.148898,-0.036499,31.03,65.4792270945099
732,-8.199007,-3.620939,4.098307,-0.023976,-0.129503,-0.022755,31.01,65.4278208190239
742,-8.204391,-3.624528,4.099504,-0.016188,-0.109956,-0.009774,31.01,65.4368982043561
752,-8.20798,-3.625126,4.104289,-0.009468,-0.091477,0.002443,31.01,65.4201350229213
762,-8.220542,-3.62393,4.114459,-0.001222,-0.073304,0.013744,31.01,65.3930641124146
772,-8.236693,-3.573082,4.222734,0.005192,-0.053603,0.022907,31.02,64.8111680625176
782,-8.245667,-3.605984,4.124628,-0.002902,-0.024435,0.029169,31.02,65.3776079939247
792,-8.251051,-3.618546,4.119244,-0.000305,-0.004123,0.036041,31.01,65.4299421526521
802,-8.306085,-3.579663,4.176672,0.00733,0.031307,0.04612,31.01,65.2131888375922
812,-8.312068,-3.619742,4.104289,0.008247,0.054214,0.047342,31.03,65.6432413188463
822,-8.352745,-3.596412,4.127021,0.013592,0.068111,0.049327,31.03,65.5908177975913
832,-8.345568,-3.585645,4.131807,0.013592,0.084299,0.048564,31.03,65.540056200142
842,-8.368299,-3.60718,4.092923,0.014508,0.100029,0.049022,31.07,65.8128643107635
852,-8.385049,-3.582056,4.119842,0.018631,0.110872,0.048564,31.07,65.6851181124161
862,-8.388638,-3.586243,4.100101,0.018021,0.125533,0.044288,31.03,65.7998366570212
872,-8.414959,-3.568297,4.089334,0.018479,0.138208,0.042455,31.03,65.8963441013145
882,-8.426923,-3.577868,4.076771,0.020464,0.149051,0.039859,31.02,65.996350007087
892,-8.422735,-3.580261,4.070191,0.023671,0.158367,0.036652,31.02,66.0239418505479
902,-8.443074,-3.576672,4.065406,0.024435,0.168293,0.032529,31.05,66.0891228157837
912,-8.442476,-3.580261,4.036692,0.02642,0.175318,0.029169,31.05,66.2412013477992
922,-8.465807,-3.565904,4.056432,0.027947,0.180511,0.026267,31.01,66.1746697864431
932,-8.46461,-3.586243,4.027121,0.027031,0.186772,0.021991,31.01,66.343450938073
942,-8.486743,-3.573082,4.033103,0.029322,0.187994,0.018479,31,66.3471399601568
952,-8.486743,-3.574279,4.005585,0.031154,0.189215,0.013286,31,66.4920185547567
962,-8.501101,-3.5671,3.983452,0.032223,0.18891,0.009774,31.05,66.6315984370495
972,-8.517851,-3.571288,3.969095,0.031612,0.183565,0.000153,31.05,66.7452931311942
982,-8.541779,-3.565306,3.959523,0.033445,0.179136,-0.003665,31.04,66.8397580179996
992,-8.542974,-3.571886,3.958327,0.033445,0.171959,-0.008094,31.04,66.8541576758645
1002,-8.559725,-3.581457,3.936791,0.031001,0.163101,-0.012523,31.04,67.0095060200627
1012,-8.558528,-3.581457,3.932006,0.029322,0.152411,-0.016341,31.02,67.032100437992
1022,-8.566306,-3.592823,3.917649,0.026725,0.141415,-0.018021,31.02,67.1328751275836
1032,-8.567502,-3.576672,3.922434,0.023824,0.126755,-0.020311,31.02,67.0964757967392
1042,-8.567502,-3.580859,3.904488,0.018937,0.110108,-0.022297,31.02,67.1940764361661
1052,-8.592029,-3.595814,3.88714,0.014355,0.091324,-0.022755,31.05,67.3473495706281
1062,-8.580065,-3.59043,3.906283,0.009927,0.07025,-0.023976,31.05,67.2183237264779
1072,-8.586643,-3.603591,3.872185,0.003512,0.046884,-0.022907,31.03,67.4214659310764
1082,-8.59442,-3.594618,3.900301,-0.001833,0.021533,-0.022144,31.03,67.2822554761763
1092,-8.602198,-3.599404,3.89073,-0.008552,-0.008399,-0.020769,31.05,67.3520767707638
1102,-8.612965,-3.594618,3.887738,-0.014661,-0.038179,-0.019853,31.05,67.38537706092
1112,-8.613564,-3.60718,3.882355,-0.021533,-0.068264,-0.020006,31,67.4252888049595
1122,-8.612367,-3.597609,3.903292,-0.0281,-0.098197,-0.020922,31,67.3053696727674
1132,-8.603992,-3.61077,3.903292,-0.034056,-0.126449,-0.023518,31.02,67.299594706122
1142,-8.580662,-3.611368,3.941577,-0.040164,-0.153785,-0.025809,31.02,67.052891525415
1152,-8.570493,-3.618546,3.93739,-0.053451,-0.202655,-0.033598,31.03,67.0602044539811
1162,-8.56152,-3.602395,3.979264,-0.058796,-0.222508,-0.039401,31.04,66.8094172361438
1172,-8.535797,-3.628716,3.980461,-0.064752,-0.239154,-0.045204,31.04,66.773130747741
1182,-8.504092,-3.623332,4.018745,-0.067806,-0.25244,-0.048717,31.02,66.5030242389272
1192,-8.47119,-3.639483,4.015755,-0.071624,-0.262214,-0.05284,31.02,66.4643646876257
1202,-8.429317,-3.632305,4.036692,-0.072693,-0.266643,-0.05681,31.03,66.2604420375187
1212,-8.412566,-3.638287,4.063013,-0.075136,-0.269239,-0.059101,31.03,66.0928216145216
1222,-8.382656,-3.650251,4.067201,-0.07422,-0.265421,-0.059865,31.06,66.0182853079258
1232,-8.344371,-3.632305,4.127021,-0.072082,-0.256105,-0.061239,31.06,65.6063981549937
1242,-8.315658,-3.655635,4.109673,-0.072998,-0.243888,-0.060628,31,65.6569495959423
1252,-8.292327,-3.638885,4.139583,-0.069639,-0.224951,-0.060781,31,65.4334929007977
1262,-8.257033,-3.653242,4.155136,-0.065821,-0.202196,-0.059865,31.05,65.2884215130698
1272,-8.238488,-3.635296,4.168896,-0.062003,-0.176082,-0.055436,31.05,65.157794328794
1282,-8.202596,-3.646064,4.176672,-0.056963,-0.14844,-0.050396,31.05,65.0477698237084
1292,-8.182856,-3.634698,4.176074,-0.052687,-0.119271,-0.044135,31.05,64.9954893801385
1302,-8.180463,-3.6341,4.183252,-0.047953,-0.089339,-0.036957,31.05,64.9518112503523
1312,-8.173882,-3.627519,4.171288,-0.04215,-0.057879,-0.0281,31.05,64.9933943732536
1322,-8.156534,-3.617948,4.164708,-0.035277,0.000305,-0.008399,31.05,64.9795409664441
1332,-8.172088,-3.608975,4.154539,-0.0197,0.027794,0.003054,31.03,65.0591799941954
1342,-8.182258,-3.618546,4.13061,-0.010843,0.053451,0.014966,31.03,65.2176294936286
1352,-8.19781,-3.604189,4.119244,-0.001374,0.077122,0.026573,31,65.2981695930343
1362,-8.213365,-3.597609,4.101896,0.008552,0.098197,0.038637,31,65.417916560695
1372,-8.235497,-3.585645,4.088736,0.018479,0.117133,0.049938,31.03,65.5248142045279
1382,-8.255836,-3.585046,4.076173,0.028863,0.133016,0.061392,31.03,65.6353550324417
1392,-8.300103,-3.579663,4.052843,0.038179,0.146608,0.072082,31.01,65.8501116040689
1402,-8.316854,-3.570091,4.052843,0.0478,0.157145,0.081245,31.01,65.8775409897735
1412,-8.349156,-3.559922,4.039683,0.055589,0.164934,0.091172,31.03,66.007380132716
1422,-8.369495,-3.558726,4.025924,0.064599,0.171195,0.099571,31.03,66.1225307728993
1432,-8.395817,-3.554538,4.015156,0.071471,0.175318,0.106443,31,66.2317631475439
1442,-8.428718,-3.550351,4.002594,0.078038,0.177304,0.112094,31,66.3640825197006
1452,-8.453843,-3.537788,4.00379,0.082009,0.176845,0.115606,31.06,66.3998458934455
1462,-8.487342,-3.538387,4.001398,0.085521,0.175318,0.117897,31.06,66.4836023415162
1472,-8.505288,-3.527619,3.999005,0.087506,0.171806,0.119271,31.04,66.5244471562426
1482,-8.526823,-3.525824,4.302894,0.088575,0.168446,0.117592,31.04,64.9986858020205
1492,-8.549556,-3.525824,3.942773,0.071166,0.170431,0.104,31.05,66.9097117516976
1502,-8.592029,-3.522833,3.957729,0.036194,0.174097,0.100335,31.04,66.9165318044027
1512,-8.598608,-3.543172,3.93739,0.035583,0.16417,0.093157,31.04,67.053417500503
1522,-8.624331,-3.515655,3.946961,0.036805,0.153174,0.083994,31.07,67.033011419947
1532,-8.641081,-3.540779,3.940381,0.035736,0.142026,0.072693,31.07,67.1224250064004
1542,-8.647062,-3.528815,3.949952,0.03375,0.130725,0.060323,31.02,67.0748134076881
1552,-8.654242,-3.509673,4.040879,0.02978,0.118508,0.044593,31.02,66.6020296643137
1562,-8.669795,-3.524628,3.98405,0.010843,0.108123,0.027489,31.07,66.9406423888253
1572,-8.676972,-3.554538,3.92064,-0.000153,0.096517,0.009316,31.07,67.3091792297906
1582,-8.683554,-3.53719,3.945765,-0.001527,0.081856,-0.009774,31.09,67.1776061160694
1592,-8.678768,-3.533002,3.976871,-0.009316,0.064752,-0.029169,31.09,67.0031027471935
1602,-8.675776,-3.551547,3.959523,-0.017562,0.046426,-0.048869,30.99,67.1023375028256
1612,-8.682955,-3.555136,3.930212,-0.02306,0.02642,-0.067042,30.99,67.2719607665813
1622,-8.648857,-3.559324,3.967898,-0.031154,0.006414,-0.085368,31.05,67.0106627685798
1632,-8.64826,-3.568895,3.930212,-0.037568,-0.01405,-0.103542,31.05,67.2133699189497
1642,-8.62134,-3.565306,3.964907,-0.041997,-0.032223,-0.121715,31.03,66.975108633121
1652,-8.599206,-3.591029,3.960122,-0.048411,-0.051313,-0.136223,31.03,66.976638174922
1662,-8.547761,-3.589234,3.948756,-0.053756,-0.068875,-0.15012,31.04,66.9290493635357
1672,-8.528021,-3.598805,3.948158,-0.063683,-0.10232,-0.170584,31.01,66.8998735513076
1682,-8.490931,-3.595814,3.964309,-0.067653,-0.116675,-0.176235,31.01,66.7359474342677
1692,-8.472386,-3.616751,3.956532,-0.070097,-0.129198,-0.179136,31.01,66.7567478302254
1702,-8.441879,-3.608975,3.966702,-0.071471,-0.138666,-0.180053,31.01,66.6328818910823
1712,-8.41436,-3.629314,3.972684,-0.073457,-0.146302,-0.177915,31.03,66.5621069442657
1722,-8.380861,-3.626323,3.986442,-0.074526,-0.153785,-0.172111,31.03,66.4164723180962
1732,-8.363514,-3.629314,3.99063,-0.075747,-0.157909,-0.164934,31.04,66.3604523096297
1742,-8.336594,-3.633501,3.998407,-0.073915,-0.160047,-0.154091,31.04,66.2661321249142
1752,-8.315059,-3.643072,3.990032,-0.072082,-0.159894,-0.139888,31.03,66.2734518350872
1762,-8.286345,-3.655635,3.99721,-0.068417,-0.158978,-0.124617,31.03,66.1859809028823
1772,-8.277372,-3.655036,4.020541,-0.064904,-0.154854,-0.107512,31.05,66.0427230205081
1782,-8.255239,-3.635296,4.039683,-0.059865,-0.150426,-0.08827,31.05,65.8748950200976
1792,-8.254042,-3.661617,4.021138,-0.055894,-0.147524,-0.065363,31.04,65.9956166085092
1802,-8.260024,-3.671188,4.019942,-0.048258,-0.139888,-0.044899,31.04,66.0239773736992
1812,-8.240283,-3.644867,4.071986,-0.038943,-0.127671,-0.025504,31.02,65.6808074173065
1822,-8.247462,-3.656831,4.049852,-0.033903,-0.112552,-0.00733,31.02,65.8248899923735
1832,-8.250452,-3.656233,4.063612,-0.02642,-0.096822,0.011759,31,65.7581229964681
1842,-8.25464,-3.650251,4.101298,-0.009621,-0.063225,0.046273,31,65.5628679926545
1852,-8.247462,-3.661617,4.068397,-0.005651,-0.041386,0.058796,31.06,65.7315605710318
1862,-8.274381,-3.655635,4.065406,0.004734,-0.024129,0.073762,31.02,65.8000056434943
1872,-8.27139,-3.63051,4.107878,0.012675,-0.006261,0.085216,31.02,65.5458819382787
1882,-8.29472,-3.64726,4.079165,0.016493,0.016952,0.094684,31.03,65.7636503046398
1892,-8.291131,-3.633501,4.071986,0.023824,0.035736,0.103236,31.03,65.780545445625
1902,-8.320443,-3.627519,4.091727,0.030391,0.053603,0.10965,31.01,65.7346916593
1912,-8.339585,-3.622135,4.074977,0.033292,0.073762,0.11301,31.01,65.858905807286
1922,-8.349755,-3.612564,4.058227,0.036194,0.091019,0.114232,31.05,65.9598131043442
1932,-8.368897,-3.604787,4.078567,0.040623,0.107665,0.114079,31.05,65.8870869316627
1942,-8.389236,-3.600002,4.051647,0.041386,0.124311,0.110872,31.05,66.0674032527985
1952,-8.398808,-3.598805,4.048656,0.044288,0.138056,0.10797,31.05,66.1024384047956
1962,-8.42812,-3.598207,4.058227,0.044135,0.150426,0.103236,31.05,66.1142830464486
1972,-8.442476,-3.596412,4.026522,0.04383,0.161879,0.095906,31.05,66.3089734716413
1982,-8.468798,-3.582056,4.056432,0.044135,0.169515,0.089034,31.04,66.1954802376132
1992,-8.473583,-3.585645,4.004389,0.040928,0.177304,0.079718,31.04,66.4807360349832
2002,-8.517252,-3.580859,3.978666,0.040317,0.180205,0.071319,31.05,66.7022987624956
2012,-8.539985,-3.565904,3.981059,0.037568,0.182038,0.05116,31.05,66.7239614520903
2022,-8.544769,-3.575475,3.97747,0.032834,0.177915,0.041233,31.02,66.7609044941356
2032,-8.569296,-3.574279,3.96072,0.029322,0.172722,0.032987,31.04,66.8979170059568
2042,-8.592029,-3.564708,3.942175,0.025504,0.16585,0.023366,31.04,67.0331801006717
2052,-8.577072,-3.557529,3.949354,0.022755,0.156076,0.014661,31.03,66.9589437218515
2062,-8.59442,-3.566502,3.928416,0.018479,0.144928,0.006414,31.03,67.1114535861527
2072,-8.607581,-3.56411,3.929613,0.015272,0.131641,-0.001527,31.04,67.1299814713715
2082,-8.606385,-3.576672,3.910471,0.010996,0.117286,-0.008399,31.04,67.2381348142429
2092,-8.619546,-3.5671,3.902096,0.007178,0.099724,-0.015272,31.04,67.3005071409371
2102,-8.61835,-3.562913,3.897908,0.003665,0.080176,-0.021075,31.04,67.3164899189603
2112,-8.63151,-3.559324,3.894917,0.000305,0.059865,-0.025351,31.01,67.3556955839804
2122,-8.620741,-3.559922,3.893721,-0.004123,0.038637,-0.029627,31.01,67.3407237597183
2133,-8.612367,-3.556333,3.897908,-0.006872,0.016188,-0.032529,31.04,67.2988963856451
2142,-8.626723,-3.572484,3.860819,-0.010996,-0.006261,-0.034514,31.04,67.5354625542858
2152,-8.60818,-3.572484,3.905087,-0.013897,-0.0281,-0.037415,31.03,67.2663975011077
2162,-8.605787,-3.566502,3.894319,-0.019395,-0.052076,-0.040623,31.03,67.3128822492225
2172,-8.595617,-3.555735,3.907479,-0.022449,-0.074373,-0.041539,31.03,67.2143288817247
2182,-8.566903,-3.5671,3.918845,-0.025656,-0.097738,-0.041844,31.03,67.1059024620094
2192,-8.553144,-3.583252,3.909274,-0.035277,-0.142484,-0.04215,30.99,67.141767752291
2202,-8.527422,-3.556931,3.954139,-0.037263,-0.160352,-0.041997,31.02,66.8310380589522
2212,-8.511868,-3.577868,3.934997,-0.043066,-0.180205,-0.041997,31.02,66.9174375607119
2222,-8.496315,-3.581457,3.966104,-0.044899,-0.195019,-0.041692,31.02,66.7251176445343
2232,-8.475977,-3.586243,3.978666,-0.048411,-0.207389,-0.039859,31.02,66.6210747351527
2242,-8.455637,-3.580859,3.975675,-0.050396,-0.217926,-0.040012,31.03,66.5894673383588
2252,-8.442476,-3.585645,4.016353,-0.051618,-0.225562,-0.038943,31.03,66.3525678251976
2262,-8.419745,-3.589234,4.016951,-0.053909,-0.229685,-0.036805,31.02,66.3045678949562
2272,-8.388638,-3.602993,4.036094,-0.05452,-0.230907,-0.036499,31.02,66.1504684458687
2282,-8.365907,-3.601198,4.054638,-0.055589,-0.22938,-0.035888,31.04,66.0028254816647
2292,-8.346166,-3.609573,4.066004,-0.055436,-0.224951,-0.034056,31.04,65.9084582358572
2302,-8.316854,-3.606582,4.096512,-0.054062,-0.216094,-0.033903,31.02,65.6820149782274
2312,-8.303694,-3.613162,4.104289,-0.053603,-0.203876,-0.033139,31.02,65.6187513652938
2322,-8.289934,-3.60718,4.109673,-0.050855,-0.188299,-0.031765,31.02,65.5547246908775
2332,-8.275578,-3.60718,4.129414,-0.047953,-0.170279,-0.029932,31.02,65.4195645771876
2342,-8.266603,-3.609573,4.144369,-0.044288,-0.149204,-0.027794,31.01,65.3236161308087
2352,-8.261221,-3.599404,4.161119,-0.040623,-0.126602,-0.026267,31.01,65.2140696812614
2362,-8.243872,-3.604787,4.161119,-0.029932,-0.075747,-0.021228,31.01,65.1807601805
2372,-8.238488,-3.618546,4.165306,-0.025045,-0.048411,-0.018784,31.04,65.1602353167028
2382,-8.24148,-3.61735,4.164708,-0.018021,-0.021533,-0.013592,31.04,65.1688524569421
2392,-8.249854,-3.608975,4.154539,-0.011454,0.005498,-0.009163,31.03,65.2326270560394
2402,-8.263614,-3.606582,4.158726,-0.005803,0.03146,-0.00504,31.03,65.2388535191024
2412,-8.274381,-3.6006,4.154539,0.001374,0.05681,-0.001069,31.02,65.2788521387665
2422,-8.279166,-3.591627,4.145566,0.007789,0.079718,0.003971,31.02,65.3278366355333
2432,-8.306684,-3.595216,4.126423,0.014661,0.102014,0.008094,30.98,65.4921685714364
2442,-8.319246,-3.582056,4.118646,0.021533,0.121409,0.012217,30.98,65.5480064611655
2452,-8.342576,-3.577868,4.121039,0.028558,0.138361,0.016799,31.02,65.5825462812947
2462,-8.368897,-3.569493,4.106084,0.029627,0.157451,0.01909,31.02,65.7103173851136
2472,-8.383853,-3.583252,4.069593,0.032834,0.173028,0.020769,31.04,65.9464053177134
2482,-8.401799,-3.556931,4.082754,0.036957,0.183718,0.023213,31.04,65.8920271054404
2492,-8.425727,-3.576672,4.036094,0.03711,0.19395,0.024282,31,66.2055229748432
2502,-8.452645,-3.555136,4.061816,0.03879,0.198989,0.026573,31,66.1088969961378
2512,-8.459825,-3.562913,4.000201,0.037721,0.202196,0.026725,31.03,66.4535796443167
2522,-8.473583,-3.557529,3.973282,0.039248,0.20128,0.028558,31.03,66.6190221829368
2532,-8.500502,-3.555735,3.999603,0.035583,0.193339,0.029627,31.02,66.5358441191797
2542,-8.520842,-3.556931,3.958925,0.030696,0.186161,0.029322,31.05,66.792318347395
2552,-8.534599,-3.550351,3.974478,0.0281,0.17654,0.0281,31.05,66.7337357722775
2562,-8.539386,-3.56411,3.9338,0.022449,0.16585,0.025504,31.02,66.9685421552688
2572,-8.556136,-3.559324,3.955934,0.020311,0.153785,0.023213,31.02,66.8830145023051
2582,-8.562119,-3.564708,3.92722,0.015272,0.140652,0.020311,31,67.0502032930575
2592,-8.565707,-3.569493,3.936791,0.012981,0.12706,0.017562,31,67.0115265144686
2602,-8.572886,-3.575475,3.922434,0.006872,0.111788,0.013439,31.03,67.1064449489217
2612,-8.569895,-3.574279,3.924229,0.004581,0.098655,0.010232,31.03,67.0899244572072
2622,-8.577072,-3.582056,3.930809,0.000916,0.082925,0.00672,31.02,67.0767726541053
2632,-8.569895,-3.585645,3.923033,-0.002138,0.067806,0.001985,31.02,67.1058740600938
2642,-8.576474,-3.586243,3.918247,-0.00504,0.054367,-0.002138,31.02,67.1448354495762
2652,-8.556136,-3.592225,3.930809,-0.008552,0.040775,-0.007025,31.02,67.0427068346313
2662,-8.560921,-3.609573,3.92064,-0.010385,0.028253,-0.011606,31,67.1205925765456
2672,-8.550154,-3.597609,3.924229,-0.012217,0.01573,-0.017104,31,67.0695656030758
2682,-8.557931,-3.604189,3.947559,-0.014508,0.003971,-0.02138,31.03,66.969063401887
2692,-8.55135,-3.608975,3.936791,-0.017562,-0.007636,-0.025198,31.03,67.0160309117513
2702,-8.535797,-3.615555,3.952943,-0.017715,-0.016952,-0.033292,31.05,66.9053757394754
2712,-8.532805,-3.635296,3.929613,-0.022755,-0.03879,-0.036957,31,67.0385197265572
2722,-8.529217,-3.615555,3.958327,-0.023824,-0.048869,-0.040164,31,66.8636927873925
2732,-8.532208,-3.635296,3.936193,-0.027642,-0.060018,-0.041844,31.02,67.0028464898636
2742,-8.519047,-3.616153,3.960122,-0.029169,-0.071624,-0.04444,31.02,66.8338817045194
2752,-8.519646,-3.636492,3.947559,-0.033139,-0.083536,-0.046884,31.04,66.91866786299
2762,-8.504689,-3.618546,3.963113,-0.035277,-0.094379,-0.049022,31.04,66.7906943510563
2772,-8.493324,-3.626323,3.954738,-0.039095,-0.105527,-0.050244,31,66.8179483367123
2782,-8.499306,-3.627519,3.956532,-0.040928,-0.115912,-0.051465,31,66.8219464079987
2792,-8.482555,-3.62393,3.963711,-0.04444,-0.127213,-0.05116,31.04,66.7465150322209
2802,-8.478967,-3.622734,3.979862,-0.047342,-0.13775,-0.051313,31.04,66.6533652903063
2812,-8.458628,-3.617948,3.981059,-0.049175,-0.148593,-0.050396,31.04,66.6004613587566
2822,-8.435897,-3.623332,3.981059,-0.052229,-0.158825,-0.048564,31.04,66.5577776100604
2832,-8.426923,-3.614957,3.988237,-0.053298,-0.166461,-0.046426,31.02,66.4937147476349
2842,-8.412566,-3.617948,3.998407,-0.054825,-0.172264,-0.043066,31.02,66.4127703407139
2852,-8.392226,-3.608377,4.019942,-0.055131,-0.175471,-0.040928,31.04,66.2478621004727
2862,-8.363514,-3.614957,4.021737,-0.055283,-0.176845,-0.036957,31.04,66.1833512240642
2872,-8.350951,-3.608975,4.045665,-0.054672,-0.174707,-0.032681,31.06,66.0250667670311
2882,-8.340183,-3.601796,4.069593,-0.050244,-0.162948,-0.022755,31.02,65.8694482641841
2892,-8.316854,-3.621537,4.039683,-0.047189,-0.151189,-0.017104,31.02,65.9949870290887
2902,-8.302496,-3.595216,4.08754,-0.039706,-0.137903,-0.011301,31.04,65.687149931714
2912,-8.289934,-3.605984,4.069593,-0.03711,-0.121868,-0.003971,31.04,65.7644529126943
2922,-8.272586,-3.608975,4.095316,-0.031001,-0.105222,0.002902,31.02,65.5939494549851
2932,-8.285748,-3.589234,4.102495,-0.023824,-0.085216,0.010537,31.02,65.5662094545634
2942,-8.273185,-3.602993,4.092923,-0.018326,-0.062461,0.016799,31.03,65.6021513241652
2952,-8.268398,-3.594618,4.096512,-0.010079,-0.042455,0.024282,31.03,65.5647644054101
2962,-8.274979,-3.584448,4.110869,-0.001527,-0.022449,0.032529,31.02,65.493953865205
2972,-8.276773,-3.580859,4.121637,0.005803,-0.000153,0.040775,31.02,65.4378651721213
2982,-8.283952,-3.573082,4.110271,0.011912,0.021533,0.0478,31.06,65.5060326008751
2992,-8.294122,-3.578466,4.11386,0.020006,0.04215,0.054672,31.06,65.5146320109159
3002,-8.303694,-3.568895,4.104887,0.027184,0.062003,0.062003,31.04,65.5737414162675
3012,-8.327023,-3.574279,4.101896,0.034361,0.079871,0.068264,31.04,65.6455474986326
3022,-8.339585,-3.563511,4.092923,0.041233,0.096211,0.073915,31.03,65.7099751290238
3032,-8.359925,-3.562913,4.079165,0.048411,0.111177,0.076816,31.03,65.8258148772926
3042,-8.420342,-3.550949,4.066004,0.053909,0.124311,0.080023,31,66.0141253564102
3052,-8.42453,-3.552743,4.051647,0.057269,0.143248,0.081398,31,66.0998885098862
3062,-8.457432,-3.544966,4.03729,0.065973,0.148746,0.078954,30.99,66.2382311558705
3072,-8.475378,-3.540779,4.017549,0.069791,0.152869,0.0759,30.99,66.3758882321846
3082,-8.505887,-3.514458,4.065406,0.072235,0.154396,0.072082,30.99,66.167445699113
3092,-8.528021,-3.513262,4.063013,0.061697,0.156229,0.065057,31.01,66.225842153703
3102,-8.546564,-3.557529,3.981059,0.054825,0.155007,0.058643,31.01,66.7303641015261
3112,-8.559725,-3.510271,4.053442,0.055436,0.149509,0.051313,31.03,66.3399834118443
3122,-8.57827,-3.546163,3.959523,0.045509,0.145539,0.043371,31.03,66.8986110115353
3132,-8.592029,-3.525226,4.027719,0.04215,0.136987,0.032376,31.03,66.5541167235421
3142,-8.585447,-3.54736,3.961318,0.031612,0.126755,0.023213,31.03,66.9050265566243
3152,-8.606983,-3.530011,4.012764,0.025198,0.114843,0.012981,31.02,66.6669268366858
3162,-8.606385,-3.544966,3.981059,0.015272,0.100945,0.002902,31.02,66.8431966701099
3172,-8.610572,-3.55394,3.960122,0.006414,0.084452,-0.008399,31.03,66.9683937271403
3182,-8.621939,-3.549154,3.984648,-0.00168,0.066279,-0.016035,31.03,66.8600532349108
3192,-8.609975,-3.561717,3.990032,-0.010079,0.046426,-0.026114,31.04,66.8181456750496
3202,-8.610572,-3.553342,3.971487,-0.018173,0.027794,-0.034056,31.04,66.9087096725355
3212,-8.611171,-3.557529,3.989433,-0.026878,0.00901,-0.043371,31.03,66.8201575622564
3222,-8.581859,-3.579065,3.987041,-0.033445,-0.010385,-0.060476,31.03,66.7906662124016
3232,-8.590234,-3.577868,3.968496,-0.045357,-0.045357,-0.069333,31.04,66.9034247840661
3242,-8.556136,-3.577868,3.994219,-0.050549,-0.059407,-0.078802,31.07,66.6991236858239
3252,-8.547761,-3.596412,3.997808,-0.055589,-0.072388,-0.086896,31.07,66.6791868561794
3262,-8.523234,-3.591627,4.000201,-0.05849,-0.082772,-0.092852,31.02,66.6116319942539
3272,-8.508877,-3.598207,3.987041,-0.060934,-0.089797,-0.09896,31.02,66.6562977170096
3282,-8.488539,-3.6006,4.027719,-0.062461,-0.093004,-0.107054,31.05,66.403473404945
3292,-8.468199,-3.617948,4.011567,-0.065821,-0.0956,-0.110261,31.05,66.4606867775684
3302,-8.444869,-3.605386,4.021138,-0.064599,-0.09499,-0.114079,31,66.3502937773143
3312,-8.411968,-3.614957,4.034299,-0.065668,-0.093921,-0.114843,31,66.2204380679948
3322,-8.392825,-3.626323,4.009174,-0.065821,-0.091019,-0.114385,31.04,66.3221198131649
3332,-8.368299,-3.627519,4.033103,-0.062461,-0.084605,-0.112705,31.04,66.1453759478994
3342,-8.346166,-3.622734,4.034299,-0.060628,-0.079565,-0.108123,31.02,66.0873731732013
3352,-8.339585,-3.6341,4.018147,-0.058338,-0.073762,-0.101098,31.02,66.1689351895285
3362,-8.315658,-3.627519,4.037888,-0.055131,-0.068111,-0.094073,31.01,66.0074843834861
3372,-8.3013,-3.643671,4.03071,-0.051924,-0.06185,-0.083994,31.01,66.0296722346507
3382,-8.279764,-3.625725,4.016951,-0.046273,-0.054672,-0.071624,31,66.0391252598725
3392,-8.28455,-3.61376,4.041477,-0.042761,-0.049327,-0.058643,31,65.9084705567165
3402,-8.279166,-3.631706,3.999603,-0.032834,-0.035125,-0.029474,31.02,66.1353666437098
3412,-8.287541,-3.60718,4.039683,-0.026267,-0.025962,-0.014355,31.03,65.9182169960251
3422,-8.286943,-3.627519,4.006782,-0.021991,-0.014661,-0.001985,31.03,66.110098640878
3432,-8.28455,-3.609573,4.03071,-0.016035,-0.00336,0.010385,31.01,65.9614305198839
3442,-8.296515,-3.625126,4.016353,-0.011454,0.011148,0.022297,31.01,66.0777759119107
3452,-8.316854,-3.614359,4.025326,-0.005498,0.023518,0.03375,31.02,66.0639993314314
3462,-8.321639,-3.622734,4.01396,-0.002443,0.037415,0.04383,31.02,66.1420798213912
3472,-8.347363,-3.6006,4.01396,0.002291,0.048411,0.052076,31.03,66.1765991091062
3482,-8.349156,-3.605386,4.009772,0.005192,0.059101,0.060323,31.03,66.2069336512629
3492,-8.376076,-3.603591,4.018147,0.008552,0.068111,0.068417,30.96,66.218569521295
3502,-8.373085,-3.597011,4.000201,0.011606,0.076664,0.073609,30.96,66.3007003758065
3512,-8.4012,-3.591627,3.998407,0.014355,0.083994,0.078191,31.05,66.3649118125567
3522,-8.413164,-3.600002,3.992425,0.016799,0.090561,0.081092,31.05,66.4292468228665
3532,-8.452645,-3.589234,3.991228,0.018479,0.094379,0.082161,31.05,66.5089677905816
3542,-8.474181,-3.597609,3.972684,0.0197,0.100945,0.082009,31.05,66.6587584016433
3552,-8.48136,-3.586841,3.988835,0.022449,0.104,0.078649,31.01,66.5795424720365
3562,-8.534599,-3.585645,3.966104,0.022449,0.106901,0.075136,31.01,66.8080949652766
3572,-8.52443,-3.580859,3.96072,0.023976,0.107054,0.064141,31.03,66.8110958325068
3582,-8.540583,-3.581457,3.96072,0.024893,0.104763,0.057116,31.05,66.8449753725999
3592,-8.549556,-3.586841,3.958925,0.025198,0.102473,0.050244,31.05,66.8775013118206
3602,-8.556733,-3.586841,3.946362,0.024435,0.09896,0.041692,31.04,66.957927850074
3612,-8.575278,-3.57727,3.946961,0.024282,0.092546,0.031612,31.04,66.9846045395965
3622,-8.578867,-3.582056,3.944568,0.024129,0.085216,0.022449,31.05,67.0085363297353
3632,-8.587841,-3.569493,3.946362,0.023366,0.076053,0.013744,31.05,67.0068185707038
3642,-8.584252,-3.586243,3.91406,0.022144,0.065973,0.004123,31.02,67.1825608219873
3652,-8.59442,-3.582654,3.948158,0.023366,0.054214,-0.003971,31.02,67.022085427874
3662,-8.584252,-3.584448,3.920042,0.019853,0.040317,-0.011301,31.07,67.1497425332873
3672,-8.571091,-3.577868,3.940381,0.019395,0.027336,-0.018479,31.07,67.0109293130548
3682,-8.580065,-3.579065,3.9338,0.016341,0.012828,-0.026114,31.03,67.0646961057576
3692,-8.566903,-3.584448,3.929015,0.014661,-0.002443,-0.031612,31.03,67.0674385501593
3702,-8.547761,-3.580859,3.934398,0.011301,-0.01741,-0.03543,31.05,66.9969996210394
3712,-8.550154,-3.595814,3.923033,0.009316,-0.030849,-0.038179,31.05,67.0742894163603
3722,-8.532805,-3.574279,3.958925,0.008094,-0.045968,-0.042302,31.03,66.8320994243032
3732,-8.529217,-3.582654,3.960122,0.003207,-0.060934,-0.042761,31.03,66.825678850284
3743,-8.496315,-3.592823,3.939782,0.000153,-0.087965,-0.041233,31.06,66.8732106672851
3752,-8.492128,-3.585046,3.976871,-0.006414,-0.103236,-0.038637,31.01,66.6631144701353
3762,-8.478967,-3.588037,3.961916,-0.010843,-0.119882,-0.033903,31.01,66.7167944216804
3772,-8.451449,-3.58744,3.993621,-0.013592,-0.133779,-0.028405,31.08,66.4922982808
3782,-8.465807,-3.603591,3.970889,-0.017715,-0.150884,-0.020006,31.08,66.6560250892744
3792,-8.448458,-3.580859,4.017549,-0.0197,-0.161879,-0.016493,31.05,66.3546468067037
3802,-8.445468,-3.593421,4.002594,-0.023518,-0.171959,-0.010843,31.05,66.4379902836201
3812,-8.445468,-3.588037,4.027121,-0.025962,-0.176693,-0.007025,31.06,66.304630366568
3822,-8.42812,-3.585046,4.043272,-0.029169,-0.17822,-0.004887,31.06,66.1805827419264
3832,-8.420342,-3.603591,4.052843,-0.032376,-0.176998,-0.002902,31.04,66.1307801244043
3842,-8.400003,-3.597609,4.074379,-0.034361,-0.171806,-0.002443,31.04,65.9692165444735
3852,-8.408379,-3.589832,4.082754,-0.036957,-0.166766,-0.001985,31.03,65.9362675510803
3862,-8.365907,-3.679563,4.144967,-0.038485,-0.159894,-0.002291,31.03,65.6042775159536
3872,-8.349156,-3.593421,4.240082,-0.024129,-0.144011,-0.014355,31.07,64.992102385004
3882,-8.377871,-3.611966,4.061218,-0.021838,-0.13042,-0.019395,31.07,66.0039156226813
3892,-8.379665,-3.616751,4.080959,-0.014813,-0.120951,-0.021228,31.04,65.9088160033309
3902,-8.349156,-3.529413,4.084548,-0.01405,-0.109803,-0.019853,31.04,65.743230085262
3912,-8.340781,-3.572484,4.162315,-0.021228,-0.100182,-0.018784,31.03,65.3578864535596
3922,-8.343175,-3.598207,4.122235,-0.021228,-0.074067,-0.018173,30.98,65.5966742077665
3932,-8.329416,-3.574877,4.155735,-0.020922,-0.058185,-0.01909,30.98,65.3694861064383
3942,-8.321041,-3.582056,4.147958,-0.021075,-0.041997,-0.018479,31.05,65.3984923953726
3952,-8.324032,-3.591029,4.14078,-0.018937,-0.025045,-0.01909,31.05,65.4510843924661
3962,-8.320443,-3.580859,4.146762,-0.019395,-0.007025,-0.019548,31.04,65.4022982958443
3972,-8.309675,-3.585645,4.139583,-0.017562,0.011606,-0.020159,31.04,65.4207197304645
3982,-8.303694,-3.57069,4.150351,-0.015119,0.030696,-0.020311,31.05,65.3369720260137
3992,-8.297711,-3.582654,4.137789,-0.011301,0.049022,-0.020006,31.05,65.4009457533857
4002,-8.313862,-3.574279,4.135396,-0.007941,0.067806,-0.018784,31.03,65.4410873747061
4012,-8.316256,-3.574279,4.109673,-0.004276,0.086896,-0.018479,31.03,65.5811996671584
4022,-8.319845,-3.564708,4.135396,0.000764,0.105374,-0.016952,31.04,65.4452111250543
4032,-8.329416,-3.571886,4.097709,0.004429,0.123547,-0.01573,31.04,65.6705032470472
4042,-8.330612,-3.568895,4.102495,0.010232,0.139888,-0.013592,31.01,65.6451991125266
4052,-8.346764,-3.57069,4.092325,0.014966,0.155923,-0.011606,31.01,65.7354140184725
4062,-8.356335,-3.559324,4.073183,0.020617,0.171042,-0.00901,31.01,65.8461262970817
4072,-8.366504,-3.573681,4.061218,0.026267,0.184787,-0.005192,31.01,65.9441762542325
4082,-8.401799,-3.557529,4.038486,0.030391,0.194561,-0.002749,31,66.1246048045335
4092,-8.422735,-3.56052,4.009174,0.040012,0.209679,0.003818,31,66.3259050806269
4102,-8.442476,-3.549752,4.016951,0.044288,0.214414,0.006872,31.01,66.3173220491778
4112,-8.453843,-3.546163,3.978666,0.047037,0.216094,0.009927,31.02,66.5392688238627
4122,-8.480762,-3.554538,3.978068,0.051007,0.215788,0.011454,31.02,66.6062982251089
4134,-8.493923,-3.557529,3.964309,0.053145,0.212123,0.012523,31.02,66.7086300468246
4142,-8.516654,-3.562315,3.936791,0.053756,0.204793,0.013592,31.02,66.9044332654928
4152,-8.543573,-3.564708,3.937988,0.054062,0.195171,0.014203,31,66.9557145413639
4162,-8.559725,-3.559922,3.915854,0.052382,0.182343,0.014813,31,67.1008034690236
4172,-8.586643,-3.555136,3.930809,0.051465,0.166766,0.014203,31.01,67.0734580308195
4182,-8.589037,-3.572484,3.908676,0.049327,0.147524,0.01237,31.01,67.208808846677
4192,-8.599805,-3.576672,3.900899,0.04612,0.12706,0.009774,31.04,67.2748788666668
4202,-8.600404,-3.568895,3.901497,0.043066,0.105985,0.007483,31.04,67.266420073076
4212,-8.617152,-3.574877,3.898506,0.036499,0.082161,0.004734,31.01,67.3209481337153
4222,-8.611769,-3.582654,3.888935,0.03207,0.058185,0.000458,31.01,67.3666726832145
4232,-8.607581,-3.578466,3.896712,0.027947,0.032834,-0.003665,31.03,67.3140180546785
4242,-8.602198,-3.57727,3.887738,0.021533,0.006567,-0.007636,31.03,67.3491253804063
4252,-8.606983,-3.601198,3.912265,0.016188,-0.020006,-0.012217,31.02,67.2506584775264
4262,-8.596216,-3.600002,3.921238,0.009468,-0.071166,-0.020464,31.02,67.1809906349852
4272,-8.563912,-3.594618,3.934398,-0.002138,-0.096211,-0.023366,31.06,67.0418724799894
4282,-8.55135,-3.610171,3.932006,-0.007941,-0.121715,-0.025809,31.04,67.0421007809071
4292,-8.550154,-3.6006,3.956532,-0.011454,-0.142637,-0.028253,31.04,66.9031269542098
4302,-8.533404,-3.609573,3.967898,-0.016493,-0.160658,-0.031765,31.04,66.8170639144245
4312,-8.508279,-3.604787,3.979862,-0.020769,-0.17318,-0.036041,31.04,66.6983793513932
4322,-8.487342,-3.595216,3.995416,-0.024129,-0.184023,-0.039554,31.05,66.5649896595316
4332,-8.469995,-3.615555,4.003192,-0.026878,-0.189215,-0.041997,31.05,66.5061178160628
4342,-8.453244,-3.625725,4.032505,-0.028711,-0.190743,-0.045968,31.01,66.3268243656993
4352,-8.433504,-3.62393,4.030112,-0.03146,-0.188605,-0.049327,31.01,66.2960994029797
4362,-8.418548,-3.619144,4.053442,-0.033139,-0.184481,-0.051771,31.05,66.1380191373985
4372,-8.402995,-3.644269,4.037888,-0.034208,-0.178373,-0.053603,31.05,66.2094394706353
4382,-8.391629,-3.623332,4.063013,-0.031612,-0.167683,-0.054978,31.02,66.0344372851318
4392,-8.364112,-3.602993,4.116253,-0.033292,-0.156382,-0.056352,31.02,65.6779328633136
4402,-8.367702,-3.637689,4.070789,-0.036957,-0.144317,-0.055589,31.02,65.9558428571099
4412,-8.352147,-3.619144,4.08754,-0.032529,-0.131336,-0.054825,31.02,65.8173454082574
4422,-8.333005,-3.597609,4.081557,-0.032681,-0.11805,-0.052076,31.04,65.7871703684963
4432,-8.316854,-3.598207,4.123432,-0.03375,-0.105222,-0.045051,31.04,65.5329482620119
4442,-8.321041,-3.626323,4.092325,-0.031612,-0.077122,-0.039859,31.06,65.7317207362633
4452,-8.322237,-3.591627,4.114459,-0.029016,-0.063683,-0.034819,30.97,65.5855156722353
4462,-8.30788,-3.6006,4.102495,-0.0281,-0.050244,-0.029322,30.97,65.6253995617825
4472,-8.313264,-3.585046,4.11745,-0.025962,-0.036805,-0.023976,31,65.5439998383963
4482,-8.324032,-3.598207,4.106084,-0.025045,-0.024435,-0.017257,31,65.6395359851602
4492,-8.327023,-3.58744,4.095316,-0.022907,-0.012065,-0.012065,31.04,65.692417324656
4502,-8.32463,-3.57727,4.106682,-0.020464,0.001069,-0.006414,31.04,65.6180161723007
4512,-8.336594,-3.574877,4.091129,-0.018784,0.014355,-0.001374,30.98,65.7234717704027
4522,-8.333604,-3.574877,4.085745,-0.016035,0.028253,0.004429,30.98,65.7452364266513
4532,-8.346764,-3.575475,4.09711,-0.012675,0.041692,0.009774,31.08,65.7147751353788
4542,-8.353942,-3.576073,4.074379,-0.010079,0.055283,0.013744,31.08,65.8501511541312
4552,-8.346166,-3.573082,4.085745,-0.006872,0.067806,0.019395,31,65.7708620402598
4562,-8.356933,-3.564708,4.066004,-0.004276,0.080634,0.024282,31,65.890100243791
4572,-8.365308,-3.566502,4.074379,0,0.093004,0.028405,30.99,65.8658934783731
4582,-8.374281,-3.569493,4.061816,0.00336,0.106596,0.030696,30.99,65.9539458777473
4592,-8.391031,-3.559922,4.05404,0.00733,0.119882,0.033598,31.05,66.022039274471
4602,-8.398808,-3.564708,4.039683,0.011148,0.132405,0.036041,31.05,66.1184317997557
4612,-8.41137,-3.556931,4.027121,0.019395,0.151342,0.040623,31.05,66.2042008622826
4622,-8.417951,-3.571288,4.029513,0.023366,0.159283,0.04215,31.04,66.2186249196723
4632,-8.425129,-3.567699,4.034897,0.027489,0.166461,0.042608,31.04,66.202428872846
4642,-8.458031,-3.561118,3.991827,0.029474,0.173028,0.043219,31.02,66.4921554212258
4652,-8.471789,-3.569493,3.99063,0.033903,0.175013,0.042913,31.02,66.534757812317
4662,-8.479566,-3.562315,4.010371,0.038026,0.176387,0.041233,31.02,66.4413231322596
4672,-8.498708,-3.568895,3.966104,0.038485,0.177151,0.040317,31.02,66.719102924964
4682,-8.513064,-3.566502,3.965506,0.041081,0.174707,0.036346,31.02,66.7499923927185
4692,-8.530412,-3.568895,3.966702,0.04215,0.171653,0.032681,31.02,66.7817824247715
4702,-8.544172,-3.559922,3.9338,0.042302,0.166766,0.027642,31,66.9747949285704
4712,-8.553743,-3.565306,3.942773,0.043219,0.15852,0.020617,31,66.9520802722903
4722,-8.56451,-3.568895,3.934997,0.041997,0.148746,0.015119,31.01,67.0179516427728
4732,-8.579466,-3.568297,3.919443,0.040164,0.136681,0.008705,31.01,67.1294251440997
4742,-8.581859,-3.57727,3.917051,0.037721,0.124006,0.00168,31.02,67.1544300853045
4752,-8.586046,-3.568297,3.917051,0.03375,0.107818,-0.006414,31.02,67.1553507245849
4762,-8.603992,-3.574279,3.894917,0.029932,0.089797,-0.014203,31.02,67.3126460800055
4772,-8.603992,-3.57727,3.904488,0.025504,0.070097,-0.020311,31.02,67.2650780678944
4782,-8.602198,-3.57727,3.888337,0.021533,0.024435,-0.033292,31,67.3459879596656
4792,-8.593822,-3.589234,3.892524,0.009927,-0.000611,-0.03879,31.04,67.317214056528
4802,-8.602198,-3.579065,3.899703,0.004429,-0.026114,-0.043982,31.04,67.2879927259682
4812,-8.590234,-3.58385,3.910471,0,-0.052229,-0.048869,31,67.2114549323984
4822,-8.581859,-3.595216,3.900301,-0.005956,-0.078343,-0.050855,31,67.257349478462
4832,-8.571091,-3.59402,3.911069,-0.010843,-0.102625,-0.054672,31.04,67.1780907138632
4842,-8.552546,-3.589234,3.92722,-0.016035,-0.126296,-0.05681,31.04,67.0515926099028
4852,-8.539985,-3.607778,3.921836,-0.02138,-0.146913,-0.058032,30.96,67.0700911765434
4862,-8.517252,-3.591029,3.948158,-0.025504,-0.165392,-0.060476,30.96,66.8709233213323
4872,-8.500502,-3.601796,3.946961,-0.028405,-0.180053,-0.060628,31.04,66.852017517425
4882,-8.489137,-3.592823,3.980461,-0.032376,-0.191354,-0.060781,31.04,66.6449216834458
4892,-8.483753,-3.607778,3.981059,-0.035736,-0.199295,-0.060781,31.04,66.6437893113517
4902,-8.453244,-3.608975,4.016353,-0.036957,-0.203571,-0.060476,31.04,66.396208718549
4912,-8.432905,-3.610171,4.024727,-0.039859,-0.206472,-0.057879,31.05,66.3105650100696
4922,-8.395817,-3.62393,4.02413,-0.040623,-0.204487,-0.056047,31.05,66.2477108274193
4932,-8.374281,-3.607778,4.045665,-0.040775,-0.201738,-0.052076,31.02,66.0739530866662
4942,-8.359326,-3.611368,4.067201,-0.040012,-0.19563,-0.047495,31.02,65.9321789724056
4952,-8.322237,-3.62393,4.07737,-0.039401,-0.185856,-0.036957,31.05,65.8105543710008
4962,-8.322237,-3.615555,4.089932,-0.034514,-0.159436,-0.032681,31.02,65.736708659925
4972,-8.307282,-3.622734,4.107878,-0.032529,-0.144317,-0.02642,31.02,65.6168339885386
4982,-8.297711,-3.616153,4.119244,-0.029169,-0.127365,-0.021533,31.04,65.5300666773224
4992,-8.303095,-3.617948,4.102495,-0.026725,-0.108276,-0.015577,31.04,65.6314060265751
5002,-8.289336,-3.6006,4.125825,-0.020922,-0.088575,-0.009163,31.04,65.4623534270704
5012,-8.291729,-3.61735,4.10728,-0.018326,-0.067348,-0.004123,31.04,65.5809095808064
5022,-8.288737,-3.598805,4.134199,-0.014355,-0.046578,-0.000153,31.05,65.415403111908
5032,-8.288737,-3.601796,4.132405,-0.010385,-0.025504,0.005192,31.05,65.4276673610009
5042,-8.283952,-3.602993,4.124628,-0.005345,-0.00504,0.010232,31.02,65.4590904171395
5052,-8.301898,-3.6006,4.129414,-0.001985,0.016188,0.014203,31.02,65.4711129368779
5062,-8.315059,-3.582654,4.127021,0.001985,0.037721,0.016341,31.01,65.4955049805152
5072,-8.325827,-3.582056,4.107878,0.005192,0.058796,0.019242,31.01,65.6188514185782
5082,-8.3348,-3.584448,4.113262,0.009927,0.078038,0.021838,31.02,65.6124612936428
5092,-8.35155,-3.58385,4.100101,0.012981,0.096211,0.023671,31.02,65.7173042626708
5102,-8.35454,-3.581457,4.086941,0.016493,0.111941,0.025045,31.01,65.7905331163289
5112,-8.371889,-3.5671,4.068397,0.018479,0.126449,0.026267,31.01,65.9120507622055
5122,-8.410771,-3.565904,4.059424,0.021686,0.139735,0.026878,30.97,66.0416126645343
5132,-8.41436,-3.558127,4.052245,0.024282,0.160505,0.026114,31.01,66.0798582130775
5142,-8.436494,-3.567699,4.028317,0.024893,0.168599,0.025351,31.01,66.2610834586068
5152,-8.467602,-3.556931,4.036692,0.027031,0.173486,0.024282,31,66.2735910087097
5162,-8.463414,-3.562315,4.011567,0.027031,0.17654,0.022602,31,66.4010278274528
5172,-8.481958,-3.557529,4.012764,0.027947,0.176845,0.020464,31.02,66.4296048327161
5182,-8.493324,-3.561717,3.985246,0.027031,0.176998,0.017562,31.02,66.6012392423067
5192,-8.512466,-3.558726,3.999603,0.027031,0.174097,0.016035,31.02,66.5635030373998
5202,-8.523833,-3.571288,3.966104,0.025198,0.169515,0.012981,31.02,66.7733588801293
5212,-8.536993,-3.558726,3.970291,0.024435,0.163101,0.010232,31.02,66.7678406786759
5222,-8.537591,-3.571288,3.962514,0.023518,0.154549,0.005345,31.02,66.820619675271
5232,-8.556733,-3.565306,3.957729,0.022755,0.143859,0.002749,31.05,66.8799914845632
5242,-8.55434,-3.583252,3.924827,0.020006,0.132252,-0.000916,31.05,67.062668753979
5252,-8.559725,-3.568895,3.940979,0.020006,0.119882,-0.004581,31.04,66.9768321728004
5262,-8.566306,-3.573681,3.915256,0.016646,0.106291,-0.008247,31.04,67.1290897478402
5273,-8.566306,-3.574279,3.924827,0.016952,0.092241,-0.01237,31.04,67.0794618156463
5282,-8.565108,-3.573681,3.915854,0.014966,0.076969,-0.015272,31.04,67.1235115053706
5292,-8.553144,-3.58385,3.924827,0.012981,0.061239,-0.019395,31.04,67.0607350717117
5302,-8.548957,-3.582056,3.908676,0.009774,0.029474,-0.02474,31.04,67.1353396057474
5312,-8.544769,-3.596412,3.926622,0.008705,0.014813,-0.027794,31.05,67.0449890603009
5322,-8.531011,-3.595814,3.926024,0.006872,-0.000916,-0.031001,31.01,67.0194354864957
5332,-8.529217,-3.597011,3.91406,0.004581,-0.016188,-0.032223,31.01,67.0795846056244
5342,-8.525627,-3.603591,3.909274,0.002902,-0.030085,-0.034056,31.05,67.1030605179619
5352,-8.499905,-3.592225,3.95055,0.001527,-0.043677,-0.034514,31.05,66.823577957026
5362,-8.496315,-3.605386,3.919443,-0.000305,-0.058338,-0.033292,31.02,66.9910845601052
5372,-8.475977,-3.597011,3.949952,-0.001222,-0.070402,-0.033445,31.02,66.781332437236
5382,-8.478967,-3.615555,3.948756,-0.003818,-0.084299,-0.032376,31.03,66.8101616339949
5392,-8.480762,-3.6006,3.954139,-0.005803,-0.09499,-0.030696,31.03,66.7724258855685
5402,-8.456235,-3.604787,3.967898,-0.007789,-0.104458,-0.029627,31.05,66.6528341435098
5412,-8.449656,-3.608377,3.984648,-0.009621,-0.112246,-0.0281,31.05,66.55432547077
5422,-8.447262,-3.61735,3.972086,-0.011759,-0.118813,-0.026878,31.01,66.6233075555824
5432,-8.435897,-3.597011,3.995416,-0.012217,-0.122326,-0.02474,31.01,66.4587359213646
5442,-8.422137,-3.611368,3.999005,-0.014661,-0.123853,-0.023976,31.05,66.4238421555011
5452,-8.425727,-3.591029,4.001398,-0.016341,-0.125075,-0.022755,31.05,66.4005072183288
5462,-8.421539,-3.59043,4.012764,-0.018326,-0.123242,-0.022144,31.04,66.3314263762563
5472,-8.413763,-3.602993,4.02413,-0.018784,-0.115912,-0.019242,31.04,66.2666777335435
5482,-8.395219,-3.606582,4.026522,-0.020311,-0.110261,-0.018937,31,66.2180202527665
5492,-8.409575,-3.599404,4.035496,-0.021075,-0.104611,-0.017104,31,66.1949135374604
5502,-8.407183,-3.598805,4.052843,-0.021533,-0.097738,-0.016952,31,66.0983755570601
5512,-8.395219,-3.6006,4.046861,-0.021991,-0.090561,-0.016188,31.05,66.1058294774177
5522,-8.402995,-3.58385,4.052245,-0.021533,-0.081856,-0.015272,31.05,66.0789146720059
5532,-8.397013,-3.593421,4.061218,-0.02138,-0.072693,-0.015119,31.04,66.0278532705928
5542,-8.396414,-3.582056,4.052843,-0.020311,-0.06353,-0.014966,31.04,66.0600613060314
5552,-8.407781,-3.583252,4.066004,-0.018784,-0.053451,-0.015272,31.02,66.0165556851955
5562,-8.404191,-3.588037,4.063612,-0.017104,-0.043219,-0.015424,31.02,66.0257587281114
5572,-8.395219,-3.582654,4.061218,-0.014508,-0.032529,-0.014661,31.05,66.014150456099
5582,-8.376076,-3.564708,4.09053,-0.013134,-0.021075,-0.014508,31.05,65.8028781439102
5592,-8.38445,-3.597011,4.042076,-0.011759,-0.009316,-0.015272,31.04,66.1046414769742
5602,-8.389835,-3.597609,4.031308,-0.004734,0,-0.014508,31.04,66.1732253935861
5612,-8.38146,-3.548556,4.119244,-0.000916,0.009316,-0.014966,31,65.6494845032451
5622,-8.38146,-3.595216,4.039683,-0.002291,0.021533,-0.015577,31,66.1091689019529
5632,-8.393424,-3.5671,4.049852,0.004276,0.03146,-0.015577,31.03,66.0556965916759
5642,-8.393424,-3.565306,4.064807,0.005803,0.042455,-0.013744,31.03,65.9756267388921
5652,-8.393424,-3.575475,4.048656,0.013439,0.06017,-0.012065,31.01,66.0696102723499
5662,-8.398808,-3.569493,4.046861,0.018021,0.068417,-0.011301,30.99,66.0851079488801
5672,-8.400601,-3.576073,4.046861,0.020922,0.0759,-0.009621,30.99,66.0949351541863
5682,-8.404191,-3.574279,4.042674,0.025351,0.082467,-0.008094,31.04,66.1229410505348
5692,-8.413763,-3.571288,4.044468,0.028711,0.088881,-0.005498,31.04,66.1312649726556
5702,-8.408379,-3.565306,4.027719,0.031765,0.094837,-0.003971,31.04,66.2022444867188
5712,-8.408379,-3.5671,4.030112,0.034514,0.099724,-0.001833,31.04,66.1913005936861
5722,-8.413164,-3.573082,4.027719,0.03711,0.103694,0.000916,31.02,66.2194706756783
5732,-8.423933,-3.567699,4.004987,0.04047,0.107054,0.003971,31.02,66.3568918703306
5742,-8.439486,-3.571886,4.010969,0.043677,0.109192,0.005345,30.98,66.3621529269833
5752,-8.447861,-3.5671,4.005585,0.045204,0.110261,0.007025,30.98,66.40382485637
5762,-8.460423,-3.581457,3.990032,0.045815,0.110261,0.008399,31.05,66.5246484454881
5772,-8.47119,-3.578466,3.993023,0.045968,0.108734,0.009927,31.05,66.5288941004346
5782,-8.475977,-3.579065,3.996014,0.045204,0.106443,0.009927,31.02,66.5237857738321
5792,-8.492128,-3.582654,3.966104,0.044288,0.103084,0.010079,31.02,66.7174622248097
5802,-8.495118,-3.574877,3.987041,0.043066,0.098807,0.009774,31.03,66.6071363163666
5812,-8.512466,-3.577868,3.986442,0.041081,0.092393,0.00901,31.03,66.6490602198744
5822,-8.523234,-3.591029,3.971487,0.035583,0.076511,0.007025,31.02,66.761126706344
5832,-8.526823,-3.584448,3.978666,0.032681,0.066584,0.004887,31.06,66.7252859212158
5842,-8.540583,-3.593421,3.944568,0.027184,0.05452,0.001527,31.06,66.9398350865371
5852,-8.539386,-3.59043,3.974478,0.023518,0.041692,-0.001833,31.02,66.7783716666226
5862,-8.528618,-3.597609,3.965506,0.018479,0.029627,-0.004429,31.02,66.8092721324957
5872,-8.548359,-3.601198,3.954139,0.013439,0.015577,-0.006567,31.01,66.9124643543038
5882,-8.541779,-3.588037,3.967898,0.008399,0.00168,-0.009774,31.01,66.8156142721794
5892,-8.540583,-3.595216,3.969693,0.002749,-0.013744,-0.012523,31.02,66.8099959525843
5902,-8.529815,-3.595814,3.967898,-0.002749,-0.029322,-0.015272,31.02,66.7976720011389
5912,-8.520243,-3.591627,3.979862,-0.007789,-0.045815,-0.017104,31.04,66.7116574080935
5922,-8.502296,-3.595216,3.973282,-0.012981,-0.061239,-0.019548,31.04,66.7119938720657
5932,-8.509476,-3.605386,3.984648,-0.016799,-0.076511,-0.022755,31.06,66.6763631232826
5942,-8.486743,-3.601198,4.006183,-0.020159,-0.088117,-0.025045,31.06,66.5127238993204
5952,-8.479566,-3.617948,3.994219,-0.024282,-0.098349,-0.027184,31.05,66.5751934923689
5962,-8.47119,-3.61077,4.010371,-0.027336,-0.105069,-0.029627,31.05,66.4667904413462
5972,-8.457432,-3.615555,4.02413,-0.02978,-0.109039,-0.032529,31.04,66.3702467123582
5982,-8.445468,-3.602395,4.037888,-0.032376,-0.11133,-0.036805,31.04,66.2612216804162
5992,-8.412566,-3.616153,4.048656,-0.033445,-0.107818,-0.040164,31.05,66.1476095150151
6002,-8.403594,-3.61077,4.04746,-0.034819,-0.103389,-0.040775,31.06,66.129857316694
6012,-8.395817,-3.61077,4.042674,-0.033903,-0.09728,-0.041692,31.06,66.138373345606
6022,-8.374879,-3.592225,4.080361,-0.032376,-0.089034,-0.04047,31.01,65.8789449884915
6032,-8.362915,-3.622135,4.025924,-0.033598,-0.080023,-0.03879,31.01,66.1666659378465
6042,-8.362915,-3.593421,4.063612,-0.029322,-0.070708,-0.037874,31.04,65.9420947240345
6052,-8.346166,-3.600002,4.056432,-0.028253,-0.06017,-0.034361,31.04,65.9498411908298
6062,-8.352147,-3.591627,4.075575,-0.025656,-0.050244,-0.031154,31.04,65.8544230562991
6072,-8.348558,-3.595814,4.06062,-0.02306,-0.039706,-0.027947,31.04,65.9290954227688
6082,-8.350951,-3.580261,4.064807,-0.018937,-0.027947,-0.023213,31.04,65.8978358041185
6092,-8.349156,-3.580859,4.064807,-0.014203,-0.016799,-0.018479,31.04,65.8945114966009
6102,-8.348558,-3.576672,4.045665,-0.011454,-0.003818,-0.013897,31.03,65.9900232553189
6112,-8.357532,-3.573681,4.045067,-0.007636,0.008094,-0.01069,31.03,66.0097437017479
6122,-8.350353,-3.561118,4.057031,-0.003665,0.019242,-0.006414,31.05,65.9197328009291
6135,-8.378469,-3.558726,4.040879,0.003971,0.042761,0.001527,31.04,66.063092692298
6142,-8.378469,-3.558726,4.040879,0.003971,0.042761,0.001527,31.04,66.063092692298
6152,-8.382656,-3.55394,4.016353,0.007178,0.05284,0.004276,31.04,66.1967939169451
6162,-8.405388,-3.558726,4.021138,0.010843,0.063072,0.008247,31.05,66.2245003825938
6172,-8.413164,-3.566502,4.028317,0.01573,0.081703,0.010537,31.04,66.2103849375096
6182,-8.426923,-3.566502,4.007978,0.016646,0.089644,0.011454,31.04,66.3464369383867
6192,-8.433504,-3.559922,4.009772,0.018326,0.095906,0.012675,31.07,66.3450663955112
6202,-8.452048,-3.545565,3.998407,0.019853,0.098655,0.014203,31.07,66.4312055078331
6212,-8.448458,-3.556333,3.999005,0.021533,0.099113,0.015882,30.99,66.4300397231383
6222,-8.460423,-3.556333,3.999005,0.02138,0.098349,0.016035,30.99,66.4552804119606
6232,-8.480762,-3.559922,3.982255,0.022144,0.097891,0.01573,31.05,66.5890571967436
6242,-8.495118,-3.561717,3.99063,0.023671,0.095448,0.016188,31.05,66.5767874491448
6252,-8.492725,-3.568895,3.975077,0.023976,0.092852,0.014966,31.03,66.6595834793209
6262,-8.501699,-3.563511,3.981059,0.024129,0.088881,0.012981,31.03,66.6422396260101
6272,-8.508877,-3.566502,3.975675,0.025045,0.084452,0.010537,31.02,66.6880124899929
6282,-8.509476,-3.568297,3.975675,0.02474,0.078954,0.007483,31.02,66.6908253326846
6292,-8.523833,-3.579065,3.972086,0.025351,0.073762,0.004276,31.04,66.7488113843008
6302,-8.523833,-3.57069,3.976871,0.025504,0.067959,0.001374,31.04,66.7164923989821
6312,-8.532805,-3.588636,3.948756,0.024435,0.062308,-0.002596,31.04,66.8977711332859
6322,-8.528021,-3.576073,3.997808,0.026573,0.055283,-0.007025,31.04,66.6204783326034
6332,-8.520243,-3.595814,3.976273,0.023824,0.048564,-0.011454,31.05,66.7340822768829
6342,-8.523833,-3.600002,3.9673,0.022297,0.033445,-0.020464,30.99,66.7920928924381
6352,-8.52144,-3.597011,3.987639,0.020922,0.025962,-0.023671,30.99,66.6782096975036
6362,-8.525627,-3.616153,3.951746,0.018326,0.018021,-0.027184,31.02,66.8912618545437
6372,-8.501699,-3.601796,3.986442,0.018784,0.010079,-0.032681,31.02,66.6476666743255
6382,-8.517252,-3.615555,3.961318,0.015119,0.000153,-0.033903,31,66.8233990222891
6392,-8.493923,-3.599404,3.982853,0.014966,-0.008399,-0.036194,31,66.6481631128575
6402,-8.486146,-3.60718,3.985246,0.010996,-0.020311,-0.037415,31.07,66.6263153554857
6412,-8.489137,-3.631108,3.951149,0.007941,-0.03146,-0.03879,31.07,66.832346710991
6422,-8.470592,-3.59402,4.017549,0.008094,-0.041844,-0.038637,31.01,66.4130458616985
6432,-8.469396,-3.629314,3.970291,0.002291,-0.055589,-0.037415,31.01,66.6894909559167
6442,-8.458628,-3.602395,4.008576,0.001374,-0.065668,-0.037263,31,66.4423437131174
6452,-8.455637,-3.609573,3.97388,-0.003512,-0.077427,-0.034208,31,66.6244264877295
6462,-8.453843,-3.610171,4.010371,-0.005651,-0.087965,-0.032681,31.03,66.4298587428832
6472,-8.453244,-3.614359,3.989433,-0.009316,-0.096059,-0.030696,31.03,66.542079750631
6482,-8.435897,-3.600002,4.022933,-0.010843,-0.10232,-0.028711,31.03,66.3171005083782
6492,-8.439486,-3.611966,4.006782,-0.013897,-0.106749,-0.0281,31.03,66.4200938898146
6502,-8.421539,-3.605386,4.028317,-0.016188,-0.109039,-0.027031,31.02,66.2633756551492
6512,-8.416155,-3.597609,4.036692,-0.019242,-0.109039,-0.021686,31.02,66.2010001362393
6522,-8.400003,-3.608975,4.045067,-0.023976,-0.106443,-0.020006,31.02,66.133103620967
6532,-8.395817,-3.608975,4.04387,-0.024129,-0.101709,-0.017868,31,66.1304578869336
6542,-8.386245,-3.611966,4.050451,-0.025962,-0.095295,-0.015577,31,66.0782746985924
6552,-8.382057,-3.603591,4.068995,-0.026267,-0.088423,-0.012675,31.05,65.9644105992026
6562,-8.383254,-3.614359,4.063013,-0.027336,-0.079871,-0.010537,31.05,66.0082485673095
6572,-8.368299,-3.599404,4.077968,-0.02642,-0.069944,-0.00733,31.04,65.8839460628903
6582,-8.377273,-3.591029,4.074977,-0.025351,-0.057727,-0.003818,31.04,65.9111994530842
6592,-8.367103,-3.594618,4.076771,-0.024282,-0.045662,-0.00168,31.03,65.8832070235803
6602,-8.375478,-3.588037,4.084548,-0.02306,-0.03375,0.001069,31.03,65.8544394828488
6612,-8.374879,-3.596412,4.072584,-0.021686,-0.021075,0.003971,31,65.9235559280067
6622,-8.367103,-3.584448,4.080361,-0.019242,-0.007636,0.00672,31,65.8549766011403
6632,-8.374879,-3.578466,4.092325,-0.015119,0.005192,0.008094,31.03,65.8035861550884
6642,-8.382656,-3.582056,4.086343,-0.013897,0.019853,0.009774,31.03,65.8550081410638
6652,-8.37129,-3.577868,4.075575,-0.010537,0.03375,0.010232,31.02,65.8830259680764
6662,-8.380263,-3.578466,4.065406,-0.006414,0.047342,0.010996,31.02,65.9562327939057
6672,-8.398808,-3.572484,4.055834,-0.001833,0.059101,0.011148,31.02,66.0407735094336
6682,-8.408977,-3.574877,4.045665,0.000764,0.07254,0.009927,31.02,66.118024328706
6692,-8.406584,-3.553342,4.058825,0.008858,0.093768,0.009163,31.02,66.024364582934
6702,-8.421539,-3.561717,4.02413,0.010996,0.104,0.006109,31.03,66.2458837411715
6712,-8.425727,-3.552145,4.027121,0.013744,0.110414,0.00504,31.03,66.2304959445432
6722,-8.428718,-3.57727,4.019942,0.016493,0.115454,0.004276,31.02,66.2971053639637
6732,-8.4347,-3.565306,4.019942,0.018479,0.119119,0.003971,31.02,66.2990449396111
6742,-8.438888,-3.562315,4.004987,0.020006,0.118661,0.003971,31.01,66.3837317240337
6752,-8.467602,-3.554538,3.994219,0.023518,0.11805,0.002596,31.01,66.4939211978689
6762,-8.470592,-3.557529,3.988835,0.023518,0.11637,-0.000611,31.01,66.5310965328452
6772,-8.472386,-3.568895,3.982255,0.025045,0.114537,-0.001222,31.01,66.5794162207106
6782,-8.473583,-3.556931,3.970889,0.024893,0.109956,-0.003207,31.02,66.6310675823575
6792,-8.493324,-3.556333,3.957729,0.025962,0.104305,-0.004581,31.02,66.7408878249992
6802,-8.49452,-3.555136,3.966702,0.027031,0.098349,-0.00672,31.02,66.6952259087485
6812,-8.501101,-3.569493,3.954738,0.026725,0.090866,-0.007178,31.02,66.7842323786134
6822,-8.498708,-3.562913,3.955336,0.025962,0.082925,-0.007636,31.08,66.7703891827514
6832,-8.506484,-3.56411,3.957131,0.025809,0.073915,-0.009774,31.08,66.7781626315879
6842,-8.513663,-3.558127,3.930809,0.024587,0.064904,-0.011454,31.05,66.9260635105688
6852,-8.515458,-3.566502,3.949354,0.024129,0.054367,-0.01237,31.05,66.8396438270685
6862,-8.52144,-3.583252,3.926622,0.020464,0.03375,-0.012675,31.01,66.9857919598929
6872,-8.518449,-3.559922,3.975675,0.021533,0.023366,-0.012981,31.04,66.7021994498588
6882,-8.513663,-3.575475,3.941577,0.017868,0.012065,-0.013592,31.04,66.8845221933031
6892,-8.525029,-3.577868,3.96072,0.017104,0.00168,-0.015577,31.03,66.8097373346134
6902,-8.517851,-3.58744,3.944568,0.013897,-0.009468,-0.016188,31.03,66.8878618128517
6912,-8.508877,-3.58744,3.970291,0.01237,-0.020006,-0.017257,31.01,66.7345005501693
6922,-8.507681,-3.601796,3.946362,0.008552,-0.030543,-0.018021,31.01,66.8699792993525
6932,-8.502296,-3.59402,3.985246,0.008399,-0.039401,-0.017257,31.03,66.6483204328257
6942,-8.502296,-3.613162,3.963711,0.004581,-0.048869,-0.017868,31.03,66.7778831265898
6952,-8.483154,-3.591029,3.985844,0.003665,-0.056963,-0.019242,31.02,66.602660789093
6962,-8.478369,-3.606582,3.985246,-0.000916,-0.066279,-0.018937,31.02,66.6095799360886
6972,-8.471789,-3.610171,3.985246,-0.002138,-0.073762,-0.019242,31.04,66.5990432660388
6982,-8.467003,-3.594618,4.002594,-0.004581,-0.081551,-0.018631,31.04,66.4843094146094
6992,-8.454441,-3.602395,4.010969,-0.006567,-0.089492,-0.016799,31.03,66.4210123165786
7002,-8.450253,-3.595814,4.017549,-0.008094,-0.096669,-0.015882,31.03,66.3718362297907
7012,-8.440681,-3.60718,4.015755,-0.009621,-0.101862,-0.016493,31.02,66.3712734065955
7022,-8.432307,-3.601198,4.036692,-0.011148,-0.103389,-0.016799,31.02,66.2385325837659
7032,-8.429914,-3.596412,4.041477,-0.014203,-0.09896,-0.020159,31.01,66.2040789498372
7042,-8.419745,-3.595814,4.051647,-0.016646,-0.095906,-0.021533,31.05,66.1286885053118
7052,-8.410771,-3.604787,4.052245,-0.018173,-0.091324,-0.022449,31.05,66.1146195267614
7062,-8.400003,-3.604787,4.051049,-0.01909,-0.085674,-0.024587,31.03,66.0979234022136
7072,-8.408379,-3.594618,4.070191,-0.020617,-0.079871,-0.024893,31.03,66.006319356378
7082,-8.392825,-3.589832,4.063612,-0.02138,-0.072846,-0.025504,31.04,66.003050259449
7092,-8.382057,-3.601796,4.069593,-0.021991,-0.06521,-0.025809,31.04,65.9596223098649
7102,-8.380861,-3.604189,4.07737,-0.022907,-0.056963,-0.024129,30.99,65.9185397061484
7112,-8.387442,-3.592823,4.068995,-0.022755,-0.048411,-0.024282,30.99,65.9660506706086
7122,-8.387442,-3.586841,4.072584,-0.021838,-0.038332,-0.022755,31.04,65.941753132951
7132,-8.382656,-3.592823,4.083352,-0.021686,-0.028863,-0.021686,31.04,65.8805933688213
7142,-8.376674,-3.589234,4.078567,-0.020464,-0.018631,-0.021228,31,65.8894463040331
7152,-8.379066,-3.572484,4.066602,-0.019548,-0.007636,-0.0197,31,65.9418889520656
7162,-8.379665,-3.586243,4.061218,-0.018021,0.002596,-0.018479,31,65.9840583770888
7172,-8.380263,-3.571288,4.072584,-0.016341,0.013134,-0.016799,31,65.9120040134113
7182,-8.386844,-3.573681,4.069593,-0.014508,0.02306,-0.014966,31.03,65.9440528281209
7192,-8.389236,-3.580859,4.04387,-0.011759,0.03207,-0.012981,31.03,66.0906766037981
7202,-8.400003,-3.572484,4.063612,-0.009621,0.051771,-0.010843,31.01,66.0025759710613
7212,-8.412566,-3.571886,4.036094,-0.005651,0.064141,-0.009927,31.05,66.173166069626
7222,-8.415558,-3.573082,4.041477,-0.001069,0.073304,-0.00901,31.05,66.1524007165645
7232,-8.412566,-3.569493,4.033103,0.001222,0.081245,-0.009468,31,66.1866935626916
7242,-8.412566,-3.582056,4.0337,0.002902,0.086437,-0.00733,31,66.1949382363588
7252,-8.4347,-3.588037,4.031906,0.00504,0.089492,-0.00504,31.04,66.2567735120031
7262,-8.432905,-3.579065,4.008576,0.007178,0.091172,-0.002749,31.04,66.3672294166863
7272,-8.44427,-3.573681,4.02413,0.010385,0.091935,-0.001069,31.02,66.3048785124971
7282,-8.445468,-3.588037,3.996014,0.012065,0.091935,0.000153,31.02,66.4676979288413
7292,-8.447861,-3.586243,4.003192,0.014508,0.091172,0.001374,31,66.4334691231723
7302,-8.458628,-3.564708,4.0008,0.016646,0.090561,0.001833,31,66.4495089492871
7312,-8.462815,-3.573681,3.963113,0.01909,0.087659,0.004276,31.08,66.6641669549518
7322,-8.46102,-3.568895,4.017549,0.021991,0.084605,0.00336,31.08,66.3704911152096
7332,-8.466404,-3.576672,3.963113,0.022144,0.08262,0.003971,31.04,66.6743028859505
7342,-8.475378,-3.573082,3.987639,0.024435,0.078496,0.004123,31.04,66.5611374346159
7352,-8.481958,-3.571886,3.982255,0.023976,0.073915,0.002138,31.04,66.6020866618652
7362,-8.486146,-3.585046,3.979264,0.025504,0.069486,0.001374,31.04,66.6381051468111
7372,-8.478967,-3.576672,3.973282,0.025962,0.064294,-0.000611,31.03,66.6471224787277
7382,-8.48136,-3.593421,3.955934,0.026573,0.051771,-0.000305,31.02,66.7579208026707
7392,-8.492725,-3.580859,3.958925,0.026267,0.045815,-0.000305,31.02,66.7547953874321
7402,-8.492128,-3.59402,3.970889,0.025962,0.039248,-0.000305,31.05,66.7023581051833
7412,-8.487342,-3.593421,3.958327,0.024282,0.032376,-0.000611,31.05,66.7577773044571
7422,-8.487941,-3.585645,3.969095,0.023213,0.024893,-0.001985,31.04,66.6956905345293
7432,-8.492725,-3.595216,3.976273,0.021533,0.018173,-0.002291,31.04,66.6764391713598
7442,-8.489736,-3.603591,3.961916,0.017868,0.011301,-0.003207,31.03,66.7528595768864
7452,-8.481958,-3.599404,3.967898,0.017868,0.004581,-0.004123,31.03,66.7016415612674
7462,-8.492128,-3.592823,3.976273,0.01405,-0.00336,-0.005192,31.04,66.6730902634284
7472,-8.482555,-3.608377,3.972086,0.010996,-0.010537,-0.005498,31.04,66.6888474411864
7482,-8.489137,-3.59402,3.978068,0.007941,-0.017715,-0.006872,31.03,66.658514235536
7492,-8.483753,-3.604189,3.972684,0.004276,-0.025045,-0.00733,31.03,66.6845018613049
7502,-8.487342,-3.598805,3.99721,0.002138,-0.032529,-0.007178,31.05,66.5587797956022
7512,-8.486146,-3.608377,3.972684,-0.002902,-0.040775,-0.007636,31.05,66.6931757165496
7522,-8.472386,-3.586841,4.005585,-0.004734,-0.048258,-0.007178,31.04,66.4730248323623
7532,-8.468199,-3.599404,3.987639,-0.008094,-0.054825,-0.007941,31.04,66.5694323919122
7542,-8.475378,-3.585046,4.00379,-0.010079,-0.059559,-0.008399,31.04,66.487106354032
7552,-8.472386,-3.597609,4.006782,-0.014661,-0.06689,-0.012065,31.04,66.4763373850482
7562,-8.46102,-3.579663,4.010969,-0.016646,-0.069028,-0.012828,31.02,66.4145459716627
7572,-8.453843,-3.58744,4.018147,-0.018784,-0.070402,-0.01405,31.05,66.3687712279564
7582,-8.455039,-3.584448,4.022933,-0.021075,-0.071624,-0.016188,31.05,66.3435599293727
7592,-8.438888,-3.603591,4.026522,-0.022755,-0.071166,-0.016952,31.05,66.307861666455
7602,-8.432905,-3.589234,4.039085,-0.022907,-0.070097,-0.017562,31.05,66.2164557784309
7612,-8.425129,-3.59043,4.027719,-0.024129,-0.067653,-0.019395,31.04,66.2605784697658
7622,-8.429914,-3.58744,4.044468,-0.025351,-0.066126,-0.02138,31.04,66.1803028084057
7632,-8.423933,-3.586841,4.043272,-0.025962,-0.06185,-0.020922,30.98,66.1733009642879
7642,-8.421539,-3.589832,4.019344,-0.025809,-0.05681,-0.021228,30.98,66.296351364929
7652,-8.415558,-3.571288,4.053442,-0.024587,-0.051465,-0.022907,31.03,66.0880773633701
7662,-8.408379,-3.58385,4.054638,-0.02474,-0.046273,-0.022602,31.03,66.0778874597452
7672,-8.4012,-3.573082,4.048656,-0.023824,-0.039859,-0.021533,31.03,66.0840793769565
7682,-8.398808,-3.582056,4.049852,-0.02138,-0.032681,-0.021838,31.03,66.0808674821317
7692,-8.386844,-3.59043,4.033103,-0.019853,-0.024587,-0.021991,31.01,66.1508534271023
7702,-8.387442,-3.562315,4.068397,-0.016952,-0.01741,-0.020311,31.01,65.9411979355028
7712,-8.389236,-3.56052,4.052843,-0.015272,-0.009621,-0.020159,31,66.0250098704647
7722,-8.386844,-3.570091,4.045665,-0.01069,0.007636,-0.017257,31,66.0662930201135
7732,-8.400601,-3.565306,4.046861,-0.004429,0.016799,-0.015577,31.04,66.0851395544763
7742,-8.392226,-3.57727,4.032505,-0.001222,0.025504,-0.014813,31.01,66.1534832427209
7752,-8.400601,-3.571886,4.048656,0.002138,0.034361,-0.014508,31.01,66.081708560807
7762,-8.41137,-3.567699,4.03071,0.004276,0.04444,-0.014661,31.01,66.1950808039457
7772,-8.41137,-3.573082,4.025924,0.00733,0.05284,-0.013744,31.01,66.2250748255205
7782,-8.42453,-3.570091,4.029513,0.010843,0.05849,-0.011759,31.03,66.2315425766761
7792,-8.411968,-3.581457,4.013362,0.012217,0.063072,-0.010537,31.03,66.2998977558402
7802,-8.422137,-3.572484,4.022933,0.01405,0.065973,-0.008552,30.99,66.2631339891261
7812,-8.446067,-3.573082,4.009772,0.016341,0.068722,-0.00672,30.99,66.3834105974364
7822,-8.443673,-3.573082,4.003192,0.017257,0.069944,-0.005192,31.01,66.4128799724798
7833,-8.461619,-3.57727,4.00379,0.01909,0.070402,-0.004276,31.01,66.4512922248467
7842,-8.456235,-3.569493,4.001398,0.020159,0.07025,-0.002749,31.01,66.4455825135475
7852,-8.470592,-3.579663,3.988237,0.020464,0.06857,-0.001374,31.01,66.5537945275528
7862,-8.472386,-3.580261,4.012166,0.021228,0.065363,-0.000458,31.02,66.4327305596255
7872,-8.478967,-3.591029,3.976273,0.021075,0.061697,0.000153,31.02,66.6440930322484
7882,-8.476574,-3.573681,3.999005,0.022449,0.057574,-0.001374,31.08,66.5046043366661
7892,-8.501699,-3.586841,3.972086,0.019853,0.052993,-0.001527,31.08,66.7096715849195
7902,-8.499306,-3.574877,4.003192,0.020006,0.041081,-0.002749,31.05,66.5313798895801
7912,-8.498111,-3.58385,4.001996,0.017257,0.035277,-0.003207,31,66.5430370694369
7922,-8.493324,-3.597011,3.952345,0.016035,0.029474,-0.005498,31,66.8047267517277
7932,-8.490931,-3.58385,4.014558,0.016493,0.02306,-0.007636,31,66.4623475948347
7942,-8.484351,-3.595814,3.985246,0.012675,0.016341,-0.008247,31,66.612520134447
7952,-8.496913,-3.598207,3.997808,0.011759,0.010232,-0.009774,31.08,66.5750987780925
7962,-8.479566,-3.60718,4.002594,0.009468,0.003971,-0.010843,31.08,66.5217990549634
7972,-8.475378,-3.597609,4.004389,0.007636,-0.002138,-0.01237,31.03,66.4951309786942
7982,-8.48136,-3.604189,3.987639,0.005803,-0.008552,-0.01405,31.03,66.6011616551071
7992,-8.475977,-3.603591,4.004987,0.003971,-0.013439,-0.014661,31.02,66.4985786118804
8002,-8.46102,-3.611368,4.013362,0.002291,-0.017715,-0.015272,31.02,66.4303489341497
8012,-8.459227,-3.61077,4.006782,-0.000611,-0.023213,-0.015119,31.02,66.4604905745978
8022,-8.434101,-3.599404,4.052245,-0.002596,-0.031001,-0.013134,31.02,66.1593591060393
8032,-8.442476,-3.609573,3.99721,-0.00672,-0.042761,-0.009163,31.05,66.4744252391817
8042,-8.442476,-3.61077,3.988835,-0.006109,-0.047953,-0.00733,31.05,66.5194480068627
8052,-8.438888,-3.626323,4.018147,-0.004276,-0.047495,-0.009927,31.04,66.3722460546696
8062,-8.441879,-3.616153,4.015156,-0.004276,-0.0478,-0.009621,31.04,66.3850209865609
8072,-8.422735,-3.601198,4.039683,-0.007483,-0.042913,-0.01069,31.05,66.2025688833256
8082,-8.419147,-3.597011,4.042674,-0.010232,-0.04047,-0.011301,31.05,66.175478954672
8092,-8.416754,-3.609573,4.021138,-0.012065,-0.038026,-0.010996,31.05,66.2946818202691
8102,-8.413763,-3.596412,4.039085,-0.013286,-0.034819,-0.009468,30.99,66.1822857582592
8112,-8.404191,-3.585645,4.03729,-0.014203,-0.030543,-0.008399,30.99,66.1615205520287
8122,-8.411968,-3.593421,4.031308,-0.01573,-0.026114,-0.009621,31.04,66.2165241336401
8136,-8.413763,-3.592225,4.045665,-0.015424,-0.022602,-0.008247,31.04,66.1440021245666
8142,-8.405388,-3.583252,4.036094,-0.017562,-0.018326,-0.008094,31.06,66.1681716603353
8152,-8.422735,-3.584448,4.025924,-0.018021,-0.013897,-0.006414,31.06,66.2595060781893
8162,-8.405987,-3.58385,4.042076,-0.018479,-0.010079,-0.005345,31,66.1386150541275
8172,-8.412566,-3.579065,4.02413,-0.018937,-0.005803,-0.003971,31,66.2424501206043
8182,-8.414959,-3.578466,4.037888,-0.020006,-0.002138,-0.003054,31.03,66.1748177717417
8192,-8.404789,-3.57727,4.014558,-0.021075,0.001833,-0.002596,31.03,66.2745774942734
8202,-8.422137,-3.569493,4.029513,-0.01909,0.004429,-0.001222,31.05,66.2259132182852
8212,-8.422137,-3.573082,4.028317,-0.019548,0.008858,0.000764,31.05,66.2354240212384
8222,-8.4347,-3.565904,4.025924,-0.019242,0.014355,-0.000305,31.04,66.2682081636548
8232,-8.431709,-3.562913,4.017549,-0.017868,0.018021,-0.000611,31.04,66.3031102467837
8242,-8.441879,-3.559324,4.022335,-0.016341,0.027184,-0.001985,31.05,66.2963658875344
8252,-8.426923,-3.565904,3.998407,-0.013286,0.032529,-0.002138,31.04,66.3962026934691
8262,-8.442476,-3.559324,4.016353,-0.010996,0.035888,-0.002596,31.04,66.3290035324417
8272,-8.435897,-3.558127,3.999005,-0.010079,0.039248,-0.004276,31.05,66.4050927564282
8282,-8.445468,-3.5671,4.007978,-0.006872,0.042913,-0.005345,31.05,66.3862144508886
8292,-8.450253,-3.571886,4.006782,-0.005803,0.047037,-0.006872,31.05,66.4068619103335
8302,-8.457432,-3.567699,4.004389,-0.002596,0.048411,-0.008247,31.05,66.4308228466916
8312,-8.458031,-3.574877,3.993023,-0.001069,0.048106,-0.008858,31.06,66.4980856438232
8322,-8.470592,-3.565306,3.987041,0.000764,0.047647,-0.008399,31.06,66.5473737914354
8332,-8.459227,-3.564708,4.001996,0.00336,0.045204,-0.008399,31.01,66.4444978511727
8342,-8.470592,-3.572484,3.967898,0.004581,0.042913,-0.008399,31.01,66.6542120036307
8352,-8.465807,-3.565306,4.001996,0.008399,0.040317,-0.010232,31.07,66.4588856946263
8362,-8.475378,-3.576672,3.978068,0.009927,0.038026,-0.010843,31.07,66.6145102022912
8372,-8.483753,-3.571288,3.985844,0.01237,0.035888,-0.011912,31.06,66.5864981737775
8382,-8.480165,-3.56052,3.981059,0.014966,0.03207,-0.013439,31.06,66.5946073211049
8392,-8.477771,-3.571288,3.970889,0.015882,0.027794,-0.015577,31.01,66.6524468534066
8402,-8.466404,-3.579065,3.978068,0.018173,0.025351,-0.016799,31.01,66.5978537188011
8412,-8.471789,-3.580859,3.99063,0.020311,0.020617,-0.01909,31.02,66.5448139756912
8422,-8.477771,-3.584448,3.974478,0.022144,0.012981,-0.020464,31.04,66.6452046764258
8432,-8.461619,-3.575475,3.978068,0.02306,0.008247,-0.021228,31.04,66.584656834263
8442,-8.477173,-3.574279,3.981059,0.023213,0.00336,-0.020311,31.03,66.600460997128
8452,-8.450851,-3.581457,4.001398,0.022449,-0.001833,-0.02138,31.03,66.444900647839
8462,-8.471789,-3.599404,3.946961,0.020769,-0.007178,-0.0197,31.02,66.7904728298982
8472,-8.449057,-3.580859,4.017549,0.023824,-0.011454,-0.019853,31.02,66.3559119575374
8482,-8.460423,-3.585046,3.994219,0.019548,-0.016188,-0.018479,31.06,66.5058750682341
8492,-8.459825,-3.596412,3.985844,0.018173,-0.020922,-0.018021,31.06,66.5586652394708
8502,-8.450851,-3.602993,4.021737,0.017562,-0.023824,-0.018326,31.03,66.3576168429403
8512,-8.456235,-3.611966,3.987639,0.014355,-0.027336,-0.016493,31.03,66.5556065554272
8522,-8.449656,-3.597609,4.030112,0.012828,-0.030238,-0.015577,31.04,66.3064327305132
8532,-8.450253,-3.61077,3.995416,0.00901,-0.034361,-0.014203,31.04,66.5012258556714
8542,-8.446067,-3.603591,4.033103,0.007178,-0.036805,-0.010996,31.05,66.2885909916565
8552,-8.436494,-3.61376,4.021737,0.00336,-0.038026,-0.010996,31.05,66.3370461481986
8562,-8.450851,-3.609573,4.033103,-0.000458,-0.04047,-0.009163,31.03,66.3040846818514
8572,-8.44427,-3.618546,4.039085,-0.004887,-0.039706,-0.00733,31.03,66.2670268357801
8582,-8.438289,-3.611368,4.039085,-0.005651,-0.038179,-0.005498,31.02,66.2478856818302
8592,-8.439486,-3.604189,4.038486,-0.010996,-0.036194,-0.003818,31.03,66.2470565017627
8602,-8.437093,-3.608377,4.034897,-0.013592,-0.036194,-0.002291,31.03,66.2645556114382
8612,-8.439486,-3.601796,4.050451,-0.015577,-0.032987,-0.001833,31.05,66.1823360462424
8622,-8.422137,-3.601796,4.03729,-0.018784,-0.027794,-0.003054,31.05,66.214374322641
8632,-8.422735,-3.594618,4.05404,-0.018784,-0.024282,-0.002596,31.05,66.1214485435606
8642,-8.429317,-3.596412,4.043272,-0.020922,-0.019395,-0.003207,31.05,66.193417120185
8652,-8.409575,-3.609573,4.049852,-0.022144,-0.013134,-0.004123,31.01,66.1289720032968
8662,-8.412566,-3.591029,4.063013,-0.022755,-0.008247,-0.004734,31.01,66.0495407057566
8672,-8.432905,-3.61735,4.037888,-0.024587,-0.003818,-0.003971,31.02,66.2481784498874
8682,-8.413164,-3.59043,4.058227,-0.022907,0.002596,-0.004734,31.02,66.0753154379972
8692,-8.417352,-3.596412,4.040281,-0.024282,0.007789,-0.005345,31.05,66.1836520727033
8702,-8.415558,-3.611368,4.026522,-0.024282,0.012523,-0.005651,31.05,66.2655459919691
8712,-8.418548,-3.579663,4.048058,-0.02474,0.017104,-0.00733,31.05,66.1302580358331
8722,-8.417352,-3.58744,4.040281,-0.025198,0.022297,-0.007789,31.05,66.1755066868798
8732,-8.420941,-3.59043,4.028317,-0.023366,0.026878,-0.008705,30.99,66.2485575548487
8742,-8.422735,-3.580859,4.040281,-0.023213,0.030849,-0.00901,30.99,66.1810018859265
8752,-8.417951,-3.572484,4.029513,-0.022449,0.034972,-0.010232,31.03,66.2197050312159
8762,-8.425727,-3.591029,4.015156,-0.018479,0.040317,-0.011759,31.03,66.3282758606855
8772,-8.429317,-3.576672,4.026522,-0.016646,0.042913,-0.011454,31.05,66.2633269870949
8782,-8.432905,-3.580859,4.004389,-0.015272,0.045051,-0.011301,31.04,66.3908207506782
8792,-8.44128,-3.571288,4.006183,-0.012217,0.045662,-0.010843,31.04,66.3905257694997
8802,-8.437093,-3.573681,3.995416,-0.010079,0.046578,-0.010385,31.04,66.4403654641185
8812,-8.449057,-3.562315,3.993023,-0.008247,0.047189,-0.010843,31.04,66.4680362672268
8822,-8.452048,-3.570091,3.97388,-0.005345,0.047953,-0.008858,31.04,66.5818308946208
8832,-8.454441,-3.568895,3.980461,-0.001985,0.048564,-0.009468,31.04,66.5512000352214
8842,-8.460423,-3.562913,3.981059,0.001222,0.050702,-0.008399,31.02,66.5553227874628
8852,-8.450253,-3.562315,3.964309,0.001833,0.050702,-0.008858,31.02,66.6215386939141
8862,-8.463414,-3.565904,3.974478,0.005192,0.048869,-0.007789,31.05,66.5988158764263
8872,-8.477173,-3.575475,3.968496,0.005956,0.046578,-0.005651,31.05,66.6674470002563
8882,-8.479566,-3.57069,3.969095,0.007178,0.042455,-0.005803,31,66.6650876287865
8892,-8.469396,-3.571288,3.959523,0.008705,0.038179,-0.004887,31,66.6946784652162
8902,-8.486743,-3.57727,3.964309,0.010232,0.034056,-0.001985,31.04,66.71095183869
8912,-8.487342,-3.573681,3.965506,0.01237,0.028253,-0.000764,31.04,66.7027680706537
8922,-8.481958,-3.570091,3.961916,0.01237,0.022144,-0.000764,31.02,66.7072504299492
8932,-8.499306,-3.578466,3.954139,0.013744,0.009927,-0.001069,31.02,66.7914796960845
8942,-8.489137,-3.574279,3.969095,0.016799,0.003971,-0.000458,31.01,66.6881991692788
8952,-8.489137,-3.585046,3.98405,0.014508,-0.003207,-0.001069,31.03,66.6192658068528
8962,-8.493324,-3.586243,3.948158,0.013744,-0.009468,-0.001527,31.03,66.8172762129229
8972,-8.477173,-3.5671,3.99721,0.016035,-0.015577,-0.00168,31.02,66.5094484383096
8982,-8.495717,-3.59402,3.972086,0.014203,-0.022297,-0.002138,31.02,66.7035439440743
8992,-8.481958,-3.574877,3.982255,0.012981,-0.028558,-0.002749,30.98,66.6047211754664
9002,-8.480165,-3.589832,3.979862,0.012217,-0.034514,-0.004276,30.98,66.6267156976035
9012,-8.465208,-3.577868,3.995416,0.010996,-0.038179,-0.004429,31.04,66.5032662538341
9022,-8.475378,-3.586841,3.982853,0.009468,-0.042608,-0.005956,31.04,66.5983936598661
9032,-8.462217,-3.596412,4.018745,0.008858,-0.045968,-0.007483,31.04,66.391311162176
9042,-8.453244,-3.617948,3.996612,0.006414,-0.048258,-0.008247,31.04,66.5076554947102
9052,-8.444869,-3.586243,4.03071,0.005345,-0.050702,-0.008399,31.02,66.2829619458467
9062,-8.446664,-3.601796,4.016353,0.003054,-0.052229,-0.008705,31.02,66.3759061795763
9072,-8.443673,-3.598805,4.036692,0.001833,-0.052076,-0.007789,31.01,66.2604403407193
9082,-8.430512,-3.603591,4.02413,-0.001833,-0.051924,-0.008247,31.01,66.3026850545717
9092,-8.429317,-3.609573,4.045665,-0.00336,-0.050702,-0.00901,31.03,66.1928374352958
9102,-8.431709,-3.594618,4.055236,-0.004734,-0.04948,-0.008399,31.03,66.1342977628808
9112,-8.415558,-3.596412,4.04387,-0.006872,-0.040623,-0.008858,31.04,66.1610351825187
9122,-8.422137,-3.585645,4.042674,-0.008399,-0.036041,-0.009316,31.05,66.1715272248047
9132,-8.421539,-3.588037,4.051647,-0.009163,-0.029627,-0.009468,31.05,66.1254429897147
9142,-8.414959,-3.597011,4.058227,-0.01069,-0.023824,-0.010079,31.02,66.0851463783103
9152,-8.404789,-3.59043,4.052843,-0.011301,-0.016799,-0.010232,31.02,66.0856185919797
9162,-8.408379,-3.592225,4.048058,-0.012675,-0.009927,-0.010232,31.02,66.11998805918
9172,-8.423933,-3.589234,4.052245,-0.013439,-0.003818,-0.010385,31.02,66.1285011929079
9182,-8.413763,-3.591029,4.040281,-0.015272,0.00168,-0.009621,31.05,66.1711251304659
9192,-8.413763,-3.595216,4.049254,-0.01573,0.00733,-0.008552,31.05,66.1279270638517
9202,-8.423334,-3.585645,4.048058,-0.016952,0.012981,-0.008552,31.02,66.1458831949213
9212,-8.419147,-3.597011,4.032505,-0.018631,0.01741,-0.009163,31.02,66.2287564381622
9222,-8.440681,-3.570091,4.046861,-0.0197,0.021991,-0.008858,31.05,66.1750258988125
9232,-8.422137,-3.576073,4.034897,-0.021686,0.027031,-0.009468,31.05,66.2036183431134
9242,-8.422735,-3.59402,4.040879,-0.020769,0.031154,-0.009621,31.04,66.1897924778334
9252,-8.442476,-3.583252,4.032505,-0.021533,0.033903,-0.00901,31.04,66.2658082655426
9262,-8.443074,-3.583252,4.027121,-0.021991,0.035888,-0.009316,31.03,66.2952662624153
9272,-8.452645,-3.567699,4.023531,-0.020922,0.037721,-0.010079,31.03,66.3203932922795
9282,-8.447861,-3.592823,3.991228,-0.020617,0.040775,-0.010843,31.06,66.5021250227734
9292,-8.447262,-3.559324,4.021138,-0.018326,0.039859,-0.011301,31.04,66.3140537735221
9302,-8.450851,-3.585645,3.990032,-0.018937,0.03879,-0.011759,31.04,66.5082789662079
9312,-8.456235,-3.565904,4.010969,-0.017104,0.037874,-0.011606,31.04,66.3922024684061
9322,-8.445468,-3.576073,4.00379,-0.01573,0.035277,-0.011606,31.04,66.4162003789328
9332,-8.458628,-3.577868,3.982853,-0.013744,0.033445,-0.012217,31.04,66.5553786913748
9342,-8.466404,-3.556333,4.011567,-0.012065,0.031612,-0.012675,31.04,66.4020294188241
9352,-8.455039,-3.58385,3.976273,-0.009927,0.026725,-0.012217,31.09,66.587727092201
9362,-8.459825,-3.570091,4.002594,-0.007025,0.023824,-0.011759,31.09,66.4474032324205
9372,-8.467003,-3.576672,3.987041,-0.004581,0.019242,-0.010843,31.04,66.5498980432745
9382,-8.450851,-3.582056,3.999603,-0.002749,0.014813,-0.010843,31.04,66.4548513324025
9392,-8.465807,-3.582654,3.988835,-0.000916,0.012065,-0.010385,31.05,66.5432818084402
9402,-8.462815,-3.574877,3.991228,0.001069,0.010232,-0.011454,31.05,66.5175538340917
9412,-8.469396,-3.576672,3.991827,0.003818,0.009163,-0.011759,31.04,66.5298133721784
9422,-8.453244,-3.582654,3.989433,0.005803,0.007178,-0.011148,31.04,66.5137855459199
9432,-8.459227,-3.596412,3.984648,0.007178,0.005192,-0.012065,31.04,66.5636886076442
9442,-8.444869,-3.575475,4.001996,0.009621,0.003818,-0.01237,31.04,66.4238173720746
9452,-8.459825,-3.591029,3.987639,0.012065,-0.00168,-0.010385,31.01,66.5444582635864
9462,-8.454441,-3.581457,4.007978,0.015119,-0.003818,-0.010079,31.05,66.4179596569917
9472,-8.450253,-3.578466,3.998407,0.016035,-0.005803,-0.00901,31.05,66.4566659158607
9482,-8.461619,-3.582056,3.99721,0.017104,-0.007636,-0.007941,31.05,66.4900427903112
9492,-8.46461,-3.582654,4.001398,0.018021,-0.010079,-0.00672,31.05,66.4749048515503
9502,-8.453244,-3.583252,3.998407,0.018021,-0.012523,-0.005651,31.05,66.4672269241486
9512,-8.44427,-3.589234,4.006183,0.016952,-0.015272,-0.004734,31.05,66.4128931539336
9522,-8.449057,-3.59043,4.018147,0.016493,-0.016799,-0.004581,31.04,66.3613535462038
9532,-8.454441,-3.593421,4.005585,0.016188,-0.018173,-0.003512,31.04,66.4411871655808
9542,-8.467602,-3.593421,4.009772,0.015272,-0.019853,-0.002596,31.02,66.4469183997534
9552,-8.440681,-3.606582,4.010371,0.013744,-0.02138,-0.002138,31.02,66.3989491824051
9562,-8.446067,-3.601796,4.034299,0.012523,-0.023213,-0.001222,31.03,66.2807172134618
9572,-8.44128,-3.59402,4.015156,0.008094,-0.024893,-0.000458,31.03,66.3638362799895
9582,-8.445468,-3.594618,4.034897,0.00672,-0.025962,-0.000458,31.02,66.2698546701068
9592,-8.449656,-3.597011,4.01396,0.00336,-0.027642,0.001374,31.02,66.3904492335262
9602,-8.437093,-3.58744,4.057031,0.002596,-0.028405,0.000916,31.05,66.1298690374613
9612,-8.447861,-3.602395,4.037888,-0.001374,-0.027184,0.000611,31.05,66.2662824000121
9622,-8.437692,-3.595814,4.055236,-0.004276,-0.026725,0.000153,31.04,66.1481044671602
9632,-8.435897,-3.593421,4.037888,-0.009468,-0.023671,-0.000458,31.04,66.2328513570346
9642,-8.433504,-3.574877,4.057629,-0.011148,-0.02138,-0.000153,31.04,66.1077340870057
9652,-8.420941,-3.579065,4.043272,-0.012065,-0.018631,-0.000153,31.03,66.1598875446403
9662,-8.421539,-3.59043,4.051647,-0.013439,-0.015272,0,31.03,66.1276162222483
9672,-8.408379,-3.582056,4.046861,-0.015272,-0.011301,-0.00168,31.05,66.1170025513047
9682,-8.41137,-3.593421,4.049852,-0.016035,-0.006109,-0.001833,31.05,66.1180592921509
9692,-8.416754,-3.6006,4.051049,-0.01741,-0.001374,-0.002596,31.04,66.1298049890724
9702,-8.426923,-3.6006,4.052245,-0.017715,0.003818,-0.003207,31.04,66.1451872544799
9712,-8.422137,-3.582654,4.060022,-0.019395,0.010079,-0.004581,31.03,66.0780096348129
9722,-8.408977,-3.596412,4.04746,-0.019242,0.015577,-0.006261,31.03,66.1282124820931
9732,-8.42453,-3.575475,4.049852,-0.019395,0.020464,-0.006261,31.06,66.1298274547221
9742,-8.414959,-3.595216,4.028317,-0.019853,0.025656,-0.006109,31.06,66.240195011942
9752,-8.42812,-3.58385,4.045067,-0.020006,0.029627,-0.00672,31.04,66.1701036153536
9762,-8.432905,-3.600002,4.022933,-0.020159,0.034056,-0.007178,31.04,66.3107755503213
9772,-8.432905,-3.582056,4.042076,-0.01909,0.037721,-0.008247,31.03,66.1943154137496
9782,-8.429914,-3.580859,4.016353,-0.020159,0.040317,-0.009621,31.03,66.321698353886
9792,-8.425727,-3.581457,4.011567,-0.020006,0.04383,-0.010843,31.02,66.3384900893959
9802,-8.437093,-3.572484,4.005585,-0.018326,0.048258,-0.011912,31,66.3858867830419
9812,-8.446067,-3.584448,3.994817,-0.018173,0.04948,-0.012675,31,66.4720351113128
9822,-8.459227,-3.573681,4.0008,-0.015882,0.048717,-0.012981,31.02,66.4587425960194
9832,-8.449656,-3.561118,3.987041,-0.015272,0.047495,-0.012523,31.02,66.4996632924679
9842,-8.468199,-3.575475,3.987041,-0.013439,0.046884,-0.013134,31.04,66.5513455326383
9852,-8.46461,-3.561717,3.993023,-0.012217,0.045509,-0.012217,31.04,66.5002493430515
9862,-8.480165,-3.57069,3.978068,-0.010843,0.042761,-0.012981,31.04,66.619245939956
9872,-8.478369,-3.566502,3.973282,-0.008858,0.039095,-0.012675,31.04,66.6369239924301
9882,-8.478369,-3.568297,3.972684,-0.007025,0.036346,-0.013439,31.03,66.6416417286719
9892,-8.476574,-3.559922,3.978666,-0.005803,0.033139,-0.013439,31.03,66.5991194397545
9902,-8.473583,-3.574279,3.970291,-0.003971,0.027947,-0.014203,31.06,66.649472861004
9912,-8.489736,-3.578466,3.962514,-0.002902,0.020922,-0.01405,31.06,66.727649942515
9922,-8.478967,-3.567699,3.969095,-0.002749,0.014508,-0.013439,31.04,66.6612083995146
9932,-8.478967,-3.572484,3.966104,-0.00168,0.008399,-0.013744,31.04,66.681119850096
9942,-8.491529,-3.585046,3.964907,-0.00168,0.002902,-0.011912,31.04,66.7245943843274
9952,-8.484949,-3.58385,3.978666,0.000305,-0.004123,-0.012217,31.04,66.6376893273881
9962,-8.479566,-3.580261,3.969095,0.000916,-0.010232,-0.012675,31.04,66.6735071328627
9972,-8.484949,-3.583252,3.978068,0.001222,-0.021228,-0.012523,31.04,66.6402975186392
9982,-8.482555,-3.585645,3.975675,0.001985,-0.026267,-0.012065,31.05,66.6499607841413
9992,-8.474181,-3.588636,3.975675,0.004276,-0.031001,-0.011454,31.02,66.6351306340642
10002,-8.463414,-3.579663,4.001398,0.005803,-0.034972,-0.012065,31.02,66.4697321753732
10012,-8.46461,-3.598207,3.991827,0.004734,-0.038026,-0.012828,31.01,66.5389045180246
10022,-8.465807,-3.589234,3.994817,0.005498,-0.041081,-0.012981,31.01,66.5177582106005
10032,-8.455039,-3.588037,4.015156,0.00672,-0.043371,-0.011912,31.02,66.3874903863197
10042,-8.444869,-3.58744,3.993621,0.007025,-0.045204,-0.011606,31.02,66.4784661050736
10052,-8.46102,-3.6006,4.012764,0.007636,-0.045815,-0.011759,31.05,66.4238384085652
10062,-8.437692,-3.597609,4.019344,0.007483,-0.046731,-0.010996,31.05,66.337541257013
10072,-8.443673,-3.58385,4.03071,0.007941,-0.046578,-0.010232,31.04,66.2782787778028
10082,-8.428718,-3.59043,4.028915,0.00733,-0.045509,-0.009774,31.04,66.2619205315171
10092,-8.428718,-3.600002,4.040281,0.00672,-0.044593,-0.008399,31.03,66.2110529392156
10102,-8.419147,-3.622734,4.010371,0.006567,-0.043371,-0.008094,31.03,66.3681647094862
10112,-8.408977,-3.598805,4.049852,0.006261,-0.041233,-0.008094,31.03,66.1178655829495
10122,-8.420941,-3.601796,4.045665,0.003971,-0.038485,-0.005956,31.03,66.1679823772778
10132,-8.419147,-3.61376,4.055834,0.002749,-0.035583,-0.00504,31.04,66.1218672784595
10142,-8.417951,-3.601796,4.06062,0.001527,-0.031307,-0.003512,31.04,66.0833751499955
10152,-8.417352,-3.601198,4.053442,-0.002138,-0.020922,-0.002443,31.04,66.1191003889667
10162,-8.408977,-3.588037,4.059424,-0.004429,-0.012981,-0.003665,31.02,66.0579215930174
10172,-8.407781,-3.598207,4.04746,-0.006872,-0.003971,-0.003054,31.02,66.1273000410371
10182,-8.404789,-3.597609,4.064209,-0.007789,0.001985,-0.003665,31.02,66.0326693833994
10192,-8.416754,-3.593421,4.052245,-0.009316,0.008399,-0.002749,31.02,66.1170086002867
10202,-8.405388,-3.591627,4.046263,-0.01069,0.015882,-0.002291,31.04,66.1224686283233
10212,-8.396414,-3.584448,4.040281,-0.011759,0.022755,-0.000764,31.04,66.1281389973201
10222,-8.416754,-3.586841,4.046861,-0.013134,0.029169,-0.000305,31.03,66.1392172126339
10232,-8.420342,-3.592225,4.042674,-0.015119,0.034819,0.000153,31.03,66.1736747326072
10242,-8.426923,-3.593421,4.033103,-0.016188,0.04047,0.000305,31.06,66.2388734127731
10252,-8.434101,-3.580859,4.045665,-0.016952,0.045357,0.000305,31.06,66.1769933664804
10262,-8.429317,-3.6006,4.025924,-0.018937,0.049938,0.001374,31.04,66.2880526350308
10272,-8.42453,-3.583252,4.029513,-0.019548,0.053145,0.001527,31.04,66.2434166863659
10282,-8.428718,-3.595814,4.024727,-0.021533,0.055741,0.001833,31.01,66.288732622517
10292,-8.452048,-3.591627,4.020541,-0.021228,0.057269,0.001069,31.01,66.3562003964955
10302,-8.44128,-3.585046,4.006782,-0.022449,0.058643,0.001374,31.02,66.3996947340155
10312,-8.458031,-3.589832,4.007978,-0.022602,0.059559,0.000153,31.02,66.4329930801787
10322,-8.46461,-3.576672,4.006183,-0.022449,0.059559,-0.001069,31.05,66.4445135188988
10332,-8.464012,-3.585046,3.987041,-0.021686,0.059559,-0.002596,31.04,66.5510531914194
10342,-8.467602,-3.574279,3.989433,-0.020769,0.057879,-0.003971,31.04,66.5364867283886
10352,-8.466404,-3.586243,3.983452,-0.020311,0.0562,-0.004734,31.04,66.5759537789568
10362,-8.477173,-3.580261,3.970889,-0.019395,0.05284,-0.005803,31.04,66.6590992680898
10372,-8.472386,-3.574279,3.979862,-0.017868,0.049633,-0.008399,31.02,66.5967261965073
10382,-8.478369,-3.559922,3.978068,-0.016035,0.045509,-0.008858,31.02,66.6060168607998
10392,-8.483154,-3.585645,3.956532,-0.014355,0.041081,-0.009774,31.04,66.751671027141
10402,-8.474181,-3.580859,3.963711,-0.011301,0.03543,-0.01069,31.04,66.6910769753158
10412,-8.482555,-3.57727,3.949354,-0.009468,0.030238,-0.011759,31.02,66.7807928926168
10422,-8.472985,-3.570091,3.941577,-0.00672,0.023518,-0.011454,31.02,66.7955181942097
10432,-8.496913,-3.574279,3.954139,-0.004887,0.015424,-0.011912,31.07,66.7828586726272
10442,-8.478369,-3.571288,3.951746,-0.002596,0.008094,-0.012217,31.07,66.7542698472188
10452,-8.491529,-3.583252,3.955934,-0.000916,-0.000916,-0.012981,31.01,66.7701071291084
10462,-8.492725,-3.586841,3.964907,0.000458,-0.007483,-0.012675,31.01,66.7286553818665
10472,-8.487342,-3.577868,3.948158,0.002596,-0.013592,-0.012675,31.04,66.7975435876317
10482,-8.483154,-3.580859,3.963711,0.003665,-0.019548,-0.013897,31.04,66.7097706888546
10492,-8.484351,-3.574279,3.958925,0.00504,-0.032223,-0.013744,31.03,66.7316173071126
10502,-8.483154,-3.579065,3.9673,0.005651,-0.037568,-0.013439,31.02,66.6893550173386
10512,-8.473583,-3.579065,3.969693,0.007941,-0.042302,-0.011912,31.02,66.6568315106904
10522,-8.476574,-3.579065,3.969693,0.008705,-0.047647,-0.012523,30.98,66.6630738563812
10532,-8.472386,-3.576672,3.986442,0.009468,-0.052076,-0.01069,30.98,66.5643199346123
10542,-8.477173,-3.582654,3.976273,0.009163,-0.055131,-0.009468,31.01,66.6329562114091
10552,-8.471789,-3.588636,3.98405,0.009927,-0.058796,-0.00901,31.01,66.5862030094134
10562,-8.463414,-3.576672,3.994219,0.008858,-0.061087,-0.008094,31.01,66.5047147206929
10572,-8.455039,-3.577868,4.00738,0.008094,-0.062766,-0.00672,31.01,66.4191525357739
10582,-8.454441,-3.591627,4.004389,0.007636,-0.063835,-0.006109,31.04,66.4458522545747
10592,-8.440681,-3.591029,4.023531,0.007483,-0.064752,-0.005192,31.04,66.3159985038497
10602,-8.445468,-3.592823,4.019344,0.00733,-0.064294,-0.004276,31.05,66.3496567017906
10612,-8.435298,-3.592225,4.022335,0.005956,-0.062766,-0.002902,31.05,66.3119573547827
10622,-8.42812,-3.59043,4.030112,0.003971,-0.061545,-0.002596,31.05,66.2543798005291
10632,-8.429914,-3.582056,4.044468,0.003054,-0.059865,-0.001374,31.05,66.1754336611535
10642,-8.425727,-3.597011,4.046861,0.001833,-0.056047,-0.001069,31.03,66.1675506048016
10652,-8.43111,-3.604189,4.063013,-0.000305,-0.05284,-0.001069,31.03,66.1010793749203
10662,-8.415558,-3.59043,4.070191,-0.002749,-0.043371,-0.000916,31.02,66.0178529495705
10672,-8.402397,-3.596412,4.074379,-0.005803,-0.037415,-0.001222,30.99,65.9732494707303
10682,-8.408379,-3.603591,4.066004,-0.007178,-0.029474,-0.000916,30.99,66.0364297053202
10692,-8.397612,-3.592823,4.066602,-0.009774,-0.022144,-0.002138,31.06,66.0003956918547
10702,-8.404789,-3.59402,4.071388,-0.011148,-0.015119,-0.002902,31.06,65.9918249272451
10712,-8.397612,-3.586841,4.067799,-0.010996,-0.006414,-0.003054,31.05,65.9886467196905
10722,-8.398808,-3.596412,4.074977,-0.012065,0.001527,-0.002749,31.05,65.9624273750028
10732,-8.407781,-3.602395,4.074977,-0.01237,0.009621,-0.003512,31.05,65.9871416615821
10742,-8.399406,-3.59402,4.073183,-0.013286,0.016493,-0.003512,31.05,65.970898618254
10752,-8.407183,-3.600002,4.076771,-0.013134,0.024282,-0.003665,31.08,65.9742906157121
10762,-8.402397,-3.594618,4.063612,-0.014661,0.032376,-0.003971,31.08,66.0279387913444
10772,-8.403594,-3.591627,4.065406,-0.016341,0.039859,-0.004887,31.05,66.0183734153791
10782,-8.407781,-3.591627,4.056432,-0.015882,0.047495,-0.00504,31.05,66.0743057406863
10792,-8.413763,-3.595814,4.05404,-0.01573,0.054367,-0.005192,31.04,66.1034152552602
10802,-8.415558,-3.595814,4.041477,-0.016493,0.060018,-0.004581,31.04,66.1730270743863
10812,-8.426325,-3.593421,4.051647,-0.016646,0.064904,-0.005651,31.04,66.1405234526711
10822,-8.425727,-3.588636,4.03729,-0.017715,0.06918,-0.006872,31.04,66.2100709531663
10832,-8.438289,-3.582654,4.029513,-0.018173,0.072082,-0.006567,31.07,66.2720656638069
10842,-8.446067,-3.57727,4.016353,-0.017715,0.076205,-0.006872,31.02,66.3526500668886
10852,-8.446067,-3.574877,4.009772,-0.017104,0.077733,-0.007636,31.02,66.3850146641394
10862,-8.46461,-3.573082,4.004987,-0.01741,0.077274,-0.007789,31.04,66.4475899425128
10872,-8.458031,-3.584448,4.006183,-0.018173,0.076205,-0.008858,31.04,66.4375941882707
10882,-8.461619,-3.579663,3.985844,-0.016799,0.07422,-0.008552,31.04,66.5475416905077
10892,-8.468798,-3.581457,3.987041,-0.016341,0.07086,-0.008552,31.04,66.5578976880919
10902,-8.475378,-3.582654,3.968496,-0.015882,0.066279,-0.009468,31.03,66.6700262037129
10912,-8.486146,-3.573082,3.980461,-0.014661,0.060781,-0.009621,31.03,66.6212984678319
10922,-8.483753,-3.571886,3.958925,-0.014355,0.053909,-0.009316,30.99,66.728274406425
10932,-8.486743,-3.562315,3.966104,-0.013439,0.04612,-0.009316,30.99,66.688420007834
10942,-8.490333,-3.573082,3.938586,-0.012217,0.039095,-0.009163,31.01,66.8498844635246
10952,-8.486146,-3.561118,3.955934,-0.010537,0.030238,-0.009621,31.01,66.7395462992868
10962,-8.495717,-3.571886,3.95055,-0.008858,0.020311,-0.008858,31.04,66.797132705255
10972,-8.480165,-3.57069,3.958925,-0.008094,0.009316,-0.007941,31.04,66.7197523823504
10982,-8.495118,-3.576073,3.946362,-0.008094,-0.000458,-0.00901,31.05,66.8215416001311
10992,-8.498708,-3.581457,3.957131,-0.007025,-0.008858,-0.009163,31.05,66.777152347916
11002,-8.481958,-3.574279,3.962514,-0.005192,-0.017715,-0.009621,31.04,66.7077850879115
11012,-8.48136,-3.588636,3.960122,-0.004276,-0.03375,-0.010079,31.04,66.7317191483079
11022,-8.477173,-3.579065,3.963711,-0.003054,-0.039706,-0.010843,31.06,66.6957342286254
11032,-8.472985,-3.589234,3.952345,-0.002596,-0.045357,-0.011148,31.02,66.7556902356525
11042,-8.48136,-3.591029,3.982255,-0.000611,-0.050855,-0.010996,31.02,66.6177228849537
11052,-8.475977,-3.586841,3.975077,-0.000305,-0.055741,-0.01069,31.05,66.6404305788589
11062,-8.462815,-3.573681,3.990032,0.001374,-0.059407,-0.01069,31.05,66.522768421334
11072,-8.464012,-3.585645,3.990032,0.002749,-0.062003,-0.011148,31.04,66.5358955361529
11082,-8.453843,-3.582056,3.993621,0.003512,-0.064294,-0.012065,31.04,66.4925308148636
11092,-8.443074,-3.58744,4.013362,0.004734,-0.06521,-0.010996,31.04,66.3711195160462
11102,-8.447262,-3.595814,4.011567,0.005498,-0.065515,-0.010079,31.04,66.3968698560686
11112,-8.425727,-3.59402,4.019344,0.005956,-0.06521,-0.009927,31.04,66.3090042235232
11122,-8.429914,-3.601796,4.025326,0.006872,-0.064141,-0.009927,31.04,66.2935306526297
11132,-8.427522,-3.600002,4.024727,0.006414,-0.062461,-0.008399,31.03,66.2899855812443
11142,-8.426923,-3.583252,4.038486,0.006109,-0.059865,-0.007789,31.03,66.2014784008993
11152,-8.416155,-3.591029,4.037888,0.006109,-0.056658,-0.006414,31.06,66.1887570899671
11162,-8.417951,-3.594618,4.03729,0.006261,-0.052382,-0.004734,31.06,66.1989676340573
11172,-8.417352,-3.60718,4.05404,0.004429,-0.0478,-0.004581,31.03,66.1214256317056
11182,-8.402397,-3.601198,4.054638,0.003054,-0.036652,-0.003971,31.03,66.0809480011163
11192,-8.408977,-3.601796,4.053442,0.000305,-0.030085,-0.00336,31.05,66.1017974765063
11202,-8.41137,-3.597011,4.061816,-0.001374,-0.021533,-0.002291,31.07,66.0587083324644
11212,-8.417352,-3.588037,4.063612,-0.003512,-0.014355,-0.001374,31.07,66.0539076442561
11222,-8.402397,-3.585046,4.058825,-0.00504,-0.005498,-0.000458,31.03,66.0442520416335
11232,-8.408379,-3.58744,4.070191,-0.00733,0.003971,-0.002138,31.03,65.9997554897769
11242,-8.4012,-3.582056,4.056432,-0.007789,0.012065,-0.002291,31.04,66.0514963115339
11252,-8.410173,-3.57727,4.058227,-0.00901,0.0197,-0.001527,31.04,66.0569361270686
11262,-8.4012,-3.588636,4.053442,-0.010232,0.02642,-0.001222,31.05,66.0731717383655
11272,-8.410771,-3.579663,4.045665,-0.011759,0.03375,-0.000916,31.05,66.1262024266558
11282,-8.408379,-3.59043,4.051049,-0.01237,0.040164,-0.000305,31.08,66.1026828373823
11292,-8.42453,-3.576073,4.038486,-0.014508,0.045509,-0.000153,31.08,66.1899001750418
11302,-8.422735,-3.585645,4.042674,-0.015119,0.051313,-0.000153,31.04,66.1727999257544
11312,-8.430512,-3.581457,4.040281,-0.016188,0.056352,0.000305,31.04,66.198085468712
11322,-8.429914,-3.592225,4.028317,-0.017257,0.060934,0.000611,31.05,66.2692104188537
11332,-8.432905,-3.584448,4.029513,-0.018021,0.064599,-0.000153,31.05,66.2622677243693
11342,-8.432307,-3.589234,4.019942,-0.018326,0.067348,-0.000153,31.02,66.31547869884
11362,-8.450851,-3.586243,4.002594,-0.018937,0.071166,-0.002291,31.01,66.442900537004
11372,-8.461619,-3.582654,4.004389,-0.018937,0.071624,-0.003665,31.1,66.4529443879657
11382,-8.467003,-3.593421,3.999603,-0.018631,0.069791,-0.005192,31.1,66.4989104243637
11392,-8.463414,-3.586243,3.991827,-0.017868,0.068111,-0.006567,31.02,66.525758959708
11402,-8.470592,-3.579663,3.987041,-0.016493,0.065668,-0.007789,31.02,66.5600668594362
11412,-8.481958,-3.592823,3.976871,-0.015119,0.062919,-0.008705,31.04,66.6487770492998
11422,-8.478967,-3.59402,3.978068,-0.014355,0.059254,-0.010385,31.04,66.6373230821494
11432,-8.474779,-3.58385,3.974478,-0.012523,0.05452,-0.011454,31,66.6384320507831
11442,-8.473583,-3.58744,3.965506,-0.011148,0.04948,-0.01237,31,66.6862048727672
11452,-8.486146,-3.574279,3.958327,-0.009774,0.044135,-0.014355,30.99,66.7384933577584
11462,-8.484351,-3.576672,3.961916,-0.007483,0.037721,-0.014508,30.99,66.7180095835658
11472,-8.496315,-3.581457,3.951149,-0.006109,0.030696,-0.015119,31.01,66.8035852328889
11482,-8.477173,-3.572484,3.95055,-0.004734,0.022144,-0.015272,31.01,66.7591182450797
11492,-8.489137,-3.57727,3.949354,-0.002902,0.012523,-0.015424,31.04,66.7944619004702
11502,-8.486743,-3.574877,3.952943,-0.00168,0.002596,-0.014966,31.04,66.7685394578379
11512,-8.493324,-3.582056,3.948158,-0.000153,-0.007941,-0.014813,31.05,66.8136146220214
11522,-8.496913,-3.58385,3.955336,0.001069,-0.017257,-0.014203,31.05,66.7849404707769
11532,-8.486743,-3.58744,3.948756,0.001833,-0.032834,-0.01405,31.03,66.8015421089221
11542,-8.488539,-3.580261,3.946961,0.002291,-0.041081,-0.014508,31.05,66.8084112049522
11552,-8.475977,-3.574877,3.954139,0.002749,-0.047647,-0.01405,31.05,66.7398583439061
11562,-8.486146,-3.571886,3.975077,0.002902,-0.053756,-0.013286,31.05,66.648480992955
11572,-8.477771,-3.585645,3.979862,0.003207,-0.06017,-0.012981,31.05,66.6180202009474
11582,-8.472386,-3.589832,3.974478,0.002596,-0.065973,-0.012065,31.02,66.6387225363942
11592,-8.471789,-3.588636,3.982255,0.003054,-0.070402,-0.011301,31.02,66.5956168829481
11602,-8.479566,-3.580859,3.984648,0.001833,-0.075747,-0.011912,31.02,66.5924504845307
11612,-8.448458,-3.58744,3.991827,0.002291,-0.078343,-0.010537,31.02,66.49542925833
11622,-8.463414,-3.583252,4.00379,0.001985,-0.080481,-0.00901,31.05,66.4603893069509
11632,-8.440084,-3.588037,4.01396,0.00168,-0.082009,-0.006872,31.05,66.3622071815233
11642,-8.443673,-3.585046,4.010969,0.001527,-0.082314,-0.005651,31.03,66.3827839571701
11652,-8.435298,-3.588636,4.021737,0.000458,-0.082009,-0.00504,31.03,66.3118595129435
11662,-8.42812,-3.586841,4.042076,0.000153,-0.080023,-0.004429,31.07,66.188468426045
11672,-8.422735,-3.588636,4.046861,-0.001069,-0.076664,-0.00336,31.07,66.1535865564019
11682,-8.422137,-3.58744,4.043272,-0.00168,-0.071777,-0.001833,31.03,66.1700220488413
11692,-8.410173,-3.600002,4.059424,-0.002443,-0.067042,-0.000916,31.03,66.0714002844233
11702,-8.399406,-3.605984,4.069593,-0.002749,-0.052382,0,31.05,66.0006643360288
11712,-8.397612,-3.605386,4.067799,-0.004734,-0.043677,-0.000305,31,66.0056615828968
11722,-8.396414,-3.603591,4.077968,-0.005192,-0.036194,0.000305,31,65.9482508938192
11732,-8.397612,-3.59043,4.078567,-0.007025,-0.026725,0.001069,31.04,65.9355898076272
11742,-8.391629,-3.597011,4.085745,-0.008247,-0.015424,0.001069,31.04,65.8912494971888
11752,-8.405987,-3.585645,4.085745,-0.008552,-0.003207,0.000305,31.04,65.911666390449
11762,-8.388638,-3.592225,4.08395,-0.009316,0.008858,0.000305,31.04,65.8897912029023
11772,-8.393424,-3.588636,4.076771,-0.008858,0.019853,0.000153,31.04,65.9343410482934
11782,-8.395219,-3.58744,4.073781,-0.009774,0.030238,0.000458,31.04,65.9527465333396
11792,-8.38804,-3.592225,4.06062,-0.009163,0.04047,0.000611,31.05,66.0106644863734
11802,-8.39462,-3.582654,4.067201,-0.007789,0.050244,0.000611,31.05,65.9815224876924
11812,-8.400003,-3.576073,4.068995,-0.007636,0.060628,0.000305,31.08,65.9776621720489
11822,-8.408379,-3.588037,4.058227,-0.007789,0.069028,-0.000153,31.08,66.0629098139881
11832,-8.409575,-3.592225,4.049852,-0.008247,0.0759,-0.000764,31.06,66.1131410717734
11842,-8.417352,-3.588037,4.04387,-0.008858,0.082009,-0.001222,31.06,66.1572444486344
11852,-8.432905,-3.59043,4.035496,-0.008858,0.086285,-0.000916,31.02,66.2363264915203
11862,-8.436494,-3.586841,4.017549,-0.009316,0.090255,-0.001985,31.02,66.3347289941326
11872,-8.442476,-3.573082,4.010969,-0.010232,0.093768,-0.002596,31.04,66.3695447137636
11882,-8.452048,-3.580261,4.009174,-0.011912,0.093615,-0.003971,31.01,66.4055796501676
11892,-8.46102,-3.581457,3.994817,-0.012981,0.092546,-0.004581,31.01,66.5008009837423
11902,-8.470592,-3.580261,3.990032,-0.013286,0.089797,-0.006109,31.03,66.5449115253508
11912,-8.485548,-3.58385,3.982255,-0.013744,0.085674,-0.006261,31.03,66.6201274207832
11922,-8.489137,-3.577868,3.973282,-0.013897,0.081245,-0.006567,31.04,66.6693883569295
11932,-8.472386,-3.574279,3.969095,-0.013897,0.075136,-0.007483,31.04,66.6532537304586
11942,-8.483154,-3.579663,3.964907,-0.013897,0.068722,-0.008552,31.03,66.7024412303412
11952,-8.493324,-3.580261,3.952943,-0.013439,0.060781,-0.009316,31.03,66.7869171732877
11962,-8.502296,-3.579065,3.949354,-0.013134,0.052382,-0.010079,31.07,66.8233135171705
11972,-8.498111,-3.585046,3.952345,-0.012828,0.043524,-0.010385,31.07,66.8041665238542
11982,-8.501699,-3.566502,3.946961,-0.01237,0.033292,-0.011454,31.05,66.8237005662732
11992,-8.511271,-3.581457,3.946362,-0.011759,0.023976,-0.011759,31.05,66.8596661600348
12002,-8.497512,-3.574279,3.949952,-0.010537,0.013286,-0.011301,31.04,66.8060849111309
12012,-8.492725,-3.574279,3.947559,-0.009316,0.002138,-0.011759,31.04,66.8087244969011
12022,-8.499905,-3.575475,3.95055,-0.007789,-0.008858,-0.011301,31.03,66.8089503565282
12032,-8.499306,-3.581457,3.953541,-0.006872,-0.019395,-0.011148,31.03,66.797230266825
12042,-8.496315,-3.582654,3.951746,-0.005803,-0.030849,-0.013134,31.02,66.8014973024982
12052,-8.49452,-3.585046,3.957729,-0.004581,-0.048106,-0.01405,31.09,66.7684655705555
12062,-8.491529,-3.580859,3.9673,-0.003971,-0.054978,-0.013897,31.09,66.7083682312086
12072,-8.478967,-3.59043,3.969095,-0.002291,-0.062308,-0.014813,31.02,66.6812197316576
12082,-8.484351,-3.588037,3.969693,-0.001222,-0.067501,-0.015272,31.02,66.6871854116475
12092,-8.475977,-3.583252,3.97747,-0.000305,-0.072846,-0.015424,31.05,66.6247067580385
12102,-8.461619,-3.58385,3.985844,0,-0.078191,-0.016493,31.05,66.5512573265767
12112,-8.462217,-3.585645,3.998407,0.001069,-0.081092,-0.015577,31.04,66.4882155507457
12122,-8.455039,-3.58744,3.999005,0.002749,-0.083078,-0.016493,31.04,66.4715990597373
12132,-8.446664,-3.591627,4.012166,0.003665,-0.085216,-0.01573,31.04,66.3887161393117
12142,-8.438888,-3.589234,4.010969,0.004123,-0.085521,-0.015119,31.04,66.3764409184291
12152,-8.441879,-3.591029,4.025924,0.003971,-0.085521,-0.015119,31.02,66.3059980382854
12162,-8.425727,-3.58385,4.018147,0.004276,-0.08491,-0.01237,31.02,66.3061091841471
12172,-8.423933,-3.582056,4.03729,0.004429,-0.08262,-0.01237,31.03,66.2003051507502
12182,-8.413164,-3.588037,4.049254,0.00336,-0.079565,-0.011301,31.03,66.1201161742368
12192,-8.420941,-3.582654,4.048656,0.002902,-0.076053,-0.010232,31.02,66.1349413675598
12202,-8.418548,-3.59043,4.064209,0.001833,-0.071777,-0.008705,31.02,66.0555203308637
12212,-8.403594,-3.591029,4.073781,0.00168,-0.065668,-0.007178,30.98,65.9740079677315
12222,-8.39821,-3.589234,4.077968,-0.000305,-0.051313,-0.004123,30.98,65.9389091976108
12232,-8.394022,-3.595814,4.079165,-0.001527,-0.042761,-0.002902,31.05,65.9297003486439
12242,-8.392825,-3.599404,4.082156,-0.00336,-0.034208,-0.002291,31.02,65.9147917862978
12252,-8.380263,-3.596412,4.080959,-0.004734,-0.024129,-0.000611,31.02,65.8912798955211
12262,-8.396414,-3.597011,4.084548,-0.005956,-0.013897,-0.000764,30.98,65.9077928413051
12272,-8.401799,-3.579663,4.080959,-0.007941,-0.003971,0,30.98,65.9222021052006
12282,-8.389835,-3.586841,4.080959,-0.010079,0.007636,0.000153,31.06,65.9030580558073
12292,-8.401799,-3.582654,4.079762,-0.011148,0.018937,0.000916,31.06,65.9312019544899
12302,-8.392825,-3.583252,4.069593,-0.012065,0.028405,0.001985,31.04,65.9656888475196
12312,-8.389236,-3.579663,4.076771,-0.01237,0.037874,0.001222,31.04,65.9170915874859
12322,-8.383254,-3.592225,4.067799,-0.013439,0.046884,0.002443,31.02,65.9627720801414
12332,-8.399406,-3.576073,4.060022,-0.012675,0.055436,0.00336,31.02,66.0233802447076
12342,-8.408379,-3.592225,4.069593,-0.013134,0.06353,0.004429,31.05,66.0072578058096
12352,-8.415558,-3.591627,4.058227,-0.012828,0.071471,0.004276,31.05,66.081517379766
12362,-8.411968,-3.581457,4.046861,-0.013592,0.078038,0.004123,31.02,66.1241191421914
12372,-8.426923,-3.579663,4.045067,-0.013897,0.083383,0.003971,31.02,66.1637683247862
12382,-8.435897,-3.583252,4.031308,-0.014966,0.08827,0.002443,31.04,66.2581310517356
12392,-8.437093,-3.589234,4.021737,-0.014661,0.094684,0.002749,31.04,66.3161953095737
12402,-8.44427,-3.585645,4.015156,-0.014813,0.096669,0.001374,31.02,66.3626308744577
12412,-8.447861,-3.589832,4.017549,-0.014813,0.09728,-0.000611,31.03,66.3614260949987
12422,-8.465807,-3.583252,4.006782,-0.01405,0.096517,-0.002138,31.03,66.4497456111772
12432,-8.465208,-3.591029,4.006183,-0.014355,0.0956,-0.003207,31.04,66.4585487809607
12442,-8.470592,-3.582056,3.990032,-0.013592,0.093004,-0.004429,31.04,66.5465015933727
12452,-8.466404,-3.577868,3.97747,-0.013592,0.089644,-0.005192,31.03,66.599934520714
12462,-8.475378,-3.579663,3.975675,-0.012981,0.084758,-0.007178,31.03,66.6297060859984
12472,-8.485548,-3.570091,3.963113,-0.013134,0.078496,-0.00901,31.03,66.708445281935
12482,-8.492128,-3.567699,3.967898,-0.011759,0.072235,-0.009927,31.03,66.6949450661842
12492,-8.490931,-3.579663,3.953541,-0.01069,0.064599,-0.010996,31.08,66.7782871809081
12502,-8.505288,-3.571886,3.960122,-0.009927,0.056505,-0.011759,31.08,66.7667619281243
12512,-8.503493,-3.574877,3.935595,-0.009468,0.047189,-0.012828,31.01,66.8944054755273
12522,-8.511271,-3.576073,3.944568,-0.008247,0.037721,-0.013439,31.01,66.864400539263
12532,-8.500502,-3.576073,3.939782,-0.007483,0.027031,-0.014203,31.06,66.8672604597036
12542,-8.516056,-3.568297,3.94397,-0.005651,0.016188,-0.014355,31.06,66.8706860033467
12552,-8.496315,-3.582654,3.948158,-0.004887,0.006109,-0.014966,31.03,66.8203354092385
12562,-8.505887,-3.578466,3.932604,-0.004123,-0.005192,-0.013592,31.03,66.9181844088121
12572,-8.499306,-3.584448,3.941577,-0.003054,-0.027031,-0.01405,31.01,66.8626539251137
12582,-8.504689,-3.582654,3.948158,-0.002443,-0.036041,-0.01405,31.04,66.8376732100868
12592,-8.502296,-3.583252,3.94397,-0.004123,-0.046731,-0.01405,31.04,66.8552280465507
12602,-8.489736,-3.585645,3.957131,-0.003512,-0.055741,-0.014355,31.06,66.762198517421
12612,-8.496315,-3.582654,3.945167,-0.004734,-0.06353,-0.014355,31.06,66.8360431367365
12622,-8.496913,-3.59043,3.952943,-0.004429,-0.071013,-0.013592,31.04,66.8032557819498
12632,-8.487941,-3.58744,3.972684,-0.002902,-0.077885,-0.013286,31.04,66.6784483597977
12642,-8.469396,-3.579663,3.968496,-0.004123,-0.084147,-0.01405,31.04,66.6549035418736
12652,-8.473583,-3.588636,3.982255,-0.004581,-0.089034,-0.014355,31.04,66.5993664253773
12662,-8.467602,-3.586243,3.997808,-0.004734,-0.092241,-0.013134,31.06,66.5031888575863
12672,-8.446664,-3.58385,4.00379,-0.00504,-0.094684,-0.011301,31.06,66.4256714573121
12682,-8.452048,-3.59402,4.011567,-0.004429,-0.096364,-0.011148,31,66.4053429721845
12692,-8.446067,-3.59043,4.018147,-0.004734,-0.096669,-0.011148,31,66.3550434699006
12702,-8.433504,-3.591029,4.025326,-0.004887,-0.096669,-0.010232,31.01,66.2914088429824
12712,-8.425129,-3.591627,4.03729,-0.004276,-0.094379,-0.010232,31.01,66.2115080149766
12722,-8.425727,-3.589832,4.034299,-0.003971,-0.092088,-0.008705,31.07,66.2268223016569
12732,-8.411968,-3.609573,4.062415,-0.004123,-0.088423,-0.007483,31.07,66.0683363201369
12742,-8.399406,-3.604787,4.069593,-0.00504,-0.07758,-0.006567,31.03,65.9995646466303
12752,-8.39462,-3.602395,4.070789,-0.006109,-0.069791,-0.006414,31.08,65.980858181096
12762,-8.402397,-3.604787,4.070789,-0.006109,-0.060628,-0.005803,31.08,65.9997100314522
12772,-8.394022,-3.601198,4.073781,-0.00672,-0.050855,-0.004276,31.03,65.9628194443781
12782,-8.388638,-3.59402,4.088736,-0.006872,-0.040623,-0.003818,31.03,65.8664162910033
12792,-8.38445,-3.602395,4.082754,-0.006872,-0.028558,-0.004276,31.04,65.8964227077012
12802,-8.38146,-3.596412,4.082754,-0.007483,-0.016341,-0.002749,31.04,65.884461744001
12812,-8.383853,-3.584448,4.086941,-0.007941,-0.004276,-0.002902,31.05,65.8566658981913
12822,-8.377273,-3.582654,4.085146,-0.007789,0.008247,-0.002902,31.05,65.8502097648074
12832,-8.383254,-3.578466,4.074379,-0.007789,0.020159,-0.001374,31.04,65.9156395521757
12842,-8.392825,-3.596412,4.088138,-0.007636,0.03207,-0.001222,31.04,65.8807596471864
12852,-8.389835,-3.592823,4.077968,-0.007789,0.043677,-0.000611,31.07,65.9242143024916
12862,-8.386245,-3.589234,4.066602,-0.007483,0.054214,-0.000458,31.07,65.972716986133
12872,-8.400601,-3.589832,4.073183,-0.007789,0.064141,0.000305,31.02,65.9696207520947
12882,-8.398808,-3.578466,4.05404,-0.008094,0.073304,0.001833,31.02,66.0556347533359
12892,-8.406584,-3.588636,4.053442,-0.008552,0.081551,0.000916,31.05,66.0846788288626
12902,-8.42453,-3.589234,4.039085,-0.008705,0.088881,0.000916,31.05,66.1986663258028
12912,-8.435298,-3.589234,4.029513,-0.010079,0.097738,0.00168,31.02,66.2716540368039
12922,-8.437692,-3.589832,4.032505,-0.011301,0.101404,0.000916,31.06,66.2615963099457
12932,-8.447262,-3.582056,4.017549,-0.011912,0.103694,0.001069,31.06,66.3531924542971
12942,-8.452048,-3.586841,4.010969,-0.01237,0.104611,0.001222,31.04,66.4020521073793
12953,-8.456235,-3.579065,4.0008,-0.012217,0.103236,0.000153,31.04,66.4572372257627
12962,-8.469995,-3.588636,3.996612,-0.012828,0.101098,-0.000916,31.07,66.516599334054
12972,-8.483154,-3.59402,3.982853,-0.011759,0.099266,-0.000764,31.07,66.6209746118499
12982,-8.466404,-3.58744,3.975675,-0.012065,0.094379,-0.000764,31.06,66.6178296491328
12992,-8.476574,-3.576672,3.970889,-0.012523,0.089186,-0.001069,31.06,66.6546870825459
13002,-8.486743,-3.582654,3.960122,-0.01237,0.082925,-0.002138,31.05,66.737654886771
13012,-8.490333,-3.578466,3.96072,-0.012217,0.076053,-0.002749,31.05,66.7383070755802
13022,-8.504689,-3.588636,3.955934,-0.010843,0.068264,-0.003054,31.04,66.8021008441661
13032,-8.500502,-3.582056,3.948756,-0.010079,0.058643,-0.005192,31.04,66.8253460548856
13042,-8.514859,-3.573681,3.949952,-0.009621,0.049022,-0.005345,31.06,66.8414959140231
13052,-8.502296,-3.576073,3.939782,-0.00901,0.038179,-0.006567,31.06,66.8709716301787
13062,-8.510075,-3.583252,3.938586,-0.008705,0.027336,-0.007789,31.03,66.8995667763686
13072,-8.508877,-3.58385,3.936791,-0.007178,0.016646,-0.008094,31.03,66.9070387933312
13082,-8.518449,-3.58385,3.940979,-0.006414,0.00504,-0.009774,31.02,66.9048025243864
13092,-8.507681,-3.579065,3.944568,-0.003665,-0.017257,-0.010232,31.07,66.859578890818
13102,-8.510672,-3.58744,3.942773,-0.003818,-0.028253,-0.01069,31.07,66.8824646928262
13112,-8.499306,-3.589234,3.944568,-0.002291,-0.039248,-0.012065,31.02,66.8511237747739
13122,-8.501699,-3.580859,3.949354,-0.002596,-0.048564,-0.01237,31.02,66.8236415785006
13132,-8.495118,-3.582654,3.955336,-0.003207,-0.058643,-0.013286,31.04,66.7801707980096
13142,-8.496315,-3.586243,3.956532,-0.002596,-0.068111,-0.01405,31.04,66.7795184379054
13152,-8.486743,-3.583252,3.969095,-0.001985,-0.075595,-0.014508,31.05,66.6910928324767
13162,-8.482555,-3.585046,3.9673,-0.001833,-0.08323,-0.014203,31.05,66.6933681661525
13172,-8.468798,-3.578466,3.973282,-0.001833,-0.08995,-0.014813,31.01,66.6274610079107
13182,-8.465208,-3.586841,3.986442,-0.001527,-0.094837,-0.014203,31.01,66.5582939626514
13192,-8.466404,-3.585645,3.991827,-0.001527,-0.098197,-0.014203,31.04,66.5314965971287
13202,-8.446067,-3.582654,4.004389,-0.001985,-0.101404,-0.014661,31.04,66.420201815658
13212,-8.449057,-3.580859,4.010969,-0.002443,-0.104,-0.012981,31.04,66.3903966113984
13222,-8.43111,-3.594618,4.018745,-0.001833,-0.103694,-0.012981,31.04,66.3240746489892
13232,-8.428718,-3.588636,4.015755,-0.002596,-0.103084,-0.012828,31.04,66.3293050856159
13242,-8.421539,-3.584448,4.037888,-0.003665,-0.101251,-0.012065,31.04,66.1942441369444
13252,-8.4012,-3.582056,4.042674,-0.004429,-0.097586,-0.009927,31.05,66.1236262473425
13262,-8.408379,-3.59402,4.057031,-0.007025,-0.086437,-0.008858,31.04,66.0746311819271
13272,-8.394022,-3.601198,4.052245,-0.007025,-0.078649,-0.007789,31.04,66.075596523484
13282,-8.400003,-3.59043,4.067201,-0.008399,-0.07025,-0.006109,31,66.0001908684644
13292,-8.390432,-3.588636,4.064209,-0.008705,-0.060628,-0.005345,31,65.9936930435963
13302,-8.38804,-3.591029,4.066004,-0.009163,-0.050396,-0.004276,31,65.9813532042527
13312,-8.376674,-3.588037,4.074379,-0.010385,-0.039095,-0.003665,31,65.9102823349309
13322,-8.389236,-3.591627,4.088138,-0.011148,-0.027336,-0.002138,31.04,65.8686239384704
13332,-8.376076,-3.582654,4.07737,-0.012065,-0.01405,-0.000916,31.04,65.8883565205033
13342,-8.383254,-3.58744,4.084548,-0.012981,-0.001833,-0.000153,31.02,65.8706560379111
13352,-8.382057,-3.592823,4.094718,-0.01237,0.01069,0.001222,31.02,65.8198473316907
13362,-8.379665,-3.59043,4.082156,-0.012828,0.02306,0.000764,31,65.8782012939481
13372,-8.38445,-3.584448,4.076173,-0.012981,0.035736,0.001985,31,65.9143201033953
13382,-8.376674,-3.586841,4.074379,-0.013134,0.047495,0.003054,31.04,65.9091791935708
13392,-8.39821,-3.589234,4.075575,-0.012828,0.059712,0.003054,31.04,65.9514273269681
13402,-8.385049,-3.594618,4.073781,-0.013134,0.069791,0.002596,31.03,65.9374985468907
13412,-8.394022,-3.580859,4.066602,-0.012981,0.07926,0.00336,31.03,65.9817319349596
13422,-8.410173,-3.58744,4.043272,-0.013439,0.088575,0.002749,31.05,66.1445382135612
13432,-8.407781,-3.576672,4.048058,-0.011912,0.103236,0.002596,31.05,66.1045550511744
13442,-8.435298,-3.580859,4.029513,-0.01069,0.108276,0.002138,31.04,66.264109371118
13452,-8.440681,-3.597011,4.028915,-0.010996,0.111177,0.00168,31.02,66.2931896747263
13462,-8.44128,-3.580859,4.011567,-0.011148,0.113621,0.000764,31.02,66.3708437448835
13472,-8.446067,-3.59043,4.001996,-0.011148,0.114537,-0.000153,31.04,66.4397102633651
13482,-8.451449,-3.58744,3.997808,-0.010079,0.113774,-0.001374,31.04,66.4703301753451
13492,-8.470592,-3.581457,3.995416,-0.010537,0.111788,-0.001833,31.04,66.5177478096401
13502,-8.468199,-3.591029,3.988237,-0.010232,0.108581,-0.003207,31.04,66.5588590318248
13512,-8.483753,-3.583252,3.964907,-0.009621,0.103694,-0.003665,31.09,66.7068431680683
13522,-8.489736,-3.589234,3.966104,-0.009927,0.096822,-0.004887,31.09,66.7182666582756
13532,-8.49452,-3.585046,3.961916,-0.009774,0.090408,-0.006109,31.05,66.7464983843187
13542,-8.511271,-3.584448,3.948158,-0.009468,0.082009,-0.007483,31.05,66.852846582117
13552,-8.500502,-3.576672,3.942175,-0.009163,0.073151,-0.008094,31.04,66.8552104558961
13562,-8.507083,-3.59043,3.939184,-0.00901,0.063377,-0.008858,31.04,66.8964974215806
13572,-8.522635,-3.586243,3.925426,-0.00901,0.052687,-0.008247,31.05,66.997113232591
13582,-8.519646,-3.589234,3.921238,-0.008705,0.040317,-0.01069,31.05,67.0155538908514
13592,-8.513064,-3.572484,3.923631,-0.009316,0.028711,-0.012065,31.01,66.9749592700461
13602,-8.518449,-3.575475,3.931407,-0.007789,0.003207,-0.011759,31.01,66.9477860750742
13612,-8.522635,-3.576672,3.929015,-0.007789,-0.009621,-0.011912,31.02,66.9699999022792
13622,-8.514859,-3.578466,3.925426,-0.007178,-0.022144,-0.012217,31.04,66.9743955926609
13632,-8.517851,-3.589832,3.932604,-0.00733,-0.034514,-0.012675,31.04,66.9527042851856
13642,-8.506484,-3.589234,3.931407,-0.006872,-0.046426,-0.013439,31.04,66.9350619176472
13652,-8.505887,-3.586243,3.925426,-0.00672,-0.05681,-0.01237,31.04,66.96266173641
13662,-8.503493,-3.591029,3.949952,-0.006414,-0.067348,-0.012981,31.02,66.8330928756374
13672,-8.499306,-3.589234,3.959523,-0.005498,-0.076969,-0.014203,31.02,66.772649515011
13682,-8.490931,-3.58385,3.960122,-0.007025,-0.085368,-0.014203,31.04,66.7474079035741
13692,-8.486146,-3.59402,3.9673,-0.005956,-0.092088,-0.013592,31.04,66.7087403756908
13702,-8.474181,-3.589832,3.976273,-0.006414,-0.097891,-0.013592,31.02,66.6330504999301
13712,-8.474779,-3.586243,3.981657,-0.006261,-0.103084,-0.013286,31.02,66.6028848540341
13722,-8.464012,-3.600002,3.987041,-0.005651,-0.106901,-0.013897,31.04,66.5643432231652
13732,-8.452048,-3.593421,4.000201,-0.005345,-0.108123,-0.012523,31.04,66.4643799847281
13742,-8.437093,-3.588636,4.010371,-0.005803,-0.109498,-0.013286,31.05,66.3752510439812
13752,-8.441879,-3.601198,4.019942,-0.006109,-0.108887,-0.012675,31.05,66.3464795142235
13762,-8.427522,-3.585046,4.042674,-0.005345,-0.106291,-0.010843,31.03,66.1824418453114
13772,-8.413164,-3.593421,4.042674,-0.005956,-0.102473,-0.010079,31.03,66.1594841856454
13782,-8.400003,-3.593421,4.045067,-0.005651,-0.092393,-0.008858,31,66.1188838730492
13792,-8.408977,-3.598207,4.062415,-0.005956,-0.086285,-0.009621,31.02,66.0515555325071
13802,-8.397612,-3.591627,4.06062,-0.005651,-0.078343,-0.009163,31.02,66.0306246435733
13812,-8.397612,-3.599404,4.061816,-0.005651,-0.069791,-0.007941,31.05,66.031488055549
13822,-8.400003,-3.591029,4.079762,-0.00504,-0.059712,-0.00733,31.05,65.9350248504369
13832,-8.396414,-3.597609,4.070191,-0.005803,-0.049938,-0.006261,31.03,65.9834341505061
13842,-8.373683,-3.592823,4.076173,-0.00672,-0.038485,-0.005498,31.03,65.8988593771956
13852,-8.379665,-3.586841,4.091727,-0.00672,-0.026878,-0.004581,31.05,65.8247972709042
13862,-8.383853,-3.595814,4.075575,-0.006261,-0.015119,-0.00336,31.05,65.9266368270166
13872,-8.382057,-3.59043,4.083352,-0.00672,-0.003207,-0.002596,31.02,65.8770945447939
13882,-8.377273,-3.593421,4.084548,-0.008552,0.00901,-0.001069,31.02,65.863287828176
13892,-8.375478,-3.588037,4.079165,-0.008094,0.020769,-0.000458,31.03,65.8826310345739
13902,-8.383853,-3.583252,4.077968,-0.008552,0.033292,0.000916,31.03,65.9025339089286
13912,-8.389835,-3.588037,4.069593,-0.009163,0.044135,0.001222,31.03,65.9636584679604
13922,-8.386844,-3.597609,4.066602,-0.010079,0.055741,0.001833,31.03,65.9817046028315
13932,-8.395219,-3.594618,4.068995,-0.010232,0.066279,0.002596,31.06,65.9843859249264
13942,-8.401799,-3.595814,4.041477,-0.01069,0.075747,0.003512,31.06,66.1437238870841
13952,-8.412566,-3.582056,4.04387,-0.011912,0.092699,0.003971,31.04,66.1416138566819
