t_ms,ax,ay,az,gx,gy,gz,temp,ang_deg
12,-8.650054,-3.801597,3.945167,-0.204487,-0.229533,0.059101,31.66,67.337466138384
22,-8.635697,-3.823731,3.95055,-0.207694,-0.244499,0.035888,31.68,67.3006030991134
32,-8.632108,-3.824329,3.957131,-0.210138,-0.258091,0.012523,31.68,67.2600584870813
42,-8.60818,-3.832105,3.969095,-0.214719,-0.27153,-0.01069,31.68,67.1576923508697
52,-8.587242,-3.849453,3.97388,-0.217926,-0.283747,-0.034208,31.68,67.1067404755
62,-8.573483,-3.85723,3.982255,-0.221744,-0.295353,-0.05849,31.7,67.0429982222288
72,-8.544172,-3.860819,3.987639,-0.225409,-0.306043,-0.08094,31.7,66.959747191949
82,-8.519646,-3.862016,3.995416,-0.228158,-0.316886,-0.10232,31.71,66.8712633561228
92,-8.502296,-3.870391,3.989433,-0.22938,-0.325591,-0.121409,31.71,66.8749738395493
102,-8.468199,-3.888935,4.007978,-0.231671,-0.33338,-0.140346,31.71,66.7269590742754
112,-8.427522,-3.890131,4.010969,-0.23274,-0.338419,-0.155312,31.71,66.6297869834507
122,-8.332406,-3.875774,4.055236,-0.233809,-0.342695,-0.165697,31.71,66.1890677385896
132,-8.283354,-3.876971,4.067799,-0.234114,-0.339947,-0.175776,31.72,66.0217223593677
142,-8.239087,-3.887738,4.085745,-0.233045,-0.332769,-0.172875,31.72,65.8448762970299
152,-8.185846,-3.881158,4.103691,-0.232434,-0.322079,-0.166766,31.71,65.6304472881267
162,-8.12124,-3.88056,4.127619,-0.230143,-0.306196,-0.152869,31.71,65.3644383492404
172,-8.075178,-3.888935,4.13719,-0.227547,-0.287565,-0.135459,31.68,65.2222276682724
182,-8.032107,-3.872185,4.155136,-0.22434,-0.263894,-0.112857,31.68,65.0148655349276
192,-7.996215,-3.87398,4.173681,-0.219301,-0.237779,-0.084147,31.67,64.8390128003301
202,-7.959126,-3.862614,4.17727,-0.214108,-0.208,-0.051924,31.67,64.7245461228907
212,-7.926824,-3.859025,4.197011,-0.207694,-0.176082,-0.016341,31.7,64.5430796824054
222,-7.907681,-3.842873,4.202993,-0.201127,-0.143095,0.022297,31.7,64.4499635063737
232,-7.912467,-3.841677,4.209573,-0.193492,-0.108887,0.062766,31.68,64.4246673261556
242,-7.902895,-3.841079,4.210171,-0.186314,-0.073762,0.103542,31.68,64.3989753198927
252,-7.924431,-3.82732,4.213761,-0.177762,-0.039248,0.144622,31.7,64.4139185969767
262,-7.93819,-3.817749,4.201797,-0.168446,-0.005192,0.182954,31.7,64.4981596338033
272,-7.9681,-3.809374,4.208975,-0.160658,0.026267,0.220675,31.74,64.5190895709994
282,-8.007581,-3.798008,4.205984,-0.152869,0.0562,0.25244,31.74,64.6121470282292
292,-8.126026,-3.78066,4.182654,-0.144775,0.083841,0.279776,31.7,64.9822000046108
302,-8.175676,-3.772285,4.167699,-0.137597,0.127824,0.319177,31.7,65.1618780379016
312,-8.244471,-3.756732,4.155136,-0.125075,0.143401,0.328187,31.69,65.3627580460168
322,-8.291729,-3.751946,4.13061,-0.120035,0.155465,0.333227,31.69,65.5886620574254
332,-8.353344,-3.75733,4.103691,-0.116675,0.163406,0.332463,31.69,65.866325349267
342,-8.405388,-3.742973,4.082156,-0.113774,0.166613,0.325591,31.71,66.0750937904417
352,-8.437692,-3.736991,4.062415,-0.110567,0.165392,0.315817,31.71,66.2400755241508
362,-8.472386,-3.732804,4.0337,-0.10797,0.159589,0.301767,31.7,66.4578594892981
372,-8.496913,-3.726821,4.01396,-0.106901,0.149967,0.286496,31.7,66.6058049298013
382,-8.540583,-3.728616,3.987041,-0.105222,0.135307,0.266948,31.74,66.8368681407377
392,-8.550752,-3.725027,3.970291,-0.103542,0.116981,0.246637,31.74,66.941445866011
402,-8.583653,-3.713661,3.94397,-0.102167,0.094684,0.226784,31.75,67.1348706561619
412,-8.585447,-3.702295,3.938586,-0.101098,0.070708,0.207083,31.75,67.1566113770813
422,-8.586643,-3.70409,3.927818,-0.10064,0.043219,0.185856,31.71,67.2166348442588
432,-8.582456,-3.708277,3.912863,-0.100335,0.016341,0.167377,31.71,67.2897997853104
442,-8.574082,-3.696313,3.921836,-0.100182,-0.012065,0.15012,31.72,67.2158206520282
452,-8.562716,-3.690929,3.915854,-0.100793,-0.038943,0.133169,31.72,67.2194907614664
462,-8.548957,-3.691527,3.957729,-0.10232,-0.064599,0.117897,31.71,66.9736803049837
472,-8.515458,-3.681358,3.968496,-0.104458,-0.087659,0.092241,31.71,66.8401532189879
482,-8.519047,-3.680161,3.987041,-0.112399,-0.125533,0.081092,31.72,66.7497212916932
492,-8.487342,-3.678366,4.007978,-0.116828,-0.139583,0.070555,31.73,66.5735084245168
502,-8.48136,-3.671786,4.025326,-0.122326,-0.148898,0.060628,31.73,66.4647202834631
512,-8.478369,-3.662813,4.049254,-0.129045,-0.155618,0.05116,31.74,66.3257704231681
522,-8.46102,-3.669992,4.063612,-0.136223,-0.15913,0.04215,31.74,66.2211787170555
532,-8.447262,-3.652644,4.091727,-0.143401,-0.159589,0.032681,31.7,66.0300443074034
542,-8.456235,-3.647858,4.1007,-0.151495,-0.157145,0.024129,31.7,65.9980834649078
552,-8.442476,-3.65384,4.106084,-0.158978,-0.153327,0.014203,31.71,65.9463789376847
562,-8.446067,-3.656233,4.118048,-0.167224,-0.148135,0.004429,31.71,65.8941312472607
572,-8.420941,-3.659822,4.121637,-0.17486,-0.142179,-0.00504,31.69,65.8252062092147
582,-8.422735,-3.659224,4.128217,-0.182038,-0.136376,-0.013897,31.69,65.7943249301782
592,-8.407781,-3.655635,4.122834,-0.189215,-0.130267,-0.022297,31.71,65.7869151552924
602,-8.397013,-3.654438,4.121637,-0.195477,-0.124006,-0.028863,31.71,65.7689214047382
612,-8.38146,-3.665206,4.109075,-0.201586,-0.11973,-0.034056,31.73,65.8110386980777
622,-8.365907,-3.679563,4.089334,-0.206014,-0.116675,-0.037263,31.73,65.8942097580309
632,-8.347363,-3.673581,4.068397,-0.209985,-0.114537,-0.038943,31.74,65.9584391588549
642,-8.310272,-3.696313,4.066004,-0.212276,-0.113774,-0.032529,31.74,65.9130848297664
652,-8.282157,-3.704688,4.052843,-0.213803,-0.11469,-0.025198,31.72,65.9299688401924
662,-8.269596,-3.707081,4.03071,-0.214108,-0.116523,-0.015272,31.73,66.0220014743857
672,-8.257631,-3.717848,4.034299,-0.213345,-0.119577,-0.004276,31.73,65.9877790381655
682,-8.240881,-3.716652,4.018147,-0.211512,-0.120799,0.010385,31.68,66.0360801718751
692,-8.254042,-3.729812,4.023531,-0.209527,-0.122173,0.022907,31.68,66.0485173470733
702,-8.23131,-3.733402,4.022335,-0.206931,-0.123547,0.038026,31.7,66.0096394977323
712,-8.22772,-3.729812,4.0337,-0.205403,-0.124311,0.051618,31.7,65.9383167386209
722,-8.232506,-3.741776,4.042674,-0.203113,-0.124158,0.064904,31.7,65.9128592985658
732,-8.25165,-3.746562,4.057629,-0.201738,-0.123242,0.075136,31.7,65.8797871289374
742,-8.253444,-3.747759,4.073183,-0.200364,-0.12034,0.084299,31.75,65.8029540731265
752,-8.274979,-3.749553,4.091727,-0.198837,-0.116675,0.090561,31.75,65.7536579283984
762,-8.285149,-3.750151,4.107878,-0.198226,-0.11133,0.094226,31.73,65.6915309005139
772,-8.30489,-3.756732,4.110869,-0.198531,-0.10568,0.094531,31.73,65.7247346927882
782,-8.317451,-3.758526,4.127619,-0.198531,-0.098502,0.091019,31.69,65.6660521407954
792,-8.333604,-3.747759,4.141378,-0.198073,-0.090713,0.085827,31.69,65.6186945634931
802,-8.337193,-3.759723,4.159923,-0.197768,-0.081398,0.078496,31.73,65.5416399462724
812,-8.344969,-3.75075,4.165306,-0.198378,-0.070402,0.069944,31.73,65.5217520915509
822,-8.334201,-3.75733,4.161119,-0.196851,-0.04948,0.048564,31.71,65.5266651289873
832,-8.326425,-3.762115,4.150351,-0.195019,-0.038026,0.038943,31.67,65.5705123200219
842,-8.328219,-3.775276,4.155735,-0.192575,-0.026114,0.030391,31.67,65.5592071619624
852,-8.321639,-3.766901,4.145566,-0.190437,-0.014813,0.022907,31.71,65.589753675703
862,-8.319845,-3.762115,4.143172,-0.186008,-0.003512,0.01573,31.71,65.5936920300652
872,-8.315658,-3.759125,4.124628,-0.180816,0.007178,0.011912,31.69,65.6783737874725
882,-8.289934,-3.759125,4.115655,-0.176082,0.01741,0.009163,31.69,65.6699145604619
892,-8.288139,-3.768696,4.101896,-0.170279,0.025809,0.00901,31.71,65.7473371924031
902,-8.289336,-3.769294,4.08754,-0.163865,0.033445,0.011454,31.71,65.8256240654855
912,-8.286943,-3.764508,4.066004,-0.156687,0.040164,0.015577,31.68,65.9287587802688
922,-8.283952,-3.767499,4.051647,-0.150578,0.045204,0.020769,31.68,66.0006700491649
932,-8.286345,-3.769892,4.036692,-0.143706,0.047647,0.0281,31.71,66.0866909974068
942,-8.291131,-3.759125,4.031308,-0.137597,0.048717,0.038026,31.71,66.114794163094
952,-8.310272,-3.767499,4.007978,-0.131794,0.048258,0.048106,31.72,66.2860675787242
962,-8.32463,-3.772285,4.000201,-0.127824,0.045357,0.058948,31.72,66.3617283188488
972,-8.341978,-3.751946,3.986442,-0.122478,0.040164,0.07086,31.7,66.451243470841
982,-8.356933,-3.768696,3.966702,-0.11973,0.032223,0.081245,31.7,66.6020550637006
992,-8.39821,-3.769294,3.953541,-0.117897,0.010996,0.104153,31.72,66.7571834412405
1002,-8.417951,-3.759723,3.940381,-0.116064,-0.002596,0.114079,31.69,66.858096696761
1012,-8.425727,-3.767499,3.936791,-0.116981,-0.018173,0.124311,31.69,66.8999976346997
1022,-8.444869,-3.765106,3.933203,-0.118202,-0.034819,0.131794,31.68,66.9557376954482
1032,-8.458031,-3.762115,3.922434,-0.119424,-0.05284,0.139125,31.68,67.0363207358768
1042,-8.459227,-3.769892,3.926622,-0.122326,-0.072235,0.145386,31.71,67.0238142597106
1052,-8.474779,-3.766901,3.934398,-0.125075,-0.092699,0.149815,31.71,67.0119410657973
1062,-8.478967,-3.771089,3.92722,-0.128129,-0.112705,0.153174,31.73,67.0617904793824
1072,-8.478369,-3.783651,3.9338,-0.13042,-0.131031,0.157298,31.73,67.0374695326839
1082,-8.487342,-3.778865,3.942175,-0.13271,-0.150578,0.158825,31.72,67.0075271416893
1092,-8.469995,-3.781856,3.958327,-0.134696,-0.169515,0.158825,31.72,66.8905990626491
1102,-8.477771,-3.779463,3.957131,-0.13607,-0.185856,0.158367,31.69,66.9104986228016
1112,-8.462815,-3.78724,3.982853,-0.136834,-0.202502,0.157451,31.69,66.7528037203506
1122,-8.440681,-3.784249,3.993023,-0.137139,-0.215788,0.155618,31.71,66.651579268441
1132,-8.432307,-3.775874,4.005585,-0.136223,-0.226326,0.153938,31.71,66.5610034046119
1142,-8.412566,-3.784847,4.032505,-0.135918,-0.235794,0.149967,31.7,66.3879884817407
1152,-8.39462,-3.77408,4.081557,-0.135459,-0.240834,0.145844,31.7,66.084846479938
1162,-8.368299,-3.78066,4.107878,-0.13439,-0.24343,0.135765,31.68,65.8986393332563
1172,-8.35454,-3.771089,4.126423,-0.134848,-0.237627,0.128893,31.69,65.7637958336125
1182,-8.333604,-3.759723,4.164708,-0.135154,-0.229074,0.121868,31.69,65.5090741598608
1192,-8.330013,-3.756732,4.176074,-0.136834,-0.217315,0.112705,31.73,65.4394421101419
1202,-8.31446,-3.753741,4.21077,-0.139277,-0.202044,0.101709,31.73,65.2229701793059
1212,-8.304291,-3.748955,4.234698,-0.14279,-0.183718,0.089492,31.71,65.072222768784
1222,-8.288139,-3.734598,4.258028,-0.145844,-0.162948,0.076969,31.71,64.9018497215117
1232,-8.288139,-3.721437,4.287939,-0.150884,-0.140041,0.063072,31.73,64.7343084779393
1242,-8.280362,-3.713063,4.28734,-0.156992,-0.113926,0.048411,31.73,64.7117592872237
1252,-8.274979,-3.698706,4.3005,-0.164323,-0.086437,0.032987,31.71,64.6175062763008
1262,-8.275578,-3.697509,4.295117,-0.171959,-0.059407,0.01741,31.71,64.6454306390761
1272,-8.27139,-3.689733,4.297509,-0.178678,-0.030238,0.003512,31.7,64.6159587350765
1282,-8.264212,-3.677768,4.296313,-0.187536,-0.002291,-0.011606,31.7,64.5941156801777
1292,-8.255836,-3.669992,4.278367,-0.19563,0.023976,-0.024893,31.71,64.660436758592
1302,-8.266603,-3.662215,4.251448,-0.203724,0.049938,-0.035736,31.71,64.816367262144
1312,-8.266603,-3.649653,4.239483,-0.209985,0.073151,-0.04444,31.73,64.8661101430706
1322,-8.260622,-3.645465,4.198806,-0.214719,0.092852,-0.049633,31.73,65.0604953956119
1332,-8.258827,-3.639483,4.13719,-0.218384,0.110414,-0.054062,31.73,65.3730543231988
1342,-8.245069,-3.6341,4.102495,-0.220217,0.133627,-0.050244,31.73,65.5199820560644
1352,-8.255239,-3.64068,4.058227,-0.218995,0.138972,-0.04444,31.69,65.7820174195888
1362,-8.260622,-3.646064,4.020541,-0.214719,0.141263,-0.033903,31.73,65.9981263919132
1372,-8.267202,-3.638287,3.981059,-0.208305,0.139125,-0.020617,31.73,66.2142978357296
1382,-8.265409,-3.641278,3.947559,-0.200822,0.134085,-0.00504,31.7,66.3914635284526
1392,-8.261818,-3.638287,3.915256,-0.191812,0.126449,0.012828,31.7,66.5533394220307
1402,-8.291131,-3.641278,3.889533,-0.18158,0.115148,0.033292,31.7,66.7553906744068
1412,-8.300702,-3.649653,3.872783,-0.170126,0.100945,0.054672,31.7,66.8726445830097
1422,-8.310272,-3.649653,3.866802,-0.15852,0.08491,0.075747,31.72,66.9245734426052
1432,-8.319845,-3.647858,3.844668,-0.147982,0.066584,0.097433,31.72,67.0611622458241
1442,-8.350951,-3.655036,3.842275,-0.136376,0.047495,0.120035,31.68,67.1447449727013
1452,-8.371889,-3.643072,3.838686,-0.124922,0.026725,0.140499,31.68,67.1962427467662
1462,-8.386245,-3.664608,3.847061,-0.115454,0.00504,0.158978,31.7,67.2003761265187
1472,-8.400601,-3.662813,3.850052,-0.106443,-0.015577,0.176082,31.7,67.212267094947
1482,-8.423933,-3.679563,3.868596,-0.100182,-0.036194,0.189521,31.74,67.1765389355059
1492,-8.441879,-3.679563,3.893123,-0.0956,-0.0562,0.200822,31.74,67.0835501434668
1502,-8.48136,-3.690929,3.933203,-0.092241,-0.074526,0.20861,31.73,66.9635298011488
1512,-8.502895,-3.694518,3.945765,-0.090713,-0.10736,0.210443,31.73,66.9449220841538
1522,-8.509476,-3.704688,3.98405,-0.094379,-0.121562,0.208,31.72,66.7675005239705
1532,-8.532805,-3.717848,4.001398,-0.100945,-0.134238,0.199295,31.71,66.7367836392484
1542,-8.548359,-3.714857,4.029513,-0.106749,-0.145691,0.187688,31.71,66.6201670765559
1552,-8.559127,-3.729812,4.039085,-0.114079,-0.155312,0.173791,31.68,66.6060865023441
1562,-8.562119,-3.737589,4.061218,-0.122478,-0.163712,0.155312,31.68,66.5049012142166
1572,-8.566306,-3.742374,4.066602,-0.131336,-0.170737,0.134848,31.68,66.4900383774043
1582,-8.56152,-3.753741,4.079762,-0.140652,-0.176998,0.112094,31.68,66.4226377796667
1592,-8.556733,-3.756732,4.089932,-0.149662,-0.180969,0.088575,31.71,66.3631354059238
1602,-8.547761,-3.762714,4.09412,-0.158367,-0.18387,0.064294,31.71,66.3284988286328
1612,-8.544172,-3.775276,4.106084,-0.166155,-0.186619,0.04047,31.71,66.2709957876777
1622,-8.536395,-3.78066,4.101896,-0.173944,-0.187994,0.014813,31.71,66.281381351826
1632,-8.522038,-3.781258,4.09412,-0.180663,-0.188452,-0.007941,31.69,66.2922811968334
1642,-8.495118,-3.798008,4.094718,-0.18555,-0.189063,-0.029932,31.69,66.2489151567373
1652,-8.480762,-3.802794,4.104289,-0.189979,-0.187994,-0.049938,31.7,66.1741958225388
1662,-8.456833,-3.823133,4.086343,-0.192881,-0.188605,-0.067195,31.7,66.2362089833008
1672,-8.432307,-3.81057,4.086941,-0.193644,-0.187994,-0.082314,31.71,66.170288844399
1682,-8.387442,-3.808775,4.076173,-0.194561,-0.188146,-0.104458,31.71,66.1306986802081
1692,-8.362316,-3.815954,4.076771,-0.192728,-0.187383,-0.111483,31.71,66.0817131264026
1702,-8.346166,-3.816552,4.076173,-0.190285,-0.186772,-0.115148,31.72,66.0514252128012
1712,-8.328817,-3.812365,4.079165,-0.186619,-0.185856,-0.114995,31.72,65.995167953727
1722,-8.273782,-3.80399,4.072584,-0.182954,-0.184023,-0.112094,31.68,65.9046561564155
1732,-8.260024,-3.808775,4.082754,-0.179136,-0.180816,-0.106138,31.68,65.8266798099378
1742,-8.236693,-3.808775,4.092923,-0.175471,-0.17654,-0.096669,31.73,65.7233619619536
1752,-8.213962,-3.800999,4.106084,-0.171195,-0.170431,-0.084147,31.73,65.5975616958207
1762,-8.179864,-3.796811,4.113262,-0.166919,-0.162185,-0.068722,31.69,65.4816867248285
1772,-8.158927,-3.785445,4.122235,-0.163865,-0.153327,-0.051618,31.69,65.377271718783
1782,-8.123035,-3.78724,4.128816,-0.160505,-0.141415,-0.031154,31.7,65.2656364236009
1792,-8.123632,-3.768696,4.154539,-0.158825,-0.127976,-0.009621,31.7,65.1123644590482
1802,-8.099107,-3.769294,4.156333,-0.155771,-0.111941,0.014813,31.73,65.049087587101
1812,-8.087142,-3.766901,4.17069,-0.153633,-0.093768,0.041081,31.73,64.9442553771627
1822,-8.088339,-3.758526,4.181458,-0.152258,-0.074984,0.06689,31.74,64.8814880518361
1832,-8.070992,-3.744768,4.184449,-0.149509,-0.053603,0.093157,31.74,64.8124548226821
1842,-8.082357,-3.742374,4.182056,-0.147524,-0.031001,0.119119,31.71,64.8481220053608
1852,-8.090134,-3.728616,4.195815,-0.146455,-0.007025,0.144011,31.71,64.7788436683341
1862,-8.10808,-3.72383,4.188636,-0.140041,0.039554,0.190132,31.72,64.8520243874471
1872,-8.123632,-3.713063,4.19402,-0.137139,0.062003,0.209374,31.7,64.8475464794195
1882,-8.160722,-3.703491,4.177869,-0.133474,0.084605,0.227089,31.7,65.0056223611356
1892,-8.186445,-3.71067,4.186243,-0.130572,0.105985,0.241139,31.71,65.0262021142957
1902,-8.218747,-3.696313,4.170092,-0.126449,0.124158,0.251066,31.71,65.1680103216116
1912,-8.260622,-3.702295,4.152744,-0.123242,0.140346,0.256563,31.76,65.3567988817311
1922,-8.291131,-3.690929,4.132405,-0.120799,0.154549,0.257174,31.76,65.5186466755246
1932,-8.3348,-3.678366,4.125825,-0.118661,0.164934,0.253967,31.7,65.6356481260675
1942,-8.375478,-3.668197,4.098905,-0.117897,0.171806,0.247706,31.7,65.8540548011089
1952,-8.425727,-3.667001,4.07737,-0.116217,0.174707,0.236558,31.73,66.0722990431624
1962,-8.439486,-3.677171,4.052843,-0.11469,0.173791,0.222813,31.73,66.2385301601871
1972,-8.502296,-3.662813,4.028317,-0.112857,0.169515,0.20632,31.71,66.4846517120445
1982,-8.525627,-3.675375,4.001398,-0.112552,0.160963,0.185398,31.71,66.6842356064593
1992,-8.556136,-3.672385,3.978666,-0.112857,0.147829,0.162337,31.69,66.8624864420617
2002,-8.586046,-3.67059,3.959523,-0.113316,0.131031,0.138972,31.69,67.0213881415128
2012,-8.587242,-3.672385,3.94397,-0.112705,0.11133,0.114079,31.71,67.106294575936
2022,-8.610572,-3.667001,3.908078,-0.112094,0.088423,0.090408,31.71,67.3356013442742
2032,-8.616553,-3.673581,3.891926,-0.113163,0.036346,0.042913,31.72,67.4373828583374
2042,-8.614162,-3.674777,3.888935,-0.11469,0.00733,0.02138,31.74,67.4492380735487
2052,-8.6016,-3.676572,3.875774,-0.115759,-0.02138,0.002749,31.74,67.4944754623013
2062,-8.584849,-3.675974,3.867399,-0.116217,-0.050244,-0.013592,31.7,67.5044073028419
2072,-8.560324,-3.690331,3.865605,-0.117133,-0.079412,-0.027031,31.7,67.477180073699
2082,-8.553144,-3.68375,3.882953,-0.118508,-0.106138,-0.035736,31.73,67.3661737899653
2092,-8.528618,-3.684349,3.893123,-0.119882,-0.131183,-0.041844,31.73,67.2640054533367
2102,-8.515458,-3.690929,3.897908,-0.121868,-0.155312,-0.045204,31.7,67.2180657547014
2112,-8.478369,-3.684947,3.915854,-0.122784,-0.177304,-0.044746,31.7,67.0431906133195
2122,-8.459227,-3.689135,3.923033,-0.124311,-0.19563,-0.041692,31.69,66.9700340161964
2132,-8.431709,-3.697509,3.946362,-0.126144,-0.210596,-0.035277,31.69,66.7983196900579
2142,-8.418548,-3.697509,3.970291,-0.128129,-0.223271,-0.026267,31.69,66.6453357315543
2152,-8.39821,-3.698107,3.982853,-0.130725,-0.233809,-0.016493,31.69,66.537555917083
2162,-8.392226,-3.708277,4.010371,-0.13271,-0.240375,-0.005803,31.68,66.3899929751996
2172,-8.364112,-3.705884,4.030112,-0.134696,-0.244957,0.004734,31.68,66.2250791774895
2182,-8.350951,-3.706482,4.045067,-0.136987,-0.247095,0.015272,31.69,66.1193496793438
2192,-8.346166,-3.724428,4.078567,-0.139888,-0.246026,0.025198,31.69,65.9507640108058
2202,-8.313264,-3.714857,4.107878,-0.142332,-0.243277,0.043219,31.7,65.7178917856046
2212,-8.319845,-3.729812,4.119244,-0.147524,-0.232434,0.048411,31.71,65.6870941109117
2222,-8.313862,-3.735196,4.137789,-0.150273,-0.223424,0.053451,31.71,65.5826873502883
2232,-8.301898,-3.74058,4.142574,-0.154243,-0.21365,0.056658,31.7,65.5371310226376
2242,-8.282756,-3.746562,4.161119,-0.156687,-0.201891,0.060476,31.7,65.4048307747314
2252,-8.28455,-3.744768,4.168297,-0.16081,-0.189215,0.06017,31.69,65.3695763378208
2262,-8.261818,-3.751348,4.17727,-0.163559,-0.174555,0.059254,31.69,65.2797835595818
2272,-8.274979,-3.754937,4.178466,-0.166308,-0.15913,0.058185,31.68,65.3058233841486
2282,-8.263015,-3.761517,4.181458,-0.169515,-0.142637,0.056505,31.68,65.2706780462854
2292,-8.261221,-3.765106,4.187439,-0.171653,-0.126144,0.054214,31.73,65.2391981698582
2302,-8.249854,-3.766901,4.179065,-0.172875,-0.109039,0.051313,31.73,65.2597664207743
2312,-8.257631,-3.776472,4.183851,-0.174555,-0.092546,0.047342,31.72,65.2613616668468
2322,-8.251051,-3.76391,4.171288,-0.174555,-0.07758,0.043524,31.72,65.2999399591854
2332,-8.252247,-3.771089,4.173681,-0.174402,-0.061697,0.040775,31.72,65.2972235467785
2342,-8.249256,-3.777071,4.16411,-0.174097,-0.047189,0.035888,31.72,65.3465733074538
2352,-8.256434,-3.775874,4.160521,-0.172417,-0.033139,0.032376,31.71,65.3797153190073
2362,-8.262416,-3.773481,4.143172,-0.170279,-0.01909,0.029169,31.71,65.4808592952929
2372,-8.267202,-3.76391,4.149154,-0.16753,-0.007483,0.026573,31.66,65.4505469505707
2382,-8.276773,-3.762714,4.134199,-0.159283,0.016341,0.022907,31.7,65.5481665368435
2392,-8.270193,-3.760919,4.129414,-0.15516,0.026725,0.022907,31.7,65.5571740926868
2402,-8.283354,-3.76391,4.13719,-0.151495,0.036805,0.022144,31.72,65.5479489203715
2412,-8.286345,-3.746562,4.112664,-0.147219,0.046273,0.023824,31.72,65.6655712630473
2422,-8.280961,-3.739383,4.113262,-0.143095,0.054978,0.025962,31.74,65.643829577591
2432,-8.287541,-3.748357,4.110869,-0.139735,0.062156,0.026725,31.74,65.6792863631531
2442,-8.295916,-3.732804,4.112664,-0.136528,0.070097,0.028711,31.69,65.6728263113394
2452,-8.308478,-3.726821,4.103691,-0.134543,0.0759,0.032529,31.69,65.7410135051728
2462,-8.333604,-3.729214,4.094718,-0.132405,0.080634,0.036805,31.71,65.844103724328
2472,-8.331809,-3.719045,4.08395,-0.129656,0.085827,0.040928,31.71,65.8868415772272
2482,-8.338987,-3.715455,4.075575,-0.127365,0.089339,0.045815,31.7,65.9425751425385
2492,-8.347363,-3.710072,4.064807,-0.125991,0.090713,0.050702,31.7,66.0116859832958
2502,-8.35454,-3.702893,4.060022,-0.1237,0.091019,0.054672,31.73,66.0452315822044
2512,-8.356933,-3.706482,4.045067,-0.122326,0.090255,0.059101,31.73,66.1320366266153
2522,-8.366504,-3.698107,4.023531,-0.120035,0.08827,0.063835,31.72,66.2573906202666
2532,-8.358727,-3.702295,4.019344,-0.11805,0.085216,0.069639,31.72,66.2668655450664
2542,-8.385648,-3.702295,3.985246,-0.115606,0.08094,0.074984,31.74,66.5025960743648
2552,-8.376674,-3.704688,3.968496,-0.111636,0.067348,0.087201,31.74,66.5741948208052
2562,-8.386844,-3.705286,3.954139,-0.10965,0.058948,0.093921,31.7,66.6715575160437
2572,-8.390432,-3.704688,3.943372,-0.106901,0.049786,0.10064,31.71,66.7352071755949
2582,-8.380861,-3.698706,3.932006,-0.104458,0.039248,0.107818,31.71,66.7698598513742
2592,-8.392226,-3.699902,3.923033,-0.101556,0.027794,0.11469,31.72,66.8418702840174
2602,-8.409575,-3.722036,3.913461,-0.099724,0.01405,0.121104,31.72,66.9482644626686
2612,-8.406584,-3.711866,3.900899,-0.096822,-0.000153,0.127213,31.7,66.9992151438964
2622,-8.411968,-3.719643,3.892524,-0.09499,-0.016188,0.133321,31.7,67.0615261853191
2632,-8.435897,-3.725625,3.90389,-0.09331,-0.033445,0.138819,31.72,67.0558361849417
2642,-8.438888,-3.714259,3.899703,-0.091477,-0.050549,0.143248,31.72,67.0737797509285
2652,-8.466404,-3.720839,3.902694,-0.089492,-0.069639,0.145997,31.7,67.1199516349095
2662,-8.47119,-3.729214,3.904488,-0.089492,-0.088728,0.147829,31.7,67.127717154733
2672,-8.484949,-3.734598,3.913461,-0.089492,-0.10797,0.148898,31.71,67.113312763357
2682,-8.489736,-3.728616,3.920042,-0.08995,-0.127824,0.148288,31.71,67.0831765348998
2692,-8.500502,-3.744768,3.930809,-0.090866,-0.147219,0.144928,31.69,67.0630252238282
2702,-8.511271,-3.745365,3.951746,-0.091935,-0.16585,0.139888,31.69,66.9759974760994
2712,-8.52443,-3.741179,3.980461,-0.094837,-0.183565,0.133169,31.7,66.8493779128332
2722,-8.535797,-3.745365,4.006183,-0.097738,-0.214566,0.113163,31.7,66.7426609437487
2732,-8.52144,-3.74716,4.016353,-0.106901,-0.227547,0.101251,31.67,66.6621351943064
2742,-8.525627,-3.743571,4.046263,-0.111636,-0.238543,0.085827,31.67,66.5124894815438
2752,-8.528021,-3.735196,4.074977,-0.117897,-0.247095,0.06918,31.67,66.3613880439936
2762,-8.516056,-3.739982,4.085146,-0.123853,-0.251982,0.05284,31.73,66.2884136425804
2772,-8.499905,-3.734598,4.121637,-0.129962,-0.2558,0.034972,31.73,66.0615089839831
2782,-8.474779,-3.734,4.133003,-0.136681,-0.256105,0.016799,31.67,65.9495439168033
2792,-8.445468,-3.728018,4.162315,-0.142942,-0.252745,-0.000916,31.67,65.7306902436071
2802,-8.419745,-3.729812,4.17069,-0.148898,-0.246331,-0.01741,31.7,65.6343053129187
2812,-8.395219,-3.719643,4.195216,-0.155618,-0.236863,-0.033903,31.7,65.4453566119945
2822,-8.359925,-3.719045,4.208377,-0.161421,-0.225562,-0.049786,31.7,65.3004183684271
2832,-8.32463,-3.72383,4.208377,-0.166308,-0.210749,-0.061545,31.7,65.2282297234895
2842,-8.290532,-3.71725,4.21735,-0.170584,-0.193339,-0.071929,31.69,65.1005972951446
2852,-8.251051,-3.725027,4.225725,-0.174402,-0.173333,-0.078954,31.69,64.9778001741437
2862,-8.233105,-3.713063,4.221537,-0.176998,-0.151342,-0.083994,31.72,64.9478852737912
2872,-8.199606,-3.70409,4.22752,-0.178525,-0.129198,-0.086132,31.72,64.8331210751238
2882,-8.176873,-3.706482,4.211368,-0.178678,-0.104763,-0.084605,31.66,64.8691204450171
2892,-8.143373,-3.696911,4.208975,-0.178984,-0.079871,-0.073915,31.66,64.7968414634668
2902,-8.118249,-3.684349,4.203591,-0.173944,-0.028863,-0.06521,31.68,64.7556771514633
2912,-8.113463,-3.692126,4.191029,-0.17089,-0.003971,-0.054367,31.7,64.8189419019134
2922,-8.111669,-3.696313,4.182654,-0.167224,0.018937,-0.040012,31.7,64.8632970627794
2932,-8.107481,-3.690331,4.165306,-0.161574,0.040928,-0.023671,31.67,64.939233924146
2942,-8.108678,-3.68734,4.148556,-0.155923,0.062919,-0.007636,31.67,65.0273375416333
2952,-8.123632,-3.681358,4.132405,-0.150578,0.081398,0.010385,31.71,65.1401018300873
2962,-8.146365,-3.684349,4.119842,-0.14447,0.097891,0.028863,31.71,65.2601362704796
2972,-8.163713,-3.677768,4.100101,-0.138056,0.111788,0.047342,31.73,65.3963550289313
2982,-8.185846,-3.681358,4.095914,-0.1321,0.123547,0.065973,31.73,65.4708247486837
2992,-8.206185,-3.674777,4.071986,-0.126602,0.132252,0.083994,31.72,65.6354106823029
3002,-8.2349,-3.681956,4.058825,-0.121715,0.139583,0.101862,31.72,65.7744937348309
3012,-8.256434,-3.680759,4.048058,-0.115912,0.143553,0.117744,31.68,65.8768077569856
3022,-8.288737,-3.673581,4.041477,-0.111177,0.144622,0.132405,31.68,65.9742338670534
3032,-8.324032,-3.684349,4.018147,-0.106901,0.143248,0.144622,31.69,66.1828146164311
3042,-8.357532,-3.686144,4.014558,-0.103694,0.139888,0.155618,31.69,66.274408012591
3052,-8.392226,-3.689135,4.0008,-0.101098,0.134085,0.164017,31.71,66.4225177428874
3062,-8.442476,-3.695715,3.978666,-0.099113,0.12538,0.16921,31.71,66.6494038960978
3072,-8.468199,-3.7005,3.975675,-0.095753,0.100945,0.176235,31.73,66.7225711454038
3082,-8.506484,-3.702295,3.959523,-0.095142,0.085521,0.175166,31.72,66.8872355591084
3092,-8.519047,-3.705884,3.957729,-0.093921,0.069333,0.1715,31.72,66.9254442502053
3102,-8.530412,-3.712464,3.954139,-0.093921,0.051771,0.16585,31.71,66.9731464557652
3112,-8.55135,-3.727419,3.948158,-0.092852,0.032681,0.158825,31.71,67.0599665450523
3122,-8.568698,-3.725027,3.934398,-0.093615,0.011912,0.147677,31.68,67.1645181574022
3132,-8.565707,-3.737589,3.938586,-0.093462,-0.008552,0.135765,31.68,67.1476977787889
3142,-8.578867,-3.742374,3.948756,-0.094531,-0.029169,0.12202,31.71,67.1254512869312
3152,-8.577671,-3.75075,3.948756,-0.094073,-0.048717,0.106901,31.71,67.1303972622774
3162,-8.589635,-3.747759,3.941577,-0.095295,-0.068264,0.090408,31.72,67.1890653595099
3172,-8.5681,-3.743571,3.949354,-0.097128,-0.087506,0.072693,31.72,67.1017400909764
3182,-8.547162,-3.753741,3.967898,-0.097433,-0.106138,0.055589,31.74,66.9720642533301
3192,-8.551949,-3.75733,3.970291,-0.09896,-0.122326,0.037415,31.74,66.9724976986297
3202,-8.534599,-3.759723,3.971487,-0.102473,-0.137139,0.020464,31.71,66.9332923461306
3212,-8.508877,-3.765705,3.983452,-0.105374,-0.150578,0.003818,31.71,66.8241492495275
3222,-8.496913,-3.769892,3.996612,-0.107665,-0.161879,-0.011912,31.68,66.7350482524193
3232,-8.49452,-3.778267,4.019344,-0.111483,-0.172417,-0.026267,31.68,66.6196229482014
3242,-8.435298,-3.775874,4.027121,-0.115454,-0.186925,-0.048717,31.68,66.4548755993471
3252,-8.426923,-3.777071,4.030112,-0.1237,-0.191354,-0.058185,31.72,66.4230324480824
3262,-8.386245,-3.791427,4.049254,-0.127824,-0.194408,-0.065363,31.72,66.2519487922951
3272,-8.376674,-3.772285,4.060022,-0.131641,-0.196088,-0.070097,31.72,66.1575967512825
3282,-8.345568,-3.772285,4.065406,-0.135459,-0.197157,-0.072082,31.72,66.0639032351804
3292,-8.343175,-3.76391,4.079762,-0.138208,-0.195477,-0.072235,31.7,65.9758259500311
3302,-8.313264,-3.769892,4.080959,-0.141568,-0.192423,-0.06918,31.7,65.9117336389043
3312,-8.290532,-3.766303,4.082156,-0.144928,-0.189674,-0.064446,31.71,65.8534760490943
3322,-8.277969,-3.758526,4.089334,-0.146455,-0.184481,-0.058032,31.71,65.781374285946
3332,-8.255239,-3.755535,4.112065,-0.147524,-0.177304,-0.048717,31.69,65.6103341762481
3342,-8.242078,-3.753142,4.109673,-0.148593,-0.169821,-0.037721,31.69,65.5920294535368
3352,-8.231908,-3.757928,4.109075,-0.147982,-0.16081,-0.025809,31.69,65.5778538860792
3362,-8.230114,-3.752544,4.122834,-0.146913,-0.150731,-0.011912,31.69,65.4964296046805
3372,-8.198408,-3.736392,4.124628,-0.144622,-0.138514,0.004276,31.72,65.4017363642832
3382,-8.198408,-3.742973,4.128816,-0.142332,-0.125838,0.020922,31.72,65.3862982075104
3392,-8.181659,-3.742374,4.135396,-0.139277,-0.112705,0.037415,31.72,65.3143698431841
3402,-8.183454,-3.726223,4.138387,-0.135307,-0.097891,0.05452,31.72,65.28637640431
3412,-8.185248,-3.713063,4.139583,-0.130572,-0.083078,0.08827,31.75,65.2708584334854
3422,-8.18764,-3.722036,4.156333,-0.119882,-0.052229,0.103694,31.7,65.1971224454288
3432,-8.188837,-3.714857,4.14736,-0.114385,-0.036041,0.118355,31.7,65.2396919161261
3442,-8.212766,-3.707679,4.143172,-0.109498,-0.020464,0.131336,31.7,65.3072494384221
3452,-8.210971,-3.696313,4.154539,-0.104305,-0.00504,0.142942,31.7,65.2323559683082
3462,-8.219944,-3.691527,4.148556,-0.099266,0.010843,0.153174,31.71,65.2787873355508
3472,-8.238488,-3.695116,4.140181,-0.094684,0.025351,0.160963,31.71,65.3670241482966
3482,-8.248658,-3.689733,4.141976,-0.091172,0.039706,0.167224,31.71,65.3746310684554
3492,-8.261818,-3.680759,4.146762,-0.089034,0.052382,0.169821,31.71,65.3696342402811
3502,-8.29472,-3.68375,4.133601,-0.08659,0.064446,0.170126,31.69,65.5132567742449
3512,-8.309077,-3.674777,4.128217,-0.085979,0.075595,0.167835,31.69,65.5639722828745
3522,-8.340781,-3.671786,4.132405,-0.085521,0.084758,0.162032,31.7,65.607985934425
3532,-8.362316,-3.666403,4.115057,-0.086285,0.091783,0.155007,31.7,65.7398390295593
3542,-8.389236,-3.656831,4.105485,-0.087965,0.096211,0.144928,31.7,65.8385817975717
3552,-8.401799,-3.658626,4.103093,-0.089797,0.101098,0.133321,31.7,65.8796118024216
3562,-8.434101,-3.671786,4.089334,-0.09331,0.102625,0.119882,31.67,66.0321897187318
3572,-8.456833,-3.662215,4.079762,-0.096669,0.102167,0.104763,31.67,66.1212649145704
3582,-8.492128,-3.663411,4.052843,-0.100182,0.100029,0.088423,31.7,66.3364405322764
3592,-8.499905,-3.657429,4.038486,-0.108734,0.089034,0.052534,31.7,66.4219421850473
3602,-8.504092,-3.662215,4.034897,-0.110872,0.08094,0.035277,31.7,66.4536226413459
3612,-8.507681,-3.665804,4.018147,-0.114079,0.071166,0.019395,31.72,66.551440981225
3623,-8.505887,-3.664608,3.995416,-0.116981,0.060476,0.002902,31.72,66.6651031026757
3632,-8.506484,-3.665206,3.985246,-0.119271,0.048258,-0.009774,31.65,66.719930495959
3642,-8.503493,-3.669992,3.982853,-0.120799,0.034514,-0.024129,31.65,66.7305107452978
3652,-8.497512,-3.686741,3.962514,-0.121562,0.020922,-0.034361,31.71,66.8393826249099
3662,-8.488539,-3.686144,3.963113,-0.121868,0.006414,-0.041233,31.71,66.8172913788018
3672,-8.474779,-3.691527,3.955336,-0.122173,-0.008858,-0.04612,31.74,66.834539829221
3682,-8.458031,-3.701099,3.943372,-0.121257,-0.022907,-0.047495,31.74,66.8714534143418
3692,-8.448458,-3.702295,3.939184,-0.12034,-0.038637,-0.047037,31.69,66.8748545143924
3702,-8.442476,-3.711866,3.939184,-0.117897,-0.052687,-0.043524,31.69,66.8711954831293
3712,-8.428718,-3.71067,3.936193,-0.115606,-0.067348,-0.037721,31.67,66.8575503779798
3722,-8.413164,-3.722634,3.936193,-0.112857,-0.081551,-0.029627,31.67,66.8363998085893
3732,-8.402995,-3.731009,3.93739,-0.110261,-0.09499,-0.0197,31.7,66.8167937441949
3742,-8.400601,-3.731607,3.945765,-0.109192,-0.106291,-0.007941,31.7,66.7683112216044
3752,-8.373683,-3.742973,3.961916,-0.105985,-0.118508,0.00336,31.7,66.6380489281682
3762,-8.373683,-3.745365,3.97747,-0.103389,-0.138666,0.029627,31.7,66.5584421442943
3772,-8.373683,-3.756732,3.982255,-0.100487,-0.147219,0.041081,31.68,66.5438872849203
3782,-8.360522,-3.762115,4.001398,-0.099418,-0.155618,0.052076,31.68,66.4209607627187
3792,-8.361719,-3.760919,4.001398,-0.098349,-0.161727,0.062919,31.68,66.4223375288317
3802,-8.362915,-3.764508,4.016353,-0.099113,-0.168293,0.071013,31.66,66.3497668935253
3812,-8.365907,-3.765705,4.046861,-0.100335,-0.172417,0.078343,31.66,66.1974651957154
3822,-8.364112,-3.763312,4.055236,-0.100945,-0.175471,0.083383,31.72,66.1476462842877
3832,-8.35813,-3.777669,4.061816,-0.102625,-0.17654,0.086285,31.72,66.1143099952526
3842,-8.350353,-3.771089,4.082754,-0.105222,-0.176693,0.087659,31.68,65.9822985463653
3852,-8.364112,-3.77408,4.095914,-0.10736,-0.175318,0.087659,31.68,65.9457189059742
3862,-8.358727,-3.773481,4.10728,-0.111788,-0.171806,0.083841,31.71,65.8745604683156
3872,-8.345568,-3.771687,4.128217,-0.115912,-0.167072,0.079107,31.71,65.7358979738587
3882,-8.335996,-3.776472,4.135994,-0.119424,-0.160352,0.071777,31.71,65.6796271331841
3892,-8.340183,-3.775874,4.152145,-0.123242,-0.1518,0.064446,31.71,65.6041163852167
3902,-8.335996,-3.771687,4.155735,-0.127365,-0.141263,0.054367,31.71,65.5724265556155
3912,-8.333005,-3.774678,4.167699,-0.131183,-0.13042,0.044746,31.71,65.5068264331106
3922,-8.313862,-3.776472,4.177869,-0.133932,-0.118661,0.034056,31.69,65.4145349196113
3932,-8.31446,-3.756732,4.182056,-0.136528,-0.105527,0.011454,31.69,65.3747458176799
3942,-8.303694,-3.761517,4.178466,-0.142332,-0.076205,0.001527,31.73,65.3747352926509
3952,-8.299506,-3.75733,4.175476,-0.143401,-0.061239,-0.007483,31.7,65.3770718881506
3962,-8.285748,-3.751348,4.169494,-0.144317,-0.045204,-0.016188,31.7,65.3724229466094
3972,-8.274381,-3.744169,4.160521,-0.143706,-0.029627,-0.021991,31.71,65.3873799466305
3982,-8.272586,-3.729812,4.160521,-0.142179,-0.015424,-0.026573,31.71,65.3693428074428
3992,-8.259426,-3.726223,4.14736,-0.140652,-0.001527,-0.028711,31.72,65.4058465445665
4002,-8.252247,-3.729812,4.14078,-0.137597,0.011912,-0.030085,31.72,65.4281412308391
4012,-8.250452,-3.722036,4.135396,-0.134543,0.024129,-0.027184,31.71,65.4447546253155
4022,-8.253444,-3.713063,4.119244,-0.130572,0.034667,-0.024129,31.71,65.5271137474681
4032,-8.26481,-3.70409,4.106084,-0.126602,0.044593,-0.018021,31.68,65.6121013064105
4042,-8.265409,-3.704688,4.09053,-0.121104,0.053145,-0.010232,31.68,65.6956527811054
4052,-8.265409,-3.710072,4.085745,-0.116217,0.060476,-0.001222,31.69,65.7260217409361
4062,-8.270791,-3.705884,4.075575,-0.110567,0.065057,0.009927,31.69,65.7870530141435
4072,-8.279764,-3.697509,4.064209,-0.105527,0.069028,0.022755,31.7,65.858105573934
4082,-8.28455,-3.695116,4.052245,-0.099113,0.07254,0.035583,31.7,65.9290748121626
4092,-8.291131,-3.696313,4.043272,-0.094531,0.073457,0.049938,31.71,65.9915916671266
4102,-8.310272,-3.685545,4.029513,-0.088117,0.073457,0.064141,31.71,66.0947571234978
4112,-8.322835,-3.67418,4.012764,-0.079565,0.070555,0.091324,31.69,66.1990768911145
4122,-8.3348,-3.671188,3.999603,-0.075289,0.067959,0.104611,31.7,66.2910808001779
4132,-8.34796,-3.684349,4.008576,-0.070708,0.063683,0.117133,31.7,66.2839581913281
4142,-8.356335,-3.671188,4.00738,-0.067959,0.059254,0.128587,31.66,66.2957101568158
4152,-8.377871,-3.682554,4.0008,-0.064599,0.054062,0.138514,31.66,66.3862872925888
4162,-8.395219,-3.686741,3.993621,-0.062156,0.047342,0.146302,31.67,66.464285176533
4172,-8.397013,-3.677768,3.991827,-0.061697,0.040775,0.152564,31.67,66.4692231295918
4182,-8.416754,-3.690331,3.983452,-0.060628,0.032987,0.156992,31.7,66.565954329593
4192,-8.426325,-3.687938,3.993023,-0.060476,0.025198,0.159283,31.7,66.5335165280067
4203,-8.427522,-3.693322,3.987639,-0.061392,0.016799,0.159436,31.71,66.5691423984608
4212,-8.450851,-3.698706,3.978666,-0.062614,0.006261,0.157298,31.71,66.6694580557159
4222,-8.461619,-3.691527,3.985246,-0.064141,-0.003512,0.153022,31.68,66.6508099839028
4232,-8.475977,-3.704688,3.991827,-0.065973,-0.013744,0.147524,31.68,66.6579778644618
4242,-8.483154,-3.707679,3.983452,-0.067806,-0.024282,0.139583,31.7,66.7192030542132
4252,-8.504092,-3.704688,3.982853,-0.071319,-0.036346,0.129656,31.7,66.7626919710866
4262,-8.495717,-3.712464,3.982255,-0.074984,-0.047647,0.118508,31.69,66.7555817661595
4272,-8.512466,-3.722634,3.993023,-0.078496,-0.059559,0.105527,31.69,66.7429489712617
4282,-8.511271,-3.721437,3.992425,-0.082467,-0.084605,0.078191,31.7,66.7425393623136
4292,-8.514859,-3.72383,3.993023,-0.09163,-0.097128,0.062614,31.72,66.7489246393493
4302,-8.526226,-3.73041,3.996014,-0.096211,-0.109192,0.047037,31.72,66.7625244519582
4312,-8.511868,-3.729214,4.007978,-0.101251,-0.121409,0.03146,31.71,66.6698359718987
4322,-8.522635,-3.738786,4.018147,-0.105985,-0.13271,0.014355,31.71,66.6477346202705
4332,-8.504092,-3.731009,4.020541,-0.111025,-0.143095,0,31.68,66.5901686713289
4342,-8.502296,-3.73041,4.036094,-0.115301,-0.153174,-0.013897,31.68,66.5051539443595
4352,-8.487342,-3.738187,4.034299,-0.119882,-0.16249,-0.028405,31.72,66.4906299156039
4362,-8.476574,-3.735196,4.050451,-0.125075,-0.169668,-0.040623,31.72,66.3816868492438
4372,-8.447861,-3.743571,4.069593,-0.129351,-0.175624,-0.051924,31.69,66.230146006106
4382,-8.432307,-3.732804,4.071986,-0.133169,-0.180205,-0.06185,31.69,66.1751291725154
4392,-8.408379,-3.742973,4.08395,-0.13607,-0.182954,-0.069333,31.7,66.072068009146
4402,-8.392226,-3.739383,4.09711,-0.138819,-0.183107,-0.075595,31.7,65.9660960537804
4412,-8.373683,-3.732804,4.100101,-0.142026,-0.182038,-0.080481,31.7,65.9049353700738
4422,-8.34138,-3.734598,4.11386,-0.142942,-0.17822,-0.083994,31.7,65.7660056895345
4432,-8.320443,-3.732804,4.134798,-0.144164,-0.171348,-0.083841,31.7,65.6101553842987
4442,-8.288737,-3.726821,4.142574,-0.144775,-0.163254,-0.082314,31.7,65.4952055667431
4452,-8.254042,-3.728616,4.143172,-0.14447,-0.152869,-0.074067,31.71,65.4183618441807
4462,-8.215158,-3.720241,4.162913,-0.142179,-0.125227,-0.067501,31.68,65.2215119713804
4472,-8.204989,-3.720839,4.158128,-0.140499,-0.109039,-0.059712,31.68,65.224780101897
4482,-8.18764,-3.714259,4.160521,-0.137292,-0.091935,-0.048869,31.69,65.1673336169045
4492,-8.17149,-3.716054,4.162315,-0.133932,-0.073915,-0.038026,31.69,65.1239527119288
4502,-8.176873,-3.706482,4.16411,-0.13042,-0.054214,-0.025962,31.7,65.1168244676287
4512,-8.148758,-3.707081,4.15394,-0.126449,-0.034972,-0.012523,31.7,65.1084572238663
4522,-8.134401,-3.701697,4.15394,-0.121715,-0.015577,0.001374,31.73,65.0710237470304
4532,-8.137392,-3.696911,4.152744,-0.117286,0.003054,0.016493,31.73,65.0791466897352
4542,-8.147561,-3.702295,4.143172,-0.111636,0.021991,0.032681,31.68,65.1576975926181
4552,-8.159525,-3.702893,4.140181,-0.106291,0.039554,0.047495,31.68,65.200621066923
4562,-8.153543,-3.702893,4.127619,-0.102014,0.056047,0.063225,31.71,65.253607639634
4572,-8.172686,-3.692724,4.121039,-0.097738,0.072388,0.078649,31.71,65.3204753703578
4582,-8.194221,-3.694518,4.107878,-0.092852,0.085674,0.093157,31.7,65.4391083368748
4592,-8.206185,-3.695116,4.101298,-0.088423,0.097128,0.106749,31.7,65.5006361895194
4602,-8.242078,-3.70409,4.095914,-0.085216,0.107818,0.118508,31.66,65.6161386640383
4612,-8.263614,-3.692724,4.074379,-0.082161,0.114385,0.129351,31.66,65.7651154141639
4622,-8.335398,-3.699902,4.055236,-0.079107,0.119882,0.137445,31.71,66.0267289186077
4632,-8.370093,-3.697509,4.031906,-0.074984,0.123089,0.149204,31.7,66.2204796271064
4642,-8.397612,-3.701099,4.042674,-0.073609,0.120799,0.151953,31.7,66.2255210288946
4652,-8.423334,-3.703491,4.025924,-0.073151,0.11469,0.151036,31.7,66.3693221914436
4662,-8.46102,-3.708875,4.008576,-0.072846,0.107054,0.148135,31.7,66.5433800261534
4672,-8.491529,-3.711268,4.005585,-0.072693,0.096669,0.143553,31.71,66.6242577842026
4682,-8.512466,-3.710072,3.988237,-0.072082,0.084758,0.137445,31.71,66.7566264008924
4692,-8.523833,-3.715455,3.97747,-0.072388,0.06918,0.127671,31.68,66.8407800836919
4702,-8.546564,-3.721437,3.959523,-0.072846,0.05284,0.117592,31.68,66.9858125934954
4712,-8.566306,-3.721437,3.96072,-0.072998,0.034514,0.106138,31.69,67.0195643877285
4722,-8.583653,-3.731009,3.966104,-0.073151,0.015882,0.093615,31.69,67.0350316434963
4732,-8.554939,-3.731009,3.957729,-0.072693,-0.003971,0.079412,31.69,67.0205591738418
4742,-8.577671,-3.734598,3.960122,-0.073762,-0.025198,0.064599,31.69,67.0571752276417
4752,-8.576474,-3.736991,3.958925,-0.073915,-0.044593,0.049633,31.71,67.063080627543
4762,-8.567502,-3.744169,3.962514,-0.074984,-0.063683,0.034972,31.71,67.0326629937426
4772,-8.553144,-3.74058,3.961318,-0.076205,-0.082314,0.020617,31.73,67.0067116023178
4782,-8.536993,-3.754937,3.968496,-0.077427,-0.099113,0.008094,31.73,66.9494309146152
4792,-8.495118,-3.748955,3.98405,-0.07926,-0.113926,-0.004734,31.68,66.7778371202268
4802,-8.475378,-3.750151,3.994817,-0.082009,-0.139583,-0.024587,31.68,66.6823274997462
4812,-8.449656,-3.76391,4.001996,-0.084605,-0.149357,-0.032834,31.76,66.6045110200794
4822,-8.422735,-3.760919,4.016951,-0.085827,-0.157451,-0.038485,31.7,66.4679936783043
4832,-8.398808,-3.764508,4.025326,-0.088728,-0.163254,-0.042608,31.7,66.3777999207259
4842,-8.38146,-3.761517,4.036692,-0.090561,-0.167683,-0.044746,31.72,66.2793236882812
4852,-8.355738,-3.750151,4.044468,-0.092852,-0.16921,-0.046273,31.72,66.1738454947823
4862,-8.329416,-3.756732,4.062415,-0.096059,-0.16921,-0.045662,31.72,66.0304675519415
4872,-8.316256,-3.754339,4.079165,-0.098044,-0.166613,-0.042608,31.72,65.9124994082692
4882,-8.288737,-3.759125,4.079762,-0.099876,-0.162948,-0.037263,31.71,65.8552124264991
4892,-8.28455,-3.755535,4.091727,-0.101404,-0.15852,-0.031612,31.71,65.7800482940379
4902,-8.273782,-3.75075,4.098905,-0.102473,-0.151953,-0.025504,31.74,65.7146242305846
4912,-8.257033,-3.751946,4.109075,-0.103847,-0.143401,-0.018173,31.74,65.6263551940941
4922,-8.250452,-3.736392,4.122235,-0.105069,-0.133779,-0.009621,31.68,65.5278275401606
4932,-8.246264,-3.736991,4.119244,-0.106291,-0.123853,-0.000916,31.68,65.5349957577029
4942,-8.246264,-3.74058,4.13061,-0.10568,-0.111941,0.009316,31.72,65.4789715704777
4952,-8.246863,-3.732804,4.132405,-0.106291,-0.099876,0.01909,31.72,65.4632029538819
4962,-8.238488,-3.72383,4.138985,-0.10736,-0.08659,0.029932,31.72,65.401602078344
4972,-8.225328,-3.723232,4.15394,-0.106596,-0.059101,0.050396,31.72,65.2938450768389
4982,-8.2349,-3.709473,4.146163,-0.104611,-0.045204,0.060476,31.71,65.3419546984925
4992,-8.240283,-3.702295,4.137789,-0.104305,-0.03146,0.069639,31.7,65.3905638227859
5002,-8.251051,-3.707081,4.146163,-0.103389,-0.018173,0.07758,31.7,65.3749806798341
5012,-8.272586,-3.705884,4.135396,-0.101251,-0.006414,0.08491,31.71,65.4771723124048
5022,-8.272586,-3.688536,4.133003,-0.099724,0.005803,0.09163,31.71,65.4727939348994
5032,-8.295319,-3.7005,4.126423,-0.097586,0.016493,0.096211,31.68,65.5682880945288
5042,-8.309675,-3.699902,4.121039,-0.095753,0.025962,0.099266,31.68,65.62695277821
5052,-8.319246,-3.680161,4.119244,-0.093615,0.033903,0.100335,31.73,65.6380863485606
5062,-8.330013,-3.7005,4.112065,-0.092393,0.040317,0.100487,31.73,65.7183047390189
5072,-8.353942,-3.68734,4.09053,-0.090255,0.046884,0.099113,31.73,65.8696847136326
5082,-8.359925,-3.683152,4.096512,-0.089186,0.051313,0.095753,31.73,65.8472962847293
5092,-8.380263,-3.676572,4.086941,-0.087506,0.054367,0.091783,31.67,65.9345771022595
5102,-8.389236,-3.686741,4.079165,-0.08659,0.055741,0.083994,31.67,66.003794300803
5112,-8.400601,-3.684947,4.072584,-0.085216,0.055741,0.076205,31.73,66.0606001980397
5123,-8.400601,-3.667599,4.068397,-0.084299,0.054825,0.067348,31.73,66.0663401604975
5132,-8.435897,-3.671188,4.054638,-0.083536,0.052993,0.058185,31.67,66.2161271317279
5142,-8.430512,-3.671188,4.046861,-0.082925,0.049786,0.038332,31.67,66.2453576717788
5152,-8.438888,-3.668795,4.046263,-0.081703,0.042608,0.027947,31.68,66.2639196673362
5162,-8.429914,-3.673581,4.045067,-0.082314,0.038637,0.017257,31.69,66.2556587741312
5172,-8.425129,-3.671188,4.0337,-0.082009,0.033903,0.007789,31.69,66.3027763715629
5182,-8.407183,-3.675375,4.031308,-0.082161,0.028558,0.000458,31.69,66.2813552139496
5192,-8.413164,-3.683152,4.026522,-0.082161,0.023824,-0.006567,31.69,66.3261481129113
5202,-8.400601,-3.677768,4.026522,-0.082161,0.018937,-0.012523,31.7,66.294752782892
5212,-8.400003,-3.685545,4.023531,-0.082009,0.014508,-0.017257,31.7,66.3163375821651
5222,-8.378469,-3.690331,4.02413,-0.082772,0.009927,-0.019853,31.66,66.272259825538
5232,-8.385049,-3.686741,4.016951,-0.082925,0.005956,-0.019548,31.66,66.3204580361473
5242,-8.387442,-3.694518,4.008576,-0.083078,0.001222,-0.01741,31.71,66.3766328290183
5252,-8.364112,-3.701697,4.022335,-0.082772,-0.00336,-0.015272,31.71,66.2619702745279
5262,-8.366504,-3.710072,4.010371,-0.082925,-0.007178,-0.010996,31.72,66.3376460094835
5272,-8.36471,-3.709473,4.003192,-0.082467,-0.011301,-0.004276,31.72,66.3710319682557
5282,-8.360522,-3.717848,4.00738,-0.081856,-0.014661,0.003665,31.7,66.3480389235429
5292,-8.367702,-3.720839,4.001398,-0.08094,-0.019548,0.010385,31.7,66.3973387970448
5302,-8.372486,-3.734598,3.997808,-0.080634,-0.024893,0.017868,31.71,66.4390484037206
5312,-8.387442,-3.739383,3.996612,-0.080787,-0.029322,0.0281,31.71,66.4810124652974
5322,-8.387442,-3.74058,3.98405,-0.079565,-0.041692,0.04612,31.71,66.5480512813983
5332,-8.395817,-3.741776,3.998407,-0.079718,-0.048258,0.053145,31.68,66.4912750850151
5342,-8.405388,-3.748357,3.991827,-0.079107,-0.056658,0.059712,31.68,66.551757666331
5352,-8.425727,-3.756134,3.991827,-0.078191,-0.065363,0.065057,31.68,66.6010754365679
5362,-8.429317,-3.754339,4.0008,-0.078496,-0.074831,0.068875,31.68,66.5599278712508
5372,-8.431709,-3.767499,3.998407,-0.077733,-0.084147,0.072235,31.7,66.589517738808
5382,-8.425129,-3.769892,4.004389,-0.077733,-0.094684,0.072388,31.7,66.5468755915918
5392,-8.44128,-3.779463,4.006782,-0.078496,-0.104763,0.071471,31.73,66.5765944372616
5402,-8.449656,-3.768098,4.010371,-0.078649,-0.115148,0.069028,31.73,66.5646825083748
5412,-8.456235,-3.775276,4.026522,-0.079565,-0.125227,0.064904,31.66,66.5007609601532
5422,-8.443074,-3.779463,4.029513,-0.080634,-0.135307,0.059254,31.66,66.4618494009634
5432,-8.4347,-3.778865,4.034897,-0.080787,-0.143095,0.053756,31.67,66.4159110736573
5442,-8.435897,-3.783651,4.045067,-0.083383,-0.149509,0.046731,31.67,66.3699218539674
5452,-8.425129,-3.774678,4.050451,-0.084605,-0.154396,0.037874,31.69,66.3111439816451
5462,-8.406584,-3.779463,4.073781,-0.087354,-0.158367,0.028405,31.69,66.1555006511805
5472,-8.397013,-3.778267,4.086343,-0.088728,-0.160352,0.019395,31.68,66.0689545506137
5482,-8.38445,-3.768696,4.116253,-0.091477,-0.159589,0.011606,31.68,65.8779377104664
5492,-8.350353,-3.77049,4.12403,-0.093768,-0.152716,-0.005345,31.68,65.7667291268704
5502,-8.32463,-3.753142,4.141378,-0.098655,-0.145844,-0.01237,31.73,65.6046059043854
5512,-8.297112,-3.760919,4.144967,-0.100945,-0.135612,-0.018173,31.73,65.5341789790473
5522,-8.289336,-3.751946,4.157529,-0.103084,-0.124311,-0.024282,31.71,65.4431079636252
5532,-8.266006,-3.744768,4.155735,-0.104763,-0.112399,-0.028863,31.71,65.394707978071
5542,-8.248059,-3.739383,4.172484,-0.106596,-0.096669,-0.03146,31.69,65.2627766087177
5552,-8.249854,-3.736991,4.181458,-0.107054,-0.079565,-0.031918,31.69,65.2175192517337
5562,-8.224131,-3.722036,4.177869,-0.108276,-0.062614,-0.032223,31.71,65.1648165915724
5572,-8.223534,-3.722036,4.186841,-0.109192,-0.044135,-0.030849,31.71,65.116616721893
5582,-8.214561,-3.722036,4.184449,-0.108734,-0.024435,-0.028253,31.71,65.1093010083039
5592,-8.223534,-3.707679,4.189234,-0.10797,-0.00504,-0.024435,31.71,65.0897845334655
5602,-8.210971,-3.705884,4.176074,-0.106138,0.013897,-0.019395,31.7,65.12903056189
5612,-8.210373,-3.702893,4.171288,-0.105374,0.032834,-0.013134,31.7,65.1497855854209
5624,-8.221141,-3.701697,4.150351,-0.103084,0.050855,-0.005956,31.7,65.2820797887302
5632,-8.225926,-3.691527,4.150351,-0.099113,0.067959,0.000916,31.7,65.2825496473175
5642,-8.23131,-3.696313,4.138985,-0.096364,0.083383,0.010537,31.7,65.3587239510979
5652,-8.240881,-3.690331,4.109075,-0.092546,0.096517,0.020311,31.7,65.5308747714652
5662,-8.276175,-3.672385,4.09053,-0.088728,0.108429,0.039248,31.72,65.6877618594757
5672,-8.285149,-3.688536,4.080361,-0.079871,0.124464,0.049633,31.71,65.7761654288101
5682,-8.296515,-3.668197,4.063612,-0.075442,0.129045,0.059101,31.71,65.8692736000005
5692,-8.333005,-3.67418,4.04387,-0.069944,0.130725,0.07086,31.71,66.0570202739925
5702,-8.3348,-3.675974,4.015156,-0.06521,0.130114,0.081398,31.71,66.2135883992013
5712,-8.353942,-3.675375,4.001996,-0.060628,0.126755,0.09163,31.71,66.322884783392
5722,-8.373085,-3.681358,3.987041,-0.055741,0.121104,0.100793,31.71,66.4474950082833
5732,-8.385648,-3.678965,3.981059,-0.052076,0.113163,0.108429,31.72,66.5031285271829
5742,-8.38804,-3.682554,3.969693,-0.048564,0.10232,0.11637,31.72,66.5712589585938
5752,-8.401799,-3.688536,3.951746,-0.04444,0.090866,0.124158,31.73,66.6999100801445
5762,-8.432905,-3.674777,3.948158,-0.041386,0.07758,0.129503,31.73,66.7708106210681
5772,-8.446664,-3.689733,3.932006,-0.037721,0.063072,0.134085,31.7,66.8975999225758
5782,-8.458031,-3.693322,3.934997,-0.036652,0.04612,0.13607,31.7,66.9084491155578
5792,-8.476574,-3.701697,3.929015,-0.035583,0.029169,0.135918,31.71,66.9853152950543
5802,-8.481958,-3.713661,3.931407,-0.035125,0.011912,0.135612,31.71,66.9944343995685
5812,-8.502895,-3.709473,3.930809,-0.035125,-0.006567,0.132405,31.7,67.0364755533835
5822,-8.512466,-3.717848,3.938586,-0.036194,-0.025045,0.126755,31.7,67.0226688139565
5832,-8.516056,-3.717848,3.953541,-0.038026,-0.043982,0.118661,31.68,66.9518363351641
5842,-8.529217,-3.709473,3.965506,-0.043677,-0.077885,0.099266,31.7,66.9087920424933
5852,-8.519047,-3.71725,3.979264,-0.0478,-0.094226,0.085979,31.7,66.8232550688914
5862,-8.52144,-3.735795,3.992425,-0.052534,-0.107512,0.072235,31.69,66.7762221167615
5872,-8.519047,-3.727419,4.010969,-0.058185,-0.120493,0.05681,31.69,66.667419234328
5882,-8.507681,-3.752544,4.014558,-0.064446,-0.131031,0.039859,31.7,66.6481026050753
5892,-8.475378,-4.076173,4.010371,-0.049022,-0.132252,0.013897,31.7,66.9053975520441
5902,-8.508877,-3.695715,4.04387,-0.016341,-0.125227,-0.020006,31.7,66.447061029651
5912,-8.472985,-3.738187,4.060022,-0.022602,-0.131947,-0.037415,31.7,66.327282650981
5922,-8.484351,-3.711268,4.055834,-0.028863,-0.13775,-0.052382,31.69,66.3480627241847
5932,-8.456235,-3.731607,4.072584,-0.036652,-0.141415,-0.065821,31.69,66.2210661339419
5942,-8.459825,-3.736392,4.097709,-0.04444,-0.14447,-0.080481,31.68,66.1027477075581
5952,-8.431709,-3.708277,4.073183,-0.050244,-0.145386,-0.091019,31.68,66.1448896893124
5962,-8.416754,-3.747759,4.098905,-0.055894,-0.144928,-0.100487,31.66,66.0165165912705
5972,-8.375478,-3.711268,4.099504,-0.06017,-0.143401,-0.106749,31.66,65.8914843428721
5982,-8.371889,-3.727419,4.109075,-0.064141,-0.139735,-0.111483,31.7,65.8492796799527
5992,-8.335996,-3.716054,4.103691,-0.067501,-0.135307,-0.114232,31.7,65.7897691576438
6002,-8.298907,-3.723232,4.119244,-0.070402,-0.130267,-0.114843,31.69,65.6355980773511
6012,-8.290532,-3.717848,4.125825,-0.071166,-0.114079,-0.108429,31.69,65.5778575649579
6022,-8.258228,-3.713661,4.133003,-0.069333,-0.104153,-0.100945,31.7,65.4660166855781
6032,-8.248059,-3.711268,4.125226,-0.067042,-0.094073,-0.092699,31.68,65.4822493060124
6042,-8.228318,-3.707081,4.138985,-0.064294,-0.082009,-0.083383,31.68,65.3627863238563
6052,-8.222935,-3.696911,4.134199,-0.060323,-0.069333,-0.071319,31.7,65.3660445456109
6062,-8.203793,-3.695715,4.136592,-0.056658,-0.0562,-0.059865,31.7,65.3101802668363
6072,-8.209177,-3.699902,4.142574,-0.051924,-0.041539,-0.045509,31.71,65.2947675386307
6082,-8.192427,-3.701697,4.141378,-0.046731,-0.028558,-0.031765,31.71,65.2659059401813
6092,-8.195418,-3.692724,4.139583,-0.041692,-0.014813,-0.017868,31.73,65.2730093349561
6102,-8.19781,-3.684947,4.143172,-0.035888,0.001069,-0.003054,31.73,65.251689992153
6112,-8.200802,-3.686741,4.135994,-0.031307,0.016188,0.010232,31.72,65.297824493618
6122,-8.192427,-3.681358,4.14078,-0.027184,0.031612,0.021991,31.72,65.2487988198984
6132,-8.203793,-3.682554,4.143172,-0.022602,0.04612,0.034819,31.69,65.2625362017825
6142,-8.218149,-3.686144,4.146163,-0.017868,0.060323,0.044899,31.69,65.282063964563
6152,-8.230712,-3.686144,4.137789,-0.014661,0.073457,0.054367,31.68,65.3536695765393
6162,-8.245667,-3.674777,4.141378,-0.012675,0.08659,0.06185,31.68,65.3565452386141
6172,-8.258827,-3.68375,4.123432,-0.010537,0.100029,0.06689,31.72,65.4882532201592
6182,-8.299506,-3.686741,4.133003,-0.008705,0.111636,0.073915,31.72,65.529682052169
6192,-8.316256,-3.684947,4.112664,-0.008858,0.130725,0.074984,31.7,65.6706040236488
6202,-8.347363,-3.692126,4.101298,-0.010079,0.13775,0.074067,31.67,65.8038580049565
6212,-8.365907,-3.67418,4.094718,-0.010996,0.14279,0.071929,31.67,65.8610257011058
6222,-8.388638,-3.692126,4.080959,-0.011454,0.144928,0.067959,31.69,65.9981980472529
6232,-8.392226,-3.701099,4.070191,-0.013286,0.145997,0.063225,31.69,66.0703932147528
6242,-8.416155,-3.695116,4.064209,-0.014813,0.144622,0.056047,31.7,66.1466406517069
6252,-8.427522,-3.698706,4.039085,-0.015882,0.140804,0.048717,31.7,66.3049513288497
6262,-8.438888,-3.702295,4.029513,-0.016799,0.135307,0.04215,31.67,66.3820117319923
6272,-8.462217,-3.716652,4.012166,-0.018479,0.127976,0.033598,31.67,66.5342067022293
6282,-8.465208,-3.71725,4.005585,-0.019242,0.118355,0.025504,31.7,66.5752798765219
6292,-8.478967,-3.725027,3.988237,-0.0197,0.107207,0.016188,31.7,66.7012517584041
6302,-8.490931,-3.737589,3.978666,-0.020311,0.095448,0.008094,31.67,66.7870869886236
6312,-8.495118,-3.735196,3.974478,-0.021533,0.081398,0.000153,31.67,66.8153493945607
6322,-8.501699,-3.738187,3.954139,-0.020922,0.066737,-0.008094,31.7,66.9376280469267
6332,-8.503493,-3.734598,3.951746,-0.020464,0.051313,-0.014966,31.7,66.9505680996617
6342,-8.492128,-3.749553,3.947559,-0.020464,0.03543,-0.020922,31.69,66.9627238977676
6352,-8.490931,-3.75075,3.942773,-0.019548,0.018937,-0.025656,31.69,66.9863865458573
6362,-8.483154,-3.74716,3.939782,-0.018631,-0.014203,-0.034208,31.68,66.9830013723119
6372,-8.470592,-3.767499,3.948158,-0.017562,-0.030696,-0.036957,31.65,66.9319564532097
6382,-8.46461,-3.764508,3.95055,-0.017104,-0.04612,-0.03879,31.65,66.904542865114
6392,-8.449057,-3.756732,3.946961,-0.016035,-0.060934,-0.039859,31.67,66.8845248118266
6402,-8.439486,-3.768098,3.954139,-0.015882,-0.074831,-0.039095,31.67,66.8376872538399
6412,-8.428718,-3.766901,3.96072,-0.015272,-0.088117,-0.038332,31.67,66.7800274312973
6422,-8.422735,-3.756732,3.970889,-0.015424,-0.099266,-0.036957,31.67,66.7050846170009
6432,-8.402397,-3.764508,3.986442,-0.014966,-0.109039,-0.034056,31.67,66.5887419937303
6442,-8.397013,-3.761517,3.99721,-0.015272,-0.117592,-0.031918,31.67,66.5183790425425
6452,-8.386245,-3.768696,4.007978,-0.014661,-0.124617,-0.027947,31.71,66.4462868480636
6462,-8.374281,-3.763312,4.021138,-0.014813,-0.130725,-0.024129,31.71,66.3473565850593
6472,-8.358727,-3.756732,4.038486,-0.015119,-0.134543,-0.020159,31.68,66.2176865590385
6482,-8.346764,-3.756732,4.048656,-0.016035,-0.136376,-0.016035,31.68,66.1392241217103
6492,-8.330013,-3.749553,4.050451,-0.016646,-0.136376,-0.010996,31.69,66.0875486907787
6502,-8.327023,-3.74716,4.075575,-0.018479,-0.135307,-0.00672,31.69,65.9473348335283
6512,-8.31446,-3.747759,4.085745,-0.020006,-0.131489,-0.002291,31.68,65.8678971318664
6522,-8.300103,-3.739982,4.104887,-0.021075,-0.126755,0.002291,31.68,65.7294726072026
6532,-8.297112,-3.73041,4.12044,-0.024282,-0.112246,0.011759,31.68,65.6324323753461
6542,-8.282157,-3.733402,4.128816,-0.025351,-0.103694,0.016035,31.7,65.5592291322398
6552,-8.272586,-3.729214,4.132405,-0.027489,-0.094837,0.018631,31.7,65.5156167714958
6562,-8.275578,-3.719045,4.144967,-0.029016,-0.083536,0.023518,31.72,65.4465080931895
6572,-8.273185,-3.714857,4.144967,-0.02978,-0.071166,0.027489,31.72,65.4371983536685
6582,-8.283354,-3.719045,4.152744,-0.030849,-0.059559,0.031001,31.73,65.4228300069699
6592,-8.268997,-3.707679,4.149753,-0.031307,-0.048106,0.033445,31.73,65.3960233996154
6602,-8.26481,-3.708875,4.14736,-0.032681,-0.035277,0.034819,31.71,65.4005607251443
6612,-8.278568,-3.705884,4.14736,-0.033903,-0.02306,0.036652,31.71,65.4276587296375
6622,-8.296515,-3.702893,4.157529,-0.033445,-0.011301,0.036957,31.71,65.4107868495447
6632,-8.30788,-3.690929,4.15394,-0.032987,0.001069,0.034972,31.71,65.4426510529851
6642,-8.307282,-3.692126,4.144967,-0.033445,0.012523,0.033445,31.69,65.4893095206504
6652,-8.313264,-3.687938,4.143172,-0.033598,0.02306,0.030391,31.69,65.5076342688443
6662,-8.320443,-3.685545,4.142574,-0.033139,0.033292,0.027642,31.71,65.5240402787858
6672,-8.348558,-3.672385,4.122235,-0.032681,0.041844,0.023824,31.71,65.6784061750777
6682,-8.353942,-3.675375,4.121637,-0.031612,0.049327,0.019242,31.72,65.6959739962961
6692,-8.355738,-3.672983,4.11745,-0.030696,0.055589,0.012523,31.72,65.719413091678
6702,-8.369495,-3.674777,4.101298,-0.028863,0.06521,0.001222,31.68,65.8349304550027
6712,-8.371889,-3.655635,4.095914,-0.026573,0.068417,-0.004734,31.73,65.8501932308844
6722,-8.379665,-3.661019,4.084548,-0.024587,0.070708,-0.01069,31.73,65.9312479055384
6732,-8.374879,-3.665206,4.071986,-0.02306,0.071624,-0.015272,31.73,65.9905927141941
6742,-8.377871,-3.672983,4.073183,-0.020922,0.072388,-0.0197,31.73,65.9979813616619
6752,-8.376674,-3.67059,4.068995,-0.018631,0.072693,-0.025045,31.7,66.0150910252694
6762,-8.372486,-3.66401,4.072584,-0.016799,0.07254,-0.0281,31.7,65.9812393480125
6772,-8.372486,-3.665804,4.061816,-0.014355,0.070708,-0.029016,31.69,66.0392608947362
6782,-8.365907,-3.666403,4.050451,-0.012828,0.070708,-0.030543,31.69,66.0853408654894
6792,-8.362915,-3.673581,4.04746,-0.010385,0.069791,-0.029016,31.68,66.1013564534133
6802,-8.338388,-3.682554,4.034299,-0.008247,0.068111,-0.026878,31.68,66.126672843974
6812,-8.34138,-3.667001,4.052245,-0.007178,0.067042,-0.02474,31.71,66.0241696985272
6822,-8.346166,-3.678965,4.044468,-0.006109,0.066126,-0.020159,31.71,66.0864450088547
6832,-8.34138,-3.685545,4.037888,-0.005192,0.065363,-0.015577,31.71,66.1169917750101
6842,-8.337791,-3.689733,4.024727,-0.003665,0.065363,-0.008094,31.71,66.1824758249798
6852,-8.333604,-3.696313,4.024727,-0.002902,0.064141,-0.001833,31.71,66.1797760551265
6862,-8.338388,-3.707081,4.024727,-0.002749,0.063225,0.005651,31.71,66.2000598977735
6872,-8.349755,-3.712464,4.011567,-0.003054,0.061545,0.020159,31.7,66.2983208691827
6882,-8.368299,-3.716054,4.013362,-0.004581,0.056352,0.026573,31.73,66.33130028446
6892,-8.375478,-3.723232,4.01396,-0.005345,0.052993,0.032834,31.73,66.3499446158603
6902,-8.38146,-3.725027,4.010969,-0.00672,0.0478,0.038026,31.71,66.3798503474044
6912,-8.401799,-3.731009,4.007978,-0.008399,0.041844,0.042302,31.71,66.4436147937746
6922,-8.413763,-3.736991,3.996612,-0.010385,0.03543,0.045204,31.7,66.5335800679549
6932,-8.429914,-3.739383,4.003192,-0.012675,0.027489,0.046426,31.7,66.5348856956914
6942,-8.440681,-3.738786,3.99063,-0.01573,0.018173,0.046578,31.7,66.6223130322183
6952,-8.437093,-3.750151,3.993023,-0.018479,0.008705,0.04444,31.7,66.6128074184084
6962,-8.459825,-3.762714,3.991827,-0.021228,-0.002443,0.040928,31.68,66.6774114449467
6972,-8.472386,-3.760321,3.997808,-0.024435,-0.014508,0.036346,31.68,66.6698492710479
6982,-8.488539,-3.766303,3.992425,-0.027184,-0.02642,0.030849,31.65,66.7364554286379
6992,-8.497512,-3.763312,3.981657,-0.030696,-0.039248,0.023824,31.65,66.8081630664666
7002,-8.496315,-3.766303,3.99063,-0.033445,-0.052687,0.015424,31.71,66.7617013267088
7012,-8.488539,-3.773481,3.984648,-0.036346,-0.066279,0.005498,31.71,66.7834767898779
7022,-8.495118,-3.772285,3.998407,-0.038637,-0.079412,-0.004887,31.7,66.7242124983286
7032,-8.483154,-3.78066,3.991228,-0.041233,-0.091477,-0.014966,31.7,66.7447323260137
7042,-8.46461,-3.778865,4.010969,-0.043371,-0.104153,-0.025809,31.68,66.6022778076182
7052,-8.451449,-3.764508,4.02413,-0.047037,-0.125227,-0.047495,31.68,66.4933898719496
7062,-8.4347,-3.769892,4.030112,-0.047647,-0.13271,-0.056963,31.71,66.4325034476377
7072,-8.420342,-3.764508,4.038486,-0.047495,-0.138056,-0.065515,31.7,66.354005014199
7082,-8.391629,-3.768696,4.063013,-0.048106,-0.141721,-0.072388,31.7,66.1700314917142
7092,-8.365308,-3.768098,4.074379,-0.048564,-0.142637,-0.079718,31.7,66.0547719715428
7102,-8.350353,-3.757928,4.080959,-0.0478,-0.142484,-0.084299,31.7,65.9790867712449
7112,-8.327621,-3.753741,4.091129,-0.046731,-0.138208,-0.087354,31.71,65.8736045216243
7122,-8.298907,-3.739383,4.111467,-0.045968,-0.132405,-0.089186,31.71,65.6919112701656
7132,-8.278568,-3.741179,4.122834,-0.043677,-0.123089,-0.087812,31.69,65.5903350089212
7142,-8.265409,-3.741776,4.131208,-0.041539,-0.112246,-0.085979,31.69,65.5186168791234
7152,-8.238488,-3.722634,4.147958,-0.040928,-0.09896,-0.083078,31.69,65.3534246426575
7162,-8.209177,-3.726821,4.154539,-0.038332,-0.083078,-0.076664,31.69,65.2587917345634
7172,-8.210971,-3.722634,4.155136,-0.035888,-0.065973,-0.069486,31.7,65.2554300937961
7182,-8.205587,-3.71067,4.1671,-0.033903,-0.047953,-0.059865,31.7,65.1689112274199
7192,-8.19123,-3.7005,4.162913,-0.031154,-0.029016,-0.051771,31.7,65.1489375679588
7202,-8.184649,-3.719643,4.165306,-0.027947,-0.009774,-0.039248,31.7,65.1410140259343
7212,-8.17149,-3.690929,4.163511,-0.025656,0.009774,-0.027336,31.66,65.0923780203793
7222,-8.187043,-3.696911,4.15394,-0.022144,0.047495,-0.001069,31.66,65.1831960180442
7232,-8.200802,-3.688536,4.144369,-0.016188,0.064294,0.013286,31.66,65.2555756186447
7242,-8.216354,-3.689135,4.140181,-0.013134,0.079871,0.025962,31.71,65.3124742388476
7252,-8.220542,-3.691527,4.12044,-0.00901,0.094073,0.039859,31.71,65.4277838964028
7262,-8.238488,-3.686144,4.109673,-0.006109,0.106291,0.05284,31.7,65.5184097789299
7273,-8.25165,-3.682554,4.103093,-0.002749,0.115148,0.065668,31.7,65.5782298766611
7282,-8.279166,-3.682554,4.082156,-0.000458,0.122937,0.077274,31.7,65.7480451984929
7292,-8.298308,-3.681956,4.064807,0.001985,0.127518,0.086743,31.7,65.8799736200591
7302,-8.325229,-3.678366,4.051049,0.005192,0.129962,0.096364,31.72,66.0066269205912
7312,-8.345568,-3.684349,4.04387,0.00733,0.129656,0.103236,31.72,66.0933680772101
7322,-8.370691,-3.687938,4.021138,0.009774,0.126602,0.108734,31.67,66.2693163891228
7332,-8.377871,-3.681956,4.006183,0.011759,0.121562,0.112399,31.67,66.3574456824121
7342,-8.411968,-3.694518,3.99063,0.014203,0.113926,0.114385,31.68,66.5221406252576
7352,-8.440084,-3.693322,3.98405,0.016188,0.104458,0.113926,31.68,66.6140591037993
7362,-8.450253,-3.701697,3.98405,0.017562,0.093004,0.11301,31.69,66.6427423726767
7372,-8.469396,-3.709473,3.986442,0.018631,0.080176,0.108887,31.69,66.6768435502015
7382,-8.489137,-3.706482,3.979862,0.018784,0.066279,0.101862,31.68,66.7491829420043
7392,-8.519646,-3.705884,3.983452,0.01909,0.051618,0.084758,31.68,66.7925316256699
7402,-8.52443,-3.71067,3.976273,0.018173,0.02138,0.075595,31.68,66.8439773826096
7412,-8.535198,-3.726223,3.997808,0.015882,0.006109,0.062919,31.7,66.7678021846981
7422,-8.531011,-3.709473,4.001398,0.013592,-0.008094,0.04948,31.7,66.7256386960586
7432,-8.517851,-3.720839,4.004389,0.010843,-0.020617,0.035583,31.7,66.6932560505157
7442,-8.510672,-3.712464,4.017549,0.00672,-0.032834,0.020311,31.7,66.60255849644
7452,-8.507681,-3.722036,4.026522,0.001985,-0.043371,0.006567,31.69,66.5583938135628
7462,-8.491529,-3.719045,4.037888,-0.003207,-0.052229,-0.008399,31.69,66.4632472593569
7472,-8.474181,-3.71725,4.049852,-0.008094,-0.059407,-0.022449,31.73,66.3634075455833
7482,-8.460423,-3.732804,4.055236,-0.013897,-0.063988,-0.036346,31.73,66.3210194709146
7492,-8.460423,-3.728018,4.067201,-0.0197,-0.067042,-0.049633,31.72,66.2544620624001
7502,-8.442476,-3.714857,4.073183,-0.025504,-0.06857,-0.061697,31.72,66.1736278511678
7512,-8.42453,-3.718446,4.079165,-0.03146,-0.068875,-0.072235,31.7,66.1080848582505
7522,-8.404789,-3.726223,4.086941,-0.036652,-0.067501,-0.082467,31.7,66.0332146263379
7532,-8.401799,-3.726821,4.085745,-0.042302,-0.065363,-0.090255,31.7,66.0336764347418
7542,-8.376076,-3.726821,4.091129,-0.047189,-0.062766,-0.095906,31.7,65.9511009528856
7552,-8.359925,-3.732804,4.097709,-0.051465,-0.059254,-0.100335,31.7,65.8881086716366
7562,-8.331809,-3.729214,4.085146,-0.056047,-0.055589,-0.103847,31.7,65.8903000443766
7572,-8.322835,-3.722036,4.088138,-0.060781,-0.045815,-0.103236,31.71,65.8485857075216
7582,-8.313264,-3.725027,4.086343,-0.062003,-0.040623,-0.099571,31.67,65.8403431883608
7592,-8.295916,-3.721437,4.083352,-0.062003,-0.036346,-0.09499,31.67,65.815332084589
7602,-8.29472,-3.717848,4.072584,-0.062461,-0.031307,-0.089339,31.71,65.8658042006969
7612,-8.280961,-3.726821,4.069593,-0.061239,-0.027184,-0.081092,31.71,65.8606270306242
7625,-8.282756,-3.719045,4.06062,-0.059407,-0.022297,-0.071777,31.7,65.9041432317355
7632,-8.276175,-3.726821,4.059424,-0.057421,-0.018631,-0.062308,31.7,65.9038163881263
7642,-8.276773,-3.71067,4.055834,-0.054367,-0.016035,-0.052229,31.69,65.9084144017343
7652,-8.276773,-3.70409,4.05404,-0.050702,-0.012523,-0.04047,31.69,65.9115278658037
7662,-8.280961,-3.708875,4.048058,-0.047189,-0.009621,-0.027642,31.71,65.9566188010187
7672,-8.278568,-3.699304,4.04746,-0.042913,-0.007483,-0.016341,31.71,65.9454463559056
7682,-8.278568,-3.707679,4.036692,-0.039095,-0.005651,-0.004581,31.69,66.0102345574508
7692,-8.291729,-3.708277,4.036094,-0.034208,-0.004581,0.005956,31.69,66.0421104760544
7702,-8.296515,-3.705286,4.03729,-0.030085,-0.00336,0.016341,31.69,66.0431810161835
7712,-8.283952,-3.714259,4.048058,-0.024893,-0.002443,0.027184,31.69,65.9681994899323
7722,-8.306684,-3.692126,4.036094,-0.021838,-0.002291,0.035277,31.7,66.0586769326402
7732,-8.319246,-3.707679,4.051049,-0.018173,-0.002138,0.041233,31.7,66.0216340814357
7742,-8.328817,-3.69392,4.057031,-0.013286,-0.000153,0.052534,31.69,65.9976029336743
7752,-8.340781,-3.699902,4.057629,-0.007178,0.000305,0.055589,31.71,66.0256538060469
7762,-8.345568,-3.696313,4.060022,-0.00504,0.000153,0.057574,31.71,66.0199225832303
7772,-8.363514,-3.705884,4.063013,-0.002902,0.000611,0.057116,31.71,66.0514696318932
7782,-8.368299,-3.708875,4.073183,-0.000916,0.001527,0.055589,31.71,66.0112841735589
7792,-8.376076,-3.694518,4.074977,0.000611,0.00336,0.053145,31.7,66.0049509858988
7802,-8.369495,-3.711268,4.080361,0.001069,0.004734,0.050702,31.7,65.9785925485068
7812,-8.376674,-3.711268,4.085745,0.002749,0.00672,0.045204,31.65,65.9657647213741
7822,-8.38146,-3.707081,4.085745,0.002749,0.00901,0.040012,31.65,65.9720009467797
7832,-8.382057,-3.712464,4.092325,0.003665,0.011759,0.034056,31.68,65.9440336507185
7842,-8.382057,-3.709473,4.089334,0.002902,0.01405,0.027947,31.68,65.9568071700573
7852,-8.392226,-3.72383,4.091727,0.002902,0.016952,0.021991,31.67,65.9794495035559
7862,-8.386245,-3.708875,4.08754,0.002749,0.019853,0.015119,31.67,65.9744999621106
7872,-8.39462,-3.722036,4.089334,0.002291,0.022449,0.008247,31.68,65.9952978448889
7882,-8.393424,-3.722634,4.082754,0.001527,0.025045,0.002596,31.68,66.0275971724634
7892,-8.391031,-3.722036,4.078567,0.000611,0.027184,-0.002749,31.7,66.0437884037456
7902,-8.38146,-3.722036,4.077968,0.001222,0.030085,-0.007178,31.7,66.0266356402274
7912,-8.38146,-3.736392,4.062415,0.000611,0.031765,-0.014966,31.7,66.1213096901991
7922,-8.382057,-3.735795,4.05404,-0.000611,0.031765,-0.017562,31.7,66.1657443232828
7932,-8.376076,-3.741179,4.061816,-0.001527,0.031154,-0.018784,31.7,66.1175808351476
7942,-8.397612,-3.738187,4.055236,-0.001985,0.030849,-0.018479,31.68,66.1944931141662
7952,-8.379066,-3.736392,4.042674,-0.002138,0.029016,-0.018326,31.68,66.2194134500391
7962,-8.380263,-3.745964,4.042076,-0.00336,0.027031,-0.017868,31.71,66.2340459539432
7972,-8.386844,-3.751348,4.035496,-0.003665,0.023213,-0.016035,31.71,66.2873109378317
7982,-8.388638,-3.736392,4.039683,-0.004276,0.018784,-0.014203,31.72,66.2551793885591
7992,-8.374879,-3.749553,4.027121,-0.005956,0.013897,-0.011301,31.72,66.3043557513337
8002,-8.392825,-3.751946,4.027719,-0.007025,0.009163,-0.008094,31.69,66.3410527695013
8012,-8.395219,-3.748955,4.022933,-0.008399,0.003665,-0.005498,31.69,66.3682922619111
8022,-8.389236,-3.746562,4.02413,-0.009927,-0.003054,-0.002596,31.68,66.3472848410231
8032,-8.402995,-3.74716,4.028317,-0.011148,-0.008858,0.000916,31.68,66.3547198188016
8042,-8.406584,-3.741179,4.023531,-0.01237,-0.015119,0.003665,31.72,66.3816651511979
8052,-8.385049,-3.742374,4.02413,-0.013592,-0.021838,0.006567,31.72,66.3346040531419
8062,-8.403594,-3.738786,4.017549,-0.014508,-0.027336,0.009774,31.7,66.404480294793
8072,-8.393424,-3.738786,4.031308,-0.017104,-0.032681,0.010385,31.7,66.3112461070219
8082,-8.400003,-3.731009,4.048656,-0.018631,-0.037568,0.012675,31.68,66.2271519810975
8092,-8.370691,-3.733402,4.048058,-0.022907,-0.046273,0.01405,31.69,66.1707948104626
8102,-8.377273,-3.729214,4.052843,-0.024893,-0.047953,0.014355,31.69,66.1557257061565
8112,-8.377871,-3.723232,4.061218,-0.026114,-0.049327,0.01405,31.71,66.1076017195757
8122,-8.367702,-3.727419,4.074379,-0.027794,-0.050702,0.012981,31.71,66.0212669817481
8132,-8.376674,-3.728018,4.068995,-0.02978,-0.04948,0.011454,31.68,66.0689565069991
8142,-8.360522,-3.716652,4.075575,-0.031154,-0.047342,0.008858,31.68,65.9895894994113
8152,-8.360522,-3.72383,4.088736,-0.033292,-0.045051,0.006414,31.72,65.927660124655
8162,-8.34138,-3.716652,4.09412,-0.033903,-0.040164,0.003512,31.72,65.8518627528718
8172,-8.341978,-3.702295,4.108477,-0.034667,-0.036194,0.000764,31.65,65.764485116259
8182,-8.345568,-3.704688,4.10728,-0.034972,-0.030543,-0.00168,31.65,65.7807199228366
8192,-8.335398,-3.7005,4.101298,-0.03543,-0.024435,-0.005651,31.7,65.7861357254622
8202,-8.333005,-3.705884,4.109673,-0.036041,-0.01741,-0.008858,31.7,65.7423842705091
8212,-8.330013,-3.690331,4.10728,-0.036346,-0.010385,-0.012828,31.69,65.7335888438715
8222,-8.321639,-3.694518,4.107878,-0.036041,-0.002902,-0.016341,31.69,65.7164174503967
8232,-8.330013,-3.684349,4.110271,-0.035277,0.003818,-0.0197,31.67,65.7122490078571
8242,-8.328219,-3.691527,4.103093,-0.035125,0.010537,-0.023976,31.67,65.7527548219898
8252,-8.333604,-3.680759,4.091727,-0.03375,0.017715,-0.026267,31.69,65.8135468047399
8262,-8.329416,-3.675974,4.09412,-0.03207,0.029322,-0.031001,31.69,65.787464026383
8272,-8.330013,-3.691527,4.093522,-0.029016,0.034667,-0.032681,31.69,65.8066752692425
8282,-8.34796,-3.676572,4.079762,-0.027947,0.03879,-0.035277,31.68,65.9030183347797
8292,-8.344371,-3.678965,4.067799,-0.025809,0.041997,-0.035125,31.68,65.9602455570439
8302,-8.344371,-3.680161,4.070191,-0.022755,0.044288,-0.035277,31.66,65.9488405527576
8312,-8.35813,-3.67418,4.044468,-0.02138,0.045204,-0.034361,31.66,66.1074292411881
8322,-8.358727,-3.674777,4.052843,-0.019242,0.045968,-0.033139,31.73,66.0653392857152
8332,-8.352147,-3.675974,4.046263,-0.015882,0.045357,-0.031154,31.73,66.0869565589891
8342,-8.367103,-3.675375,4.031308,-0.013897,0.04383,-0.028711,31.65,66.196651679384
8352,-8.353344,-3.677768,4.031906,-0.011759,0.041081,-0.02642,31.65,66.166553241963
8362,-8.373683,-3.685545,4.018745,-0.007636,0.038637,-0.021686,31.68,66.2859704545108
8372,-8.349156,-3.687938,4.01396,-0.00504,0.034208,-0.016952,31.68,66.2615121417078
8382,-8.35813,-3.678366,4.007978,-0.002291,0.029474,-0.011301,31.68,66.3030329508684
8392,-8.350353,-3.697509,4.013362,0.000764,0.024587,-0.004581,31.68,66.2761384718527
8402,-8.34796,-3.699902,4.005585,0.003665,0.0197,0.001527,31.7,66.3142328935562
8412,-8.360522,-3.702295,3.999603,0.006261,0.014661,0.008858,31.7,66.3744065903669
8422,-8.36112,-3.701697,4.005585,0.008858,0.008552,0.015882,31.69,66.3436516062163
8432,-8.36112,-3.717848,4.008576,0.011148,0.002443,0.028558,31.69,66.3430129052729
8442,-8.368897,-3.716652,4.015755,0.01405,-0.007636,0.034972,31.69,66.3205569129108
8452,-8.370691,-3.721437,4.015755,0.015424,-0.012523,0.040623,31.76,66.3287986812884
8462,-8.368897,-3.722036,4.027121,0.016799,-0.015577,0.045204,31.76,66.2659788433465
8472,-8.375478,-3.73041,4.036692,0.016493,-0.019548,0.049633,31.71,66.23754760945
8482,-8.372486,-3.741179,4.031308,0.014966,-0.02306,0.052534,31.71,66.2695460966711
8492,-8.373683,-3.736392,4.049254,0.013897,-0.025045,0.053909,31.7,66.1736644408467
8502,-8.390432,-3.748955,4.052245,0.012675,-0.027642,0.05452,31.7,66.2051040180145
8512,-8.385648,-3.741179,4.056432,0.01069,-0.028253,0.053603,31.7,66.1658775680294
8522,-8.405987,-3.74058,4.070789,0.007483,-0.029169,0.051313,31.7,66.1332812611163
8532,-8.423334,-3.751348,4.073781,0.004276,-0.030391,0.046884,31.68,66.164245242495
8542,-8.402995,-3.751348,4.076173,-0.000153,-0.031154,0.041844,31.68,66.1090548699678
8552,-8.416754,-3.764508,4.089334,-0.004581,-0.030696,0.035277,31.71,66.0819508640772
8562,-8.416155,-3.760919,4.080959,-0.009468,-0.030085,0.027184,31.71,66.1208268559716
8572,-8.42812,-3.747759,4.095914,-0.014203,-0.030238,0.019548,31.68,66.0559939406374
8582,-8.433504,-3.765705,4.095316,-0.019853,-0.029474,0.009468,31.68,66.0872232218428
8592,-8.438289,-3.76391,4.093522,-0.02474,-0.02978,-0.000153,31.7,66.1048820762932
8602,-8.426923,-3.760919,4.098905,-0.028711,-0.028405,-0.010232,31.7,66.0502971379183
8612,-8.423933,-3.763312,4.09412,-0.037721,-0.028711,-0.032376,31.7,66.0710768559272
8622,-8.425129,-3.758526,4.092325,-0.041997,-0.028558,-0.042455,31.63,66.0784136915466
8632,-8.41137,-3.762714,4.083352,-0.045051,-0.028558,-0.052993,31.63,66.1000212420295
8642,-8.408977,-3.75075,4.081557,-0.0478,-0.028863,-0.062156,31.7,66.0930751559353
8652,-8.389236,-3.759125,4.085146,-0.049938,-0.029016,-0.069028,31.7,66.0406799933526
8662,-8.386844,-3.750151,4.083352,-0.050702,-0.027642,-0.076205,31.75,66.0364852607801
8672,-8.376674,-3.754339,4.077968,-0.050855,-0.027642,-0.079565,31.75,66.0470086757067
8682,-8.358727,-3.751348,4.078567,-0.050855,-0.026878,-0.083536,31.72,66.003059827564
8692,-8.337791,-3.741776,4.080959,-0.050091,-0.025962,-0.087506,31.72,65.9369569853456
8702,-8.344969,-3.734,4.071986,-0.048106,-0.023518,-0.087659,31.69,65.9917304415093
8712,-8.318049,-3.733402,4.073781,-0.04612,-0.021075,-0.08491,31.69,65.9244046652452
8722,-8.310871,-3.734,4.074977,-0.04383,-0.018937,-0.082467,31.76,65.9033756432159
8732,-8.294122,-3.722634,4.071986,-0.040775,-0.015272,-0.078649,31.76,65.8722661101069
8742,-8.289336,-3.718446,4.071986,-0.036652,-0.01069,-0.072082,31.72,65.8579606907623
8752,-8.274381,-3.716054,4.071388,-0.033139,-0.006109,-0.064752,31.72,65.8266388402475
8762,-8.251051,-3.697509,4.073781,-0.029322,-0.000458,-0.055894,31.73,65.7457060592679
8772,-8.244471,-3.701697,4.078567,-0.025351,0.005651,-0.046884,31.73,65.7103078515002
8782,-8.242676,-3.699304,4.076771,-0.016341,0.019853,-0.023976,31.73,65.7135465035789
8792,-8.24148,-3.690331,4.075575,-0.012828,0.02642,-0.012065,31.69,65.7085242528144
8802,-8.2349,-3.689135,4.086343,-0.009468,0.034361,0,31.69,65.6363021798705
8812,-8.260024,-3.681358,4.072584,-0.005651,0.041539,0.012065,31.7,65.7558131680285
8822,-8.259426,-3.682554,4.070789,-0.002291,0.048258,0.024587,31.7,65.7651284696408
8832,-8.258827,-3.680161,4.068397,0.000764,0.055741,0.036805,31.71,65.7741244062655
8842,-8.271988,-3.67059,4.060022,0.003971,0.061239,0.048106,31.71,65.8375287467192
8852,-8.278568,-3.679563,4.066004,0.007483,0.066432,0.058948,31.73,65.8288413656602
8862,-8.303694,-3.668197,4.048058,0.00901,0.07025,0.068111,31.73,65.9665732908356
8872,-8.301898,-3.676572,4.040879,0.010996,0.072998,0.076511,31.68,66.0084715418942
8882,-8.329416,-3.683152,4.046263,0.01405,0.075136,0.083994,31.68,66.0452414965388
8892,-8.352745,-3.687938,4.046263,0.014813,0.074831,0.088728,31.65,66.099451674821
8902,-8.362915,-3.678366,4.03729,0.016188,0.073609,0.092393,31.65,66.1591667483761
8912,-8.375478,-3.685545,4.025924,0.018326,0.070555,0.095295,31.67,66.2520864862473
8922,-8.395817,-3.681358,4.016951,0.018173,0.066126,0.095448,31.67,66.3381501544528
8932,-8.419147,-3.689733,4.008576,0.019395,0.06017,0.093921,31.68,66.4386833878149
8942,-8.432905,-3.696911,3.993621,0.020006,0.053298,0.091019,31.68,66.5522709361747
8952,-8.469995,-3.698706,4.004389,0.019548,0.033903,0.078954,31.68,66.5746173261416
8962,-8.487941,-3.710072,3.994219,0.018173,0.023213,0.071471,31.7,66.6750267492454
8972,-8.482555,-3.707081,4.006782,0.017562,0.012065,0.062461,31.7,66.5957065030249
8982,-8.499306,-3.713063,3.99721,0.016646,0.000611,0.05284,31.69,66.6855279756666
8992,-8.499905,-3.719643,4.006782,0.015272,-0.011454,0.041539,31.69,66.6428388316972
9002,-8.506484,-3.714857,4.019942,0.012675,-0.023518,0.028253,31.7,66.5836380809796
9012,-8.498111,-3.732205,4.019942,0.010079,-0.035125,0.016341,31.7,66.5820388368748
9022,-8.498111,-3.73041,4.025326,0.007941,-0.045051,0.003512,31.69,66.552432428376
9032,-8.501101,-3.727419,4.028317,0.004581,-0.054672,-0.008552,31.69,66.5403566688054
9042,-8.484949,-3.726223,4.049852,0.001069,-0.06185,-0.020464,31.73,66.3939953784297
9052,-8.465807,-3.73041,4.049254,-0.002902,-0.070097,-0.032834,31.73,66.3611260996223
9062,-8.449656,-3.734,4.062415,-0.00672,-0.075289,-0.044135,31.7,66.262335227099
9072,-8.446664,-3.732205,4.070191,-0.010843,-0.079107,-0.054214,31.7,66.2140089339541
9082,-8.429317,-3.728616,4.082754,-0.014813,-0.08094,-0.063225,31.68,66.1089753121868
9092,-8.414959,-3.741776,4.082754,-0.019242,-0.082009,-0.071319,31.68,66.0910316233795
9102,-8.391629,-3.734,4.095914,-0.023213,-0.081551,-0.077427,31.7,65.9659730015882
9112,-8.383853,-3.731009,4.106682,-0.026878,-0.079412,-0.082161,31.7,65.890613523491
9122,-8.362316,-3.724428,4.107878,-0.031612,-0.076205,-0.087812,31.68,65.8322425830854
9132,-8.340183,-3.735196,4.109673,-0.03879,-0.066279,-0.087659,31.71,65.7858472581043
9142,-8.318049,-3.735196,4.115655,-0.041844,-0.059407,-0.087506,31.71,65.7071594458969
9152,-8.312666,-3.729812,4.116851,-0.043677,-0.052076,-0.08491,31.68,65.6841362168706
9162,-8.300702,-3.724428,4.115057,-0.046273,-0.043524,-0.081856,31.68,65.6625190455917
9172,-8.289336,-3.737589,4.118048,-0.047342,-0.03543,-0.077274,31.71,65.6351273711165
9182,-8.27139,-3.731607,4.115655,-0.048717,-0.026725,-0.071624,31.71,65.6030196072059
9192,-8.280362,-3.727419,4.115655,-0.049175,-0.017562,-0.064446,31.66,65.6183523021152
9202,-8.27139,-3.723232,4.103093,-0.049175,-0.009774,-0.058032,31.66,65.6606803974128
9212,-8.265409,-3.728018,4.100101,-0.049022,-0.001374,-0.050396,31.69,65.6681020210221
9222,-8.261221,-3.726223,4.091129,-0.048411,0.005803,-0.04215,31.69,65.7043926899868
9232,-8.276175,-3.718446,4.088736,-0.047647,0.012675,-0.034361,31.69,65.7416884974637
9242,-8.273782,-3.716054,4.077968,-0.045662,0.01909,-0.025198,31.69,65.7907632359514
9252,-8.265409,-3.721437,4.073183,-0.042608,0.025504,-0.016952,31.71,65.8030901470799
9262,-8.268997,-3.716054,4.067201,-0.039401,0.029474,-0.008705,31.71,65.837068663704
9272,-8.277372,-3.717848,4.076771,-0.036805,0.033292,-0.000764,31.7,65.8065220687687
9282,-8.290532,-3.726821,4.057031,-0.033139,0.036805,0.007178,31.7,65.9471590036872
9292,-8.298907,-3.712464,4.048058,-0.029627,0.039706,0.013897,31.71,65.9984801254489
9302,-8.316854,-3.71725,4.055236,-0.022297,0.040623,0.025045,31.71,66.0036603744024
9312,-8.328219,-3.716652,4.049254,-0.018173,0.039706,0.02978,31.67,66.058702540931
9322,-8.338987,-3.710072,4.04387,-0.01405,0.039401,0.033598,31.7,66.1036156447764
9332,-8.346166,-3.701697,4.044468,-0.010537,0.037874,0.03543,31.7,66.1078252633229
9342,-8.357532,-3.713661,4.031906,-0.006414,0.036346,0.038637,31.68,66.2090573041779
9352,-8.367702,-3.714259,4.046263,-0.003665,0.034056,0.038485,31.68,66.1558811741843
9362,-8.372486,-3.702295,4.040879,-0.001069,0.032223,0.037721,31.67,66.1829843138497
9372,-8.382656,-3.722634,4.050451,0.001985,0.030238,0.036957,31.67,66.1734148660669
9382,-8.373085,-3.718446,4.059424,0.004734,0.027947,0.035125,31.7,66.1023516730482
9392,-8.39821,-3.711268,4.04746,0.006261,0.025656,0.032223,31.7,66.2112223895578
9402,-8.396414,-3.711268,4.05404,0.008399,0.023366,0.029169,31.68,66.1730632891661
9412,-8.397612,-3.712464,4.048656,0.009927,0.022297,0.025656,31.68,66.2048275303475
9422,-8.402995,-3.712464,4.064807,0.01069,0.021075,0.021686,31.71,66.1318705130124
9432,-8.38804,-3.716054,4.058825,0.011301,0.020769,0.018021,31.71,66.134864477816
9442,-8.396414,-3.705884,4.061218,0.011759,0.020311,0.013286,31.72,66.1305608462137
9452,-8.391629,-3.708875,4.063612,0.012675,0.020464,0.009774,31.72,66.1107389560861
9462,-8.387442,-3.715455,4.068397,0.012981,0.020006,0.005651,31.71,66.0830626657928
9472,-8.380861,-3.711268,4.060022,0.012828,0.02138,0.000153,31.71,66.1089478614958
9482,-8.374281,-3.723232,4.057031,0.011759,0.022144,-0.00336,31.74,66.1218908462566
9492,-8.369495,-3.722036,4.05404,0.010996,0.021838,-0.005192,31.67,66.1262841835736
9502,-8.370691,-3.73041,4.061218,0.011606,0.022602,-0.005498,31.67,66.099171953059
9512,-8.366504,-3.726223,4.048058,0.011148,0.022449,-0.005956,31.71,66.1551981237685
9522,-8.360522,-3.725027,4.045067,0.010232,0.022297,-0.005345,31.71,66.1570872190324
9532,-8.362915,-3.732205,4.045665,0.009621,0.02138,-0.004429,31.7,66.1657756253567
9542,-8.362316,-3.724428,4.030112,0.009316,0.0197,-0.003054,31.7,66.2386744333937
9552,-8.368897,-3.718446,4.034299,0.008705,0.018173,-0.000916,31.68,66.2249961998704
9562,-8.377871,-3.718446,4.03729,0.007636,0.014661,0.001374,31.68,66.2282528894643
9572,-8.369495,-3.731607,4.031906,0.007483,0.01237,0.004734,31.72,66.2511369993781
9582,-8.38146,-3.732205,4.020541,0.006261,0.008858,0.006872,31.72,66.3363737871452
9592,-8.377871,-3.725027,4.01396,0.004429,0.003512,0.010385,31.67,66.3566405443258
9602,-8.382656,-3.728616,4.020541,0.002749,-0.00168,0.013286,31.67,66.3355321300649
9612,-8.378469,-3.726821,4.021737,0.000764,-0.008247,0.01573,31.71,66.3188021040031
9626,-8.404191,-3.727419,4.028915,-0.003971,-0.021228,0.019853,31.73,66.335730149359
9632,-8.404191,-3.727419,4.024727,-0.003971,-0.021228,0.019853,31.73,66.3576289491114
9642,-8.418548,-3.719045,4.031906,-0.006872,-0.027489,0.019395,31.73,66.3423987503906
9652,-8.418548,-3.719643,4.034897,-0.012981,-0.041386,0.019548,31.71,66.3273316604318
9662,-8.413763,-3.72383,4.031308,-0.01573,-0.047647,0.017562,31.68,66.3399357435294
9672,-8.419745,-3.728018,4.057031,-0.018937,-0.053451,0.015119,31.68,66.2221513074936
9682,-8.415558,-3.720241,4.049852,-0.021991,-0.058338,0.012828,31.69,66.2435646666058
9692,-8.417951,-3.722036,4.057031,-0.025045,-0.063072,0.009316,31.69,66.2128244462084
9702,-8.417951,-3.725027,4.060022,-0.028253,-0.06689,0.004429,31.69,66.2000171860504
9712,-8.39462,-3.717848,4.074379,-0.030849,-0.068722,0.000153,31.69,66.069288617071
9722,-8.410173,-3.708875,4.089334,-0.034208,-0.07025,-0.005345,31.7,66.0159224909752
9732,-8.404789,-3.710072,4.085146,-0.036805,-0.070555,-0.012065,31.7,66.0274365187465
9742,-8.397612,-3.716054,4.092325,-0.038943,-0.068417,-0.017257,31.7,65.9804519539425
9752,-8.380263,-3.705286,4.097709,-0.04047,-0.066279,-0.02306,31.7,65.9053935994278
9762,-8.370093,-3.716652,4.096512,-0.041844,-0.062156,-0.029474,31.7,65.9006908091123
9772,-8.365907,-3.708277,4.12403,-0.043219,-0.057116,-0.03543,31.7,65.7404665959976
9782,-8.337791,-3.701697,4.12403,-0.042913,-0.050702,-0.041386,31.67,65.6737593331905
9792,-8.3348,-3.707679,4.114459,-0.042913,-0.044288,-0.046884,31.67,65.7229754909281
9802,-8.338987,-3.7005,4.125226,-0.041997,-0.036041,-0.051007,31.71,65.6689550741564
9812,-8.315059,-3.690331,4.134199,-0.042302,-0.027336,-0.054672,31.71,65.5606619534357
9822,-8.31446,-3.692126,4.128217,-0.039706,-0.007483,-0.060476,31.7,65.5923250115341
9832,-8.306684,-3.691527,4.12403,-0.038026,0.002138,-0.06185,31.67,65.5967780027345
9842,-8.295319,-3.684349,4.127021,-0.035277,0.012523,-0.062156,31.67,65.5495495286642
9852,-8.291729,-3.694518,4.123432,-0.033292,0.021838,-0.062308,31.7,65.5703540731284
9862,-8.287541,-3.687938,4.109673,-0.030849,0.032223,-0.060323,31.7,65.6269554499507
9872,-8.28455,-3.68375,4.106084,-0.028405,0.041692,-0.05849,31.7,65.6352388617811
9882,-8.272586,-3.68375,4.092923,-0.02474,0.049633,-0.055283,31.7,65.6783616826374
9892,-8.285748,-3.689733,4.079165,-0.021838,0.056505,-0.05116,31.73,65.7848934609337
9902,-8.280362,-3.693322,4.077968,-0.018173,0.062766,-0.044746,31.73,65.7830094883194
9912,-8.282756,-3.685545,4.070191,-0.014355,0.067348,-0.038943,31.65,65.8215898163743
9922,-8.293524,-3.696313,4.053442,-0.011148,0.071624,-0.030391,31.65,65.9431854023409
9932,-8.298907,-3.701099,4.050451,-0.007483,0.074831,-0.023213,31.69,65.9750323615333
9942,-8.307282,-3.688536,4.03729,-0.004276,0.075442,-0.014355,31.69,66.0502500302002
9952,-8.309077,-3.697509,4.025326,-0.001069,0.075747,-0.005192,31.68,66.1255983930289
9962,-8.325229,-3.7005,4.016951,0.002291,0.073609,0.003512,31.68,66.2068705687778
9972,-8.328219,-3.707081,4.007978,0.004734,0.07025,0.01237,31.66,66.2666598130954
9982,-8.330013,-3.711866,3.999603,0.007941,0.066126,0.021533,31.66,66.319074853904
9992,-8.358727,-3.714857,4.000201,0.011606,0.054367,0.040012,31.7,66.379204804683
10002,-8.363514,-3.714259,3.993621,0.01573,0.0478,0.047647,31.68,66.423300284494
10012,-8.382656,-3.721437,3.985246,0.01741,0.040164,0.055589,31.68,66.5140485258955
10022,-8.393424,-3.729812,3.994817,0.01909,0.03146,0.060323,31.68,66.4940187496526
10032,-8.397013,-3.731607,3.996014,0.020922,0.02306,0.065515,31.68,66.4968844743914
10042,-8.397013,-3.728616,4.004389,0.020464,0.014355,0.069791,31.7,66.4502100213815
10052,-8.41436,-3.731607,4.012166,0.020464,0.005651,0.071929,31.7,66.4484446212191
10062,-8.422735,-3.739982,4.007978,0.020464,-0.002443,0.073304,31.7,66.4955106693768
10072,-8.422735,-3.741179,4.017549,0.01909,-0.00901,0.072235,31.7,66.446596331883
10082,-8.437093,-3.74716,4.027719,0.017868,-0.016799,0.069791,31.73,66.4289107011781
10092,-8.438289,-3.742973,4.03729,0.015272,-0.022755,0.066126,31.73,66.377647813221
10102,-8.445468,-3.74716,4.050451,0.013439,-0.027947,0.060476,31.67,66.3279623131627
10112,-8.437692,-3.755535,4.055236,0.009774,-0.032987,0.054214,31.67,66.2946196983726
10122,-8.449656,-3.75075,4.067799,0.005345,-0.036194,0.045815,31.7,66.2498665726886
10132,-8.443074,-3.758526,4.068397,0.002443,-0.039095,0.038332,31.7,66.2402343585211
10142,-8.449057,-3.748955,4.074977,-0.001985,-0.040623,0.029169,31.67,66.2096881014029
10152,-8.437692,-3.756732,4.098905,-0.006109,-0.041539,0.01741,31.67,66.0690128718012
10162,-8.429914,-3.744768,4.096512,-0.010843,-0.039859,-0.00336,31.66,66.0538696040248
10172,-8.426923,-3.754339,4.104887,-0.0197,-0.039248,-0.014813,31.7,66.0131035318924
10182,-8.415558,-3.752544,4.109075,-0.024282,-0.036652,-0.024893,31.7,65.9657211142723
10192,-8.41436,-3.745365,4.103691,-0.0281,-0.034514,-0.035583,31.67,65.9843685276831
10202,-8.400003,-3.746562,4.098905,-0.032223,-0.031918,-0.045357,31.67,65.980002672794
10212,-8.39821,-3.744169,4.101896,-0.03543,-0.028558,-0.053451,31.69,65.9584052139323
10222,-8.392226,-3.743571,4.1007,-0.038026,-0.025809,-0.060323,31.69,65.9513819079756
10232,-8.379665,-3.744768,4.09053,-0.041539,-0.02306,-0.067806,31.68,65.978819706702
10242,-8.38146,-3.742374,4.092325,-0.043219,-0.021075,-0.073457,31.68,65.9710100381111
10252,-8.367702,-3.729214,4.074379,-0.044135,-0.018631,-0.076358,31.7,66.0229635918423
10262,-8.359326,-3.731009,4.067799,-0.044899,-0.016188,-0.078954,31.7,66.041270733336
10272,-8.353942,-3.717848,4.063612,-0.045662,-0.014661,-0.079565,31.67,66.0392875111775
10282,-8.344371,-3.713661,4.058227,-0.045509,-0.013286,-0.078954,31.67,66.0431771262924
10292,-8.342576,-3.714857,4.059424,-0.044288,-0.01237,-0.077885,31.68,66.0342206955163
10302,-8.32463,-3.713661,4.061218,-0.042761,-0.011912,-0.074831,31.68,65.9854450642021
10312,-8.321041,-3.701099,4.046861,-0.041233,-0.011912,-0.07086,31.68,66.0412123902496
10322,-8.327023,-3.708277,4.051049,-0.039401,-0.012523,-0.065668,31.68,66.0387846502764
10332,-8.304291,-3.689135,4.036692,-0.03711,-0.011301,-0.059254,31.69,66.0475738384779
10342,-8.298308,-3.697509,4.040879,-0.030696,-0.010996,-0.042761,31.67,66.0206993340093
10352,-8.299506,-3.695116,4.039085,-0.027489,-0.009927,-0.03207,31.67,66.0304282854146
10362,-8.303694,-3.684947,4.041477,-0.025504,-0.010079,-0.023976,31.71,66.017122898457
10372,-8.289336,-3.691527,4.046861,-0.022144,-0.008858,-0.013897,31.71,65.9642682837853
10382,-8.3013,-3.681956,4.052245,-0.018937,-0.008094,-0.004887,31.68,65.9524719993041
10392,-8.291131,-3.68375,4.043272,-0.01573,-0.007789,0.004887,31.68,65.979602919735
10402,-8.295916,-3.675974,4.043272,-0.01237,-0.005651,0.015272,31.68,65.982467377854
10412,-8.292925,-3.668795,4.055834,-0.00901,-0.003207,0.025045,31.68,65.9030432238509
10422,-8.292327,-3.676572,4.049852,-0.005498,-0.001069,0.034514,31.73,65.9406676728717
10432,-8.297112,-3.669992,4.064209,-0.003207,0.002443,0.042455,31.73,65.8691305354702
10442,-8.30489,-3.678366,4.060022,-0.000458,0.00504,0.049633,31.68,65.9158606994516
10452,-8.318647,-3.678965,4.06062,0.002596,0.008094,0.056352,31.68,65.9428177881122
10462,-8.312068,-3.678965,4.06062,0.00504,0.011301,0.061087,31.7,65.9287027658628
10472,-8.322835,-3.683152,4.079165,0.007178,0.014661,0.065668,31.7,65.8584722544213
10482,-8.329416,-3.696911,4.069593,0.009316,0.018479,0.069333,31.7,65.9358337148877
10492,-8.344969,-3.691527,4.072584,0.011454,0.021228,0.07025,31.7,65.9483205414875
10502,-8.355139,-3.695116,4.069593,0.012523,0.025045,0.070402,31.68,65.9890738951108
10512,-8.374879,-3.708277,4.073183,0.015424,0.031307,0.067348,31.68,66.0247016782345
10522,-8.389835,-3.707081,4.071986,0.016646,0.033139,0.064752,31.68,66.0615548808289
10532,-8.387442,-3.705884,4.079165,0.01573,0.034361,0.05849,31.74,66.017904421096
10542,-8.390432,-3.71067,4.072584,0.015119,0.036041,0.054062,31.74,66.063060513455
10552,-8.408977,-3.71725,4.070789,0.014966,0.036805,0.046884,31.67,66.1177747926537
10562,-8.420342,-3.723232,4.071986,0.013286,0.035888,0.038332,31.67,66.1410700652167
10572,-8.42812,-3.718446,4.066602,0.012065,0.034667,0.030696,31.7,66.1810115467241
10582,-8.425129,-3.720241,4.058227,0.010079,0.033598,0.021686,31.7,66.2200041727823
10592,-8.432307,-3.733402,4.064209,0.008247,0.031918,0.012675,31.7,66.216132697742
10602,-8.434101,-3.729812,4.067799,0.005803,0.029016,0.002902,31.7,66.1978892299054
10612,-8.435897,-3.735196,4.058227,0.002596,0.026114,-0.004887,31.67,66.2564413107205
10622,-8.441879,-3.735795,4.057629,-0.000916,0.022297,-0.014203,31.67,66.2726204184346
10632,-8.44427,-3.735795,4.058227,-0.005192,0.017715,-0.023976,31.7,66.2745085077234
10642,-8.452645,-3.744768,4.059424,-0.008399,0.012981,-0.030849,31.7,66.2940684213709
10652,-8.438289,-3.738786,4.061218,-0.011606,0.00901,-0.038179,31.66,66.2492145904097
10662,-8.425727,-3.732804,4.056432,-0.015577,0.004429,-0.045204,31.66,66.242266161447
10672,-8.434101,-3.742374,4.048656,-0.018937,-0.000458,-0.051771,31.66,66.3091578311657
10682,-8.416155,-3.746562,4.044468,-0.023518,-0.01069,-0.058948,31.66,66.2973652719757
10692,-8.417352,-3.753142,4.045067,-0.031001,-0.015424,-0.061545,31.68,66.3028730059764
10702,-8.392226,-3.745365,4.046263,-0.034208,-0.019395,-0.062766,31.71,66.2367368730558
10712,-8.389236,-3.745365,4.042674,-0.037263,-0.023213,-0.062614,31.71,66.2492064660021
10722,-8.388638,-3.744169,4.049852,-0.040012,-0.02642,-0.06185,31.68,66.2093346770578
10732,-8.366504,-3.738187,4.065406,-0.043219,-0.029627,-0.06017,31.68,66.0757732582797
10742,-8.361719,-3.745365,4.06062,-0.044593,-0.031918,-0.057727,31.71,66.0974539016759
10752,-8.353942,-3.735196,4.041477,-0.046578,-0.034056,-0.053909,31.71,66.171578497668
10762,-8.35813,-3.74058,4.055834,-0.048564,-0.034667,-0.049786,31.69,66.1103606109254
10772,-8.338388,-3.739383,4.04387,-0.049175,-0.035736,-0.045662,31.69,66.1301095676839
10782,-8.334201,-3.722634,4.051647,-0.048564,-0.035277,-0.039859,31.66,66.064549631881
10792,-8.325229,-3.731009,4.045067,-0.048564,-0.034972,-0.033903,31.66,66.0879694615543
10802,-8.330612,-3.744169,4.058227,-0.047953,-0.034056,-0.028711,31.69,66.0429340326074
10812,-8.310871,-3.725027,4.051049,-0.046426,-0.032376,-0.022449,31.69,66.0203087617993
10822,-8.309675,-3.731607,4.057629,-0.044593,-0.030543,-0.016952,31.66,65.9895065420587
10832,-8.309675,-3.725027,4.051647,-0.042761,-0.028711,-0.011301,31.66,66.0146181102846
10842,-8.306684,-3.725027,4.064209,-0.040775,-0.025351,-0.00504,31.65,65.9422823024976
10852,-8.298907,-3.723232,4.064807,-0.037415,-0.022602,0.003818,31.65,65.920783909356
10862,-8.313264,-3.719643,4.049852,-0.031765,-0.016646,0.008552,31.65,66.0265571234143
10872,-8.313264,-3.719643,4.061816,-0.028405,-0.012217,0.012217,31.73,65.9637471548341
10882,-8.312666,-3.709473,4.068397,-0.025504,-0.009927,0.016493,31.73,65.9182196318915
10892,-8.318049,-3.710072,4.058227,-0.02306,-0.005803,0.01909,31.7,65.9836702939312
10902,-8.324032,-3.720839,4.070789,-0.019242,-0.00336,0.021228,31.7,65.940839542471
10912,-8.321041,-3.703491,4.060022,-0.016188,-0.001069,0.022907,31.68,65.9743773960238
10922,-8.333005,-3.710072,4.068995,-0.012981,0.001527,0.023213,31.68,65.9591421445992
10932,-8.346166,-3.718446,4.063612,-0.009774,0.003665,0.024282,31.64,66.0233244872375
10942,-8.338987,-3.699902,4.059424,-0.006567,0.005498,0.023824,31.64,66.0124193304299
10952,-8.34796,-3.708277,4.070191,-0.004581,0.007483,0.023976,31.68,65.9830762365498
10962,-8.343175,-3.707679,4.071986,-0.002596,0.00901,0.02306,31.68,65.9629121132057
10972,-8.367702,-3.706482,4.060022,0.000153,0.009316,0.020922,31.66,66.0765700193319
10982,-8.364112,-3.706482,4.061218,0.001527,0.010385,0.020159,31.66,66.0626931627921
10992,-8.364112,-3.703491,4.062415,0.002749,0.010843,0.018937,31.69,66.0536167063772
11002,-8.366504,-3.70409,4.060022,0.004123,0.01069,0.016493,31.69,66.0717794200989
11012,-8.377871,-3.705884,4.058227,0.00504,0.010385,0.014661,31.7,66.1069542422488
11022,-8.362316,-3.701099,4.064807,0.006872,0.010232,0.012523,31.7,66.0350341578356
11032,-8.372486,-3.707679,4.058227,0.008705,0.009163,0.01069,31.68,66.0972279374802
11042,-8.379665,-3.709473,4.066004,0.009163,0.009163,0.010079,31.69,66.0734768621767
11052,-8.371889,-3.698706,4.06062,0.009163,0.007941,0.009316,31.69,66.075027490782
11062,-8.368299,-3.699902,4.05404,0.00901,0.007178,0.007789,31.64,66.1029611416921
11072,-8.376674,-3.695116,4.058227,0.009316,0.006414,0.008399,31.64,66.094334585643
11082,-8.38146,-3.699902,4.060022,0.009316,0.006872,0.009621,31.7,66.0995737626793
11092,-8.362316,-3.708875,4.061218,0.00901,0.006261,0.009774,31.7,66.0611322875322
11102,-8.373683,-3.707081,4.069593,0.008552,0.006567,0.011606,31.69,66.0397909353506
11112,-8.367103,-3.715455,4.063612,0.008094,0.007025,0.011148,31.69,66.0649668904749
11122,-8.362915,-3.718446,4.066004,0.006414,0.006414,0.011301,31.71,66.0463948248145
11132,-8.355139,-3.719643,4.056432,0.005345,0.00672,0.013897,31.71,66.0811031010061
11142,-8.367103,-3.714259,4.063013,0.003818,0.008094,0.015424,31.71,66.0669725214996
11152,-8.355139,-3.714259,4.063612,0.002596,0.007941,0.016952,31.71,66.0384389457746
11162,-8.35454,-3.720839,4.066602,0.000916,0.007789,0.01741,31.7,66.0277445367648
11172,-8.36471,-3.721437,4.058227,-0.000916,0.008399,0.017715,31.7,66.0936910002286
11182,-8.367103,-3.719643,4.065406,-0.003207,0.008399,0.019395,31.68,66.0595347483276
11192,-8.365308,-3.710072,4.070191,-0.005192,0.008858,0.019853,31.68,66.0216910808822
11202,-8.36112,-3.726821,4.055236,-0.00733,0.008247,0.019242,31.68,66.1068128507977
11212,-8.379665,-3.712464,4.064209,-0.013286,0.008247,0.017868,31.67,66.0856604022001
11222,-8.377273,-3.728018,4.067201,-0.016646,0.006567,0.016493,31.67,66.0795907689607
11232,-8.386245,-3.717848,4.071986,-0.019853,0.006567,0.014661,31.7,66.0640444874253
11242,-8.392226,-3.73041,4.063612,-0.022297,0.005192,0.011606,31.7,66.1321615267778
11252,-8.412566,-3.725027,4.064807,-0.025962,0.002902,0.007789,31.68,66.1637587393981
11262,-8.410771,-3.711268,4.072584,-0.028253,0.001833,0.003971,31.68,66.1066325674492
11272,-8.413763,-3.728018,4.070789,-0.031765,-0.000153,0.000153,31.67,66.1379092166274
11282,-8.405987,-3.725027,4.061218,-0.034667,-0.002138,-0.004887,31.67,66.1686151790161
11292,-8.416754,-3.736392,4.054638,-0.036805,-0.003665,-0.009621,31.73,66.236135640092
11302,-8.412566,-3.725625,4.066004,-0.039706,-0.005345,-0.014661,31.73,66.1580795877059
11312,-8.413763,-3.737589,4.062415,-0.042455,-0.007789,-0.019853,31.67,66.1904527793441
11322,-8.417951,-3.722634,4.068397,-0.04383,-0.009927,-0.025962,31.67,66.1541649133198
11332,-8.416155,-3.729812,4.054638,-0.045815,-0.011912,-0.03207,31.7,66.2287552406546
11342,-8.403594,-3.728616,4.062415,-0.047342,-0.01405,-0.036805,31.7,66.1606858280443
11352,-8.39821,-3.729812,4.069593,-0.048258,-0.015272,-0.041692,31.7,66.1130342198991
11362,-8.402995,-3.728018,4.061218,-0.049022,-0.017104,-0.047647,31.7,66.1651073571779
11372,-8.391031,-3.709473,4.068995,-0.049786,-0.018021,-0.05681,31.68,66.0819351934969
11382,-8.394022,-3.711866,4.054638,-0.049633,-0.019395,-0.060781,31.69,66.1654507060087
11392,-8.370691,-3.710072,4.056432,-0.049633,-0.01909,-0.064294,31.69,66.1050594894834
11402,-8.365308,-3.710072,4.070191,-0.048258,-0.019242,-0.066584,31.7,66.0216910808822
11412,-8.344969,-3.71067,4.060022,-0.046731,-0.018173,-0.067501,31.7,66.0322154149833
11422,-8.34796,-3.707679,4.063013,-0.044593,-0.017104,-0.068875,31.68,66.020086990519
11432,-8.349755,-3.711268,4.059424,-0.042302,-0.016341,-0.068417,31.68,66.0460924985021
11442,-8.333005,-3.71067,4.056432,-0.039401,-0.014355,-0.06689,31.71,66.0255587768589
11452,-8.306085,-3.702893,4.055236,-0.036805,-0.01237,-0.064141,31.71,65.9669539971473
11462,-8.318049,-3.70409,4.052245,-0.033139,-0.009774,-0.059559,31.7,66.0093852005135
11472,-8.297112,-3.708875,4.049852,-0.029016,-0.008705,-0.05452,31.7,65.9817727613668
11482,-8.295916,-3.699304,4.040281,-0.025809,-0.005498,-0.0478,31.7,66.020442754647
11492,-8.28455,-3.699304,4.045665,-0.021075,-0.003207,-0.040317,31.7,65.9677404486968
11502,-8.280961,-3.701099,4.041477,-0.015272,-0.000764,-0.032681,31.71,65.983830649651
11512,-8.280362,-3.699304,4.033103,-0.009927,0.001833,-0.022602,31.71,66.0249802760433
11522,-8.287541,-3.712464,4.040281,-0.005803,0.003512,-0.013592,31.68,66.0151098831119
11532,-8.266603,-3.714259,4.03071,-0.000764,0.004734,-0.002596,31.68,66.0224907301236
11542,-8.285748,-3.716054,4.031308,0.003971,0.006109,0.007483,31.7,66.0619937482704
11552,-8.280961,-3.71725,4.025924,0.013134,0.008705,0.030238,31.7,66.0813088444252
11562,-8.292925,-3.727419,4.025924,0.017257,0.010079,0.041539,31.64,66.1165391015989
11572,-8.305488,-3.712464,4.031906,0.020617,0.010079,0.051465,31.69,66.0975103825741
11582,-8.306684,-3.719045,4.031906,0.023518,0.009774,0.06185,31.69,66.1063239290384
11592,-8.318647,-3.720839,4.0337,0.025656,0.009316,0.07025,31.66,66.1240283057144
11602,-8.337193,-3.731607,4.042674,0.027794,0.008094,0.077733,31.66,66.1264721351644
11612,-8.343175,-3.727419,4.039683,0.029016,0.00672,0.082772,31.69,66.1508635500193
11622,-8.356933,-3.728018,4.042674,0.029322,0.005498,0.088423,31.69,66.1648535865649
11632,-8.373683,-3.729214,4.055834,0.028558,0.00336,0.091477,31.66,66.1325101685085
11642,-8.383254,-3.721437,4.058227,0.027947,0.001069,0.093157,31.66,66.1329203193866
11652,-8.403594,-3.736392,4.069593,0.02642,-0.001222,0.09331,31.71,66.1305488906176
11662,-8.405987,-3.739383,4.060022,0.023976,-0.002902,0.091935,31.71,66.188259386082
11672,-8.427522,-3.741776,4.074977,0.020617,-0.003818,0.087965,31.69,66.1578840194558
11682,-8.432905,-3.74716,4.068397,0.017104,-0.006567,0.081856,31.69,66.2083934562066
11692,-8.44427,-3.741776,4.088736,0.013286,-0.007941,0.073457,31.66,66.1216004946067
11702,-8.451449,-3.737589,4.092325,0.008858,-0.00901,0.06521,31.66,66.1141707091697
11712,-8.447861,-3.737589,4.102495,0.003818,-0.010385,0.055283,31.71,66.0539278698592
11722,-8.453244,-3.738187,4.098905,-0.001222,-0.011759,0.031307,31.71,66.0843991662057
11732,-8.452048,-3.736392,4.112664,-0.010996,-0.011301,0.019548,31.68,66.0089743737747
11742,-8.452645,-3.742973,4.113262,-0.016493,-0.01069,0.005956,31.68,66.0132683581023
11752,-8.462217,-3.734,4.110271,-0.022297,-0.009621,-0.007025,31.68,66.0405360623733
11762,-8.446664,-3.727419,4.106084,-0.027794,-0.008094,-0.020159,31.7,66.0233489735965
11772,-8.441879,-3.726821,4.101896,-0.03207,-0.00672,-0.032681,31.7,66.0344104720512
11782,-8.434101,-3.732804,4.106084,-0.035736,-0.004581,-0.044288,31.72,66.0018689346393
11792,-8.421539,-3.71725,4.103691,-0.039706,-0.002138,-0.054214,31.72,65.9731938056033
11802,-8.422137,-3.729812,4.095914,-0.043371,0,-0.063988,31.69,66.0265872646964
11812,-8.395817,-3.732804,4.095914,-0.046578,0.002443,-0.073609,31.69,65.9737218412514
11822,-8.386844,-3.731607,4.091129,-0.048258,0.004887,-0.079871,31.65,65.9784779322327
11832,-8.385648,-3.72383,4.074379,-0.049938,0.006109,-0.085827,31.65,66.0559158398273
11842,-8.365907,-3.711268,4.076771,-0.051924,0.008399,-0.090561,31.67,65.989709161752
11852,-8.356335,-3.707081,4.068397,-0.052229,0.01069,-0.09163,31.67,66.0091680812159
11862,-8.352147,-3.708875,4.063612,-0.051771,0.01237,-0.091324,31.68,66.0269912641146
11872,-8.338987,-3.701099,4.055236,-0.051771,0.013744,-0.090866,31.68,66.035510092709
11882,-8.326425,-3.697509,4.036094,-0.051771,0.014966,-0.088117,31.73,66.1058719260787
11892,-8.309675,-3.696911,4.036094,-0.050549,0.014813,-0.076969,31.73,66.0696061247836
11902,-8.303694,-3.702893,4.034299,-0.045968,0.014508,-0.07025,31.67,66.0719782595724
11912,-8.304291,-3.692126,4.026522,-0.04444,0.013897,-0.062156,31.74,66.10398898446
11922,-8.305488,-3.690331,4.022933,-0.042455,0.012828,-0.053298,31.74,66.1237569989569
11932,-8.297112,-3.688536,4.012764,-0.038943,0.011912,-0.043524,31.65,66.1578416033637
11942,-8.286345,-3.694518,4.006782,-0.034972,0.010079,-0.032376,31.65,66.1721625544952
11952,-8.298907,-3.69392,4.016951,-0.031307,0.008094,-0.022602,31.68,66.1446764511192
11962,-8.303694,-3.686144,4.007978,-0.029016,0.005803,-0.011301,31.68,66.194864869163
11972,-8.300702,-3.692126,4.00738,-0.025504,0.003665,0.000305,31.74,66.197311371055
11982,-8.30489,-3.685545,4.016353,-0.020769,0.001374,0.010843,31.74,66.1526497774831
11992,-8.319246,-3.695715,4.016353,-0.017715,-0.001222,0.022449,31.71,66.1928054291117
12002,-8.305488,-3.685545,4.021737,-0.013897,-0.004429,0.031307,31.71,66.1255299654341
12012,-8.321639,-3.692126,4.018147,-0.011148,-0.006872,0.038026,31.7,66.1850537117715
12022,-8.326425,-3.696911,4.022335,-0.007789,-0.008399,0.045815,31.7,66.177682217072
12032,-8.344969,-3.711268,4.030112,-0.003818,-0.011454,0.052229,31.73,66.1896488785448
12042,-8.3348,-3.695116,4.033103,-0.000764,-0.012828,0.057421,31.73,66.1371497546747
12052,-8.343175,-3.707679,4.04387,0.001833,-0.014203,0.061087,31.67,66.1102504621876
12062,-8.368897,-3.699304,4.044468,0.004276,-0.015577,0.063225,31.67,66.1537908693178
12072,-8.379066,-3.709473,4.056432,0.007941,-0.017868,0.063377,31.7,66.1222315685129
12082,-8.364112,-3.71725,4.066004,0.010385,-0.018021,0.062003,31.69,66.0478069137195
12092,-8.392825,-3.715455,4.061816,0.012065,-0.01741,0.059101,31.69,66.1287948437113
12102,-8.402995,-3.714857,4.068397,0.012675,-0.017562,0.054672,31.71,66.11538217724
12112,-8.389835,-3.724428,4.071388,0.012675,-0.016188,0.049633,31.71,66.0809364667606
12122,-8.396414,-3.720839,4.080361,0.013897,-0.014813,0.043371,31.71,66.0447101690987
12132,-8.403594,-3.725027,4.085146,0.013134,-0.013592,0.036652,31.71,66.0389081763679
12142,-8.401799,-3.725625,4.075575,0.01237,-0.01237,0.029474,31.73,66.0855146043161
12152,-8.399406,-3.720241,4.086343,0.01237,-0.010537,0.022449,31.73,66.019326249003
12162,-8.397013,-3.731009,4.091129,0.010537,-0.008247,0.014508,31.68,65.9994615188916
12172,-8.406584,-3.726223,4.088138,0.00901,-0.006261,0.007178,31.68,66.0307822425801
12182,-8.399406,-3.731607,4.088736,0.008094,-0.003207,0.000764,31.66,66.01754178186
12192,-8.392226,-3.734598,4.09711,0.006109,-0.00168,-0.006567,31.66,65.9615801096738
12202,-8.402397,-3.734598,4.092923,0.003512,0.000153,-0.013897,31.71,66.0048988748767
12212,-8.383254,-3.734598,4.088736,0.001833,0.003207,-0.018021,31.71,65.9861531366328
12222,-8.395219,-3.739383,4.085745,-0.000611,0.004429,-0.022755,31.68,66.0315698440526
12232,-8.391629,-3.739383,4.083352,-0.003818,0.005345,-0.0281,31.68,66.0364396191864
12242,-8.394022,-3.731607,4.073781,-0.006109,0.006567,-0.034361,31.65,66.0840473549641
12252,-8.378469,-3.743571,4.068995,-0.012523,0.00672,-0.036194,31.71,66.0874173751091
12262,-8.379066,-3.744169,4.068995,-0.015272,0.00672,-0.036805,31.71,66.0892426819796
12272,-8.370093,-3.745365,4.066004,-0.018479,0.006414,-0.03711,31.68,66.0870271374644
12282,-8.380263,-3.744768,4.061218,-0.020464,0.005956,-0.036805,31.68,66.1329203601575
12292,-8.376674,-3.739982,4.057031,-0.022907,0.003971,-0.035888,31.66,66.1427066564133
12302,-8.375478,-3.742973,4.057629,-0.025504,0.001985,-0.034819,31.66,66.1398782258594
12312,-8.37129,-3.738786,4.049852,-0.028253,0.001374,-0.032529,31.68,66.167744807153
12322,-8.370093,-3.737589,4.049254,-0.031001,-0.000764,-0.030391,31.68,66.1672197505458
12332,-8.362915,-3.726223,4.050451,-0.033139,-0.003665,-0.028253,31.68,66.1350869701914
12342,-8.363514,-3.728018,4.060022,-0.034819,-0.00504,-0.024435,31.68,66.0879774856515
12352,-8.362915,-3.734598,4.051049,-0.035583,-0.007025,-0.022144,31.68,66.139855302107
12362,-8.356933,-3.711866,4.055834,-0.036346,-0.008094,-0.018479,31.68,66.0807026685675
12372,-8.352147,-3.735196,4.046861,-0.037721,-0.009621,-0.016035,31.68,66.1395808768793
12382,-8.359925,-3.727419,4.051049,-0.039095,-0.011148,-0.01405,31.68,66.1267596375267
12392,-8.36471,-3.722036,4.053442,-0.039401,-0.012523,-0.011301,31.7,66.119288094771
12402,-8.363514,-3.719045,4.057031,-0.039401,-0.01237,-0.008705,31.7,66.0951595408583
12412,-8.355139,-3.719045,4.057629,-0.040164,-0.011759,-0.005498,31.72,66.0742723887154
12422,-8.35813,-3.713063,4.063013,-0.038485,-0.011454,-0.004429,31.69,66.046798669805
12432,-8.346166,-3.711866,4.064807,-0.037263,-0.009774,-0.002443,31.69,66.0108357217285
12442,-8.340781,-3.718446,4.070191,-0.035583,-0.00733,-0.002291,31.7,65.9774214598777
12452,-8.337193,-3.716054,4.073781,-0.033139,-0.005192,-0.002902,31.7,65.9487059363056
12462,-8.338987,-3.703491,4.068995,-0.031612,-0.002443,-0.001985,31.68,65.9656653302529
12472,-8.34138,-3.7005,4.076173,-0.029932,-0.000153,-0.002902,31.68,65.9303565103808
12482,-8.3348,-3.7005,4.070789,-0.027336,0.002138,-0.003971,31.71,65.9444869833893
12492,-8.340781,-3.706482,4.080959,-0.025045,0.004734,-0.004276,31.71,65.9097083179793
12502,-8.341978,-3.7005,4.074379,-0.021991,0.008552,-0.005345,31.69,65.9410252337201
12512,-8.347363,-3.703491,4.063013,-0.018173,0.011759,-0.005651,31.69,66.0148571070481
12522,-8.346764,-3.711866,4.06062,-0.015272,0.013744,-0.007178,31.71,66.0340336344499
12532,-8.338987,-3.696313,4.064807,-0.012675,0.016493,-0.007941,31.71,65.9808080658761
12542,-8.343773,-3.696313,4.067201,-0.010079,0.018631,-0.008705,31.68,65.9784819120722
12552,-8.340781,-3.706482,4.046263,-0.00672,0.021075,-0.008552,31.68,66.0914799035645
12562,-8.348558,-3.710072,4.049254,-0.003054,0.021686,-0.007483,31.68,66.0957041092415
12572,-8.35155,-3.698107,4.031308,-0.000305,0.02306,-0.007025,31.68,66.1849376714177
12582,-8.352147,-3.699304,4.037888,0.002749,0.023213,-0.005651,31.71,66.1527907868404
12592,-8.350951,-3.707081,4.03729,0.007941,0.021686,-0.002902,31.69,66.1607030370719
12602,-8.347363,-3.711268,4.04387,0.009927,0.020006,-0.000916,31.69,66.1225249236143
12612,-8.355139,-3.701099,4.036094,0.012217,0.017868,0.001069,31.7,66.1702308634823
12622,-8.364112,-3.696911,4.03071,0.014508,0.016188,0.003512,31.7,66.2135488054878
12632,-8.35155,-3.698706,4.029513,0.014966,0.013897,0.006109,31.66,66.1949243989367
12642,-8.36112,-3.7005,4.028915,0.016341,0.009774,0.009316,31.66,66.2199965749453
12652,-8.356933,-3.708875,4.021737,0.01741,0.006414,0.01237,31.7,66.2566705427352
12662,-8.361719,-3.699902,4.027719,0.017562,0.003054,0.016646,31.7,66.2269797130376
12672,-8.371889,-3.721437,4.028317,0.018021,-0.000611,0.020159,31.68,66.2654497934064
12682,-8.376076,-3.714259,4.031906,0.016646,-0.004429,0.022907,31.68,66.2487512220427
12692,-8.380263,-3.716054,4.035496,0.016646,-0.007789,0.024893,31.71,66.240449541282
12702,-8.366504,-3.714259,4.040879,0.016035,-0.011301,0.027489,31.71,66.1815444162098
12712,-8.370093,-3.701099,4.049254,0.014966,-0.014813,0.029322,31.68,66.1329409939611
12722,-8.373683,-3.724428,4.051049,0.012217,-0.017104,0.030849,31.68,66.153029053445
12732,-8.38445,-3.716054,4.057629,0.010537,-0.019395,0.03207,31.66,66.1335265005993
12742,-8.374879,-3.72383,4.064209,0.009316,-0.020769,0.032987,31.66,66.0862080720601
12752,-8.382057,-3.728018,4.063612,0.005956,-0.022144,0.03207,31.71,66.1084459340425
12762,-8.393424,-3.728616,4.071388,0.001222,-0.022602,0.028863,31.71,66.0924514931516
12772,-8.386245,-3.732205,4.077968,-0.00168,-0.021991,0.027336,31.68,66.0463439827883
12782,-8.387442,-3.724428,4.085146,-0.005192,-0.021228,0.024587,31.68,66.0041461371589
12792,-8.386245,-3.717848,4.080361,-0.007789,-0.019395,0.021533,31.68,66.020360590123
12802,-8.389236,-3.725027,4.098307,-0.01069,-0.017562,0.017104,31.67,65.9399794163944
12812,-8.388638,-3.724428,4.096512,-0.013897,-0.015424,0.012675,31.67,65.9474877088625
12822,-8.389236,-3.728018,4.098307,-0.016493,-0.011606,0.008705,31.67,65.9428005974039
12832,-8.391031,-3.728018,4.101896,-0.0197,-0.008858,0.002749,31.67,65.9279385775406
12842,-8.395219,-3.731607,4.1007,-0.022755,-0.006261,-0.001527,31.68,65.9464328702086
12852,-8.400601,-3.723232,4.109673,-0.025198,-0.002749,-0.007025,31.68,65.9033231341375
12862,-8.396414,-3.732205,4.089932,-0.027794,0.000458,-0.013897,31.68,66.0055480534691
12872,-8.387442,-3.72383,4.099504,-0.030543,0.003971,-0.020464,31.68,65.9288091823552
12882,-8.395817,-3.735795,4.101298,-0.032834,0.006414,-0.027031,31.7,65.9485410860296
12892,-8.390432,-3.74058,4.095316,-0.034972,0.009163,-0.032987,31.7,65.9727585108569
12902,-8.386245,-3.727419,4.085745,-0.036652,0.010996,-0.038179,31.72,66.0013043199075
12912,-8.394022,-3.731607,4.080361,-0.038485,0.012828,-0.043677,31.72,66.0497604438465
12922,-8.392226,-3.720839,4.081557,-0.041233,0.013897,-0.049327,31.69,66.0296112055113
12932,-8.38146,-3.724428,4.074977,-0.042608,0.014966,-0.057574,31.69,66.0444904591364
12942,-8.388638,-3.718446,4.064209,-0.04444,0.014508,-0.062461,31.68,66.1102554654867
12952,-8.38804,-3.71725,4.061218,-0.044288,0.013744,-0.065515,31.69,66.1234870913138
12962,-8.396414,-3.724428,4.059424,-0.044746,0.012217,-0.067042,31.69,66.1572441037666
12972,-8.379665,-3.725027,4.050451,-0.044899,0.010843,-0.06857,31.66,66.1693474393063
12982,-8.373683,-3.718446,4.045665,-0.044135,0.008858,-0.069333,31.66,66.1755807259225
12992,-8.365308,-3.716652,4.042076,-0.043982,0.006109,-0.07025,31.69,66.1749927777759
13002,-8.35454,-3.716652,4.033103,-0.042455,0.003054,-0.068111,31.69,66.1992653210156
13012,-8.353942,-3.716054,4.031906,-0.039859,0,-0.066126,31.67,66.2037182834949
13022,-8.349156,-3.714857,4.031906,-0.037415,-0.003054,-0.061697,31.67,66.1924712119588
13032,-8.339585,-3.702295,4.027121,-0.035125,-0.00504,-0.057269,31.71,66.18550790508
13042,-8.328219,-3.699304,4.032505,-0.032376,-0.00733,-0.052076,31.71,66.1302537605664
13052,-8.319246,-3.717848,4.018745,-0.029932,-0.010232,-0.047189,31.71,66.2011343105398
13062,-8.308478,-3.722036,4.023531,-0.025809,-0.011454,-0.039248,31.71,66.1570692800073
13072,-8.30788,-3.709473,4.021737,-0.021838,-0.012675,-0.032529,31.65,66.1533075766985
13082,-8.300103,-3.70409,4.022335,-0.017104,-0.015272,-0.024129,31.65,66.1284904091555
13092,-8.297711,-3.708277,4.023531,-0.013134,-0.015882,-0.015272,31.66,66.121073654836
13102,-8.28455,-3.716652,4.031906,-0.008094,-0.015577,0.004429,31.66,66.056856597902
13112,-8.279166,-3.709473,4.031308,0.001833,-0.014203,0.01405,31.68,66.0416251111536
13122,-8.291729,-3.716652,4.03729,0.006567,-0.012675,0.024282,31.66,66.0438204483816
13132,-8.28156,-3.71725,4.036692,0.011148,-0.011912,0.033139,31.66,66.0258178541197
13142,-8.286345,-3.711268,4.040879,0.014813,-0.00901,0.042761,31.69,66.0082561608146
13152,-8.295916,-3.719643,4.040281,0.018937,-0.006261,0.052229,31.69,66.039874322281
13162,-8.292925,-3.718446,4.063612,0.022755,-0.003207,0.059101,31.68,65.9096475467983
13172,-8.306684,-3.719045,4.053442,0.025962,-0.000458,0.067042,31.68,65.993088317261
13182,-8.31446,-3.722036,4.062415,0.028405,0.002443,0.073762,31.69,65.9654460795118
13192,-8.322237,-3.725027,4.057629,0.030391,0.005192,0.077427,31.69,66.0099957723833
13202,-8.331809,-3.725625,4.074379,0.031612,0.008858,0.082467,31.7,65.94320510701
13212,-8.345568,-3.721437,4.07737,0.031612,0.01237,0.085979,31.7,65.9529054174476
13222,-8.346764,-3.719045,4.074379,0.031918,0.015272,0.087201,31.69,65.968824042222
13232,-8.368299,-3.734598,4.070789,0.03207,0.017715,0.085979,31.69,66.0480646223138
13242,-8.376674,-3.725027,4.076771,0.030085,0.020311,0.08323,31.66,66.0255518266062
13252,-8.393424,-3.728018,4.079165,0.027336,0.022449,0.080787,31.66,66.0513543873079
13262,-8.396414,-3.729214,4.092923,0.025045,0.024282,0.075747,31.7,65.9871683396114
13272,-8.432307,-3.732804,4.085146,0.020617,0.025504,0.070097,31.7,66.106740952458
13282,-8.449057,-3.722036,4.086941,0.013592,0.026114,0.053603,31.68,66.1226476549875
13292,-8.456833,-3.73041,4.08754,0.007789,0.025198,0.04444,31.68,66.1436218070176
13302,-8.472386,-3.728018,4.082156,0.002902,0.023824,0.033139,31.68,66.2019025433985
13312,-8.463414,-3.73041,4.070789,-0.002443,0.022602,0.022602,31.66,66.2442920387097
13322,-8.47119,-3.725625,4.070789,-0.007636,0.020159,0.011454,31.66,66.2561374620646
13332,-8.480762,-3.728616,4.079762,-0.012217,0.017562,-0.000305,31.7,66.232361772178
13342,-8.468199,-3.731009,4.080361,-0.018173,0.014813,-0.013134,31.7,66.2052024032619
13352,-8.481958,-3.729214,4.074379,-0.02306,0.011606,-0.023824,31.71,66.2632954426312
13362,-8.472985,-3.732205,4.063013,-0.0281,0.008399,-0.035125,31.71,66.3062692787271
13372,-8.455637,-3.712464,4.06062,-0.031918,0.005345,-0.046731,31.66,66.2643335460956
13382,-8.446664,-3.719643,4.061218,-0.036194,0.00168,-0.057879,31.66,66.2490453285337
13392,-8.435897,-3.722036,4.04746,-0.039401,-0.001374,-0.06689,31.67,66.3003304350298
13402,-8.434101,-3.722634,4.064807,-0.04215,-0.003971,-0.075289,31.67,66.206799225611
13412,-8.428718,-3.706482,4.046263,-0.045051,-0.007178,-0.082467,31.65,66.2771739700709
13422,-8.417951,-3.708875,4.05404,-0.047495,-0.010079,-0.089034,31.65,66.2162068879691
13432,-8.396414,-3.718446,4.046861,-0.048869,-0.011912,-0.093157,31.68,66.2172571403533
13442,-8.387442,-3.706482,4.04746,-0.04948,-0.013897,-0.095295,31.68,66.1840525888811
13452,-8.363514,-3.702893,4.044468,-0.049633,-0.01741,-0.097433,31.68,66.1457518866724
13462,-8.346764,-3.710072,4.04387,-0.048717,-0.018173,-0.095295,31.69,66.1201261536493
13472,-8.3348,-3.712464,4.040879,-0.047495,-0.018784,-0.090866,31.69,66.1126827546303
13482,-8.327023,-3.701099,4.044468,-0.04612,-0.018937,-0.086132,31.65,66.0665362665281
13492,-8.304291,-3.70409,4.040879,-0.043677,-0.018937,-0.080787,31.65,66.0397579905621
13502,-8.298907,-3.705286,4.036692,-0.040164,-0.018173,-0.07254,31.69,66.0514392009534
13512,-8.292327,-3.709473,4.031906,-0.037415,-0.016799,-0.063835,31.69,66.0665946907738
13522,-8.283952,-3.712464,4.027719,-0.034208,-0.016035,-0.054214,31.68,66.0736444579897
13532,-8.263614,-3.652046,4.101896,-0.030238,-0.014355,-0.044135,31.68,65.581065267883
13542,-8.307282,-3.433701,4.335794,-0.052382,-0.011301,-0.034514,31.65,64.249799232138
13552,-8.257631,-3.731009,4.004389,-0.080481,-0.006261,-0.024587,31.65,66.1585283396849
13562,-8.283354,-3.711866,4.016951,-0.072846,-0.006567,-0.011454,31.66,66.1286086274364
13572,-8.263015,-3.731607,3.998407,-0.066126,-0.007789,0.000916,31.66,66.2022087495752
13582,-8.272586,-3.721437,4.006782,-0.058032,-0.008705,0.014813,31.64,66.1685341357353
13592,-8.297112,-3.703491,4.012764,-0.050855,-0.009621,0.027336,31.64,66.1720306701866
13602,-8.265409,-3.739982,3.997808,-0.044899,-0.01069,0.03711,31.72,66.2185082854897
13612,-8.3013,-3.722036,4.006183,-0.037415,-0.011301,0.048564,31.72,66.233265331017
13622,-8.318049,-3.725027,4.01396,-0.032376,-0.012523,0.062766,31.65,66.2305922461366
13632,-8.335398,-3.737589,4.021737,-0.02306,-0.013897,0.068111,31.7,66.2382523481845
13642,-8.332406,-3.738187,4.025924,-0.0197,-0.014508,0.070555,31.7,66.2105046560314
13652,-8.359925,-3.744169,4.033103,-0.015882,-0.015577,0.073762,31.7,66.2365369778029
13662,-8.366504,-3.742973,4.038486,-0.013134,-0.016035,0.074984,31.7,66.2210699703928
13672,-8.38804,-3.742374,4.048058,-0.011454,-0.016952,0.072693,31.68,66.2157631381613
13682,-8.393424,-3.747759,4.053442,-0.009621,-0.017715,0.070402,31.68,66.2040213513793
13692,-8.393424,-3.748955,4.057031,-0.008247,-0.018021,0.065821,31.71,66.1864180888093
13702,-8.410173,-3.75733,4.061218,-0.008705,-0.018326,0.060781,31.71,66.207608812929
13712,-8.409575,-3.747759,4.065406,-0.008858,-0.019548,0.055436,31.7,66.1755822523213
13722,-8.422735,-3.753142,4.068995,-0.009468,-0.018937,0.048869,31.7,66.1895517304819
13732,-8.421539,-3.747759,4.073781,-0.010232,-0.019548,0.042913,31.7,66.157124070199
13742,-8.41436,-3.753142,4.078567,-0.011301,-0.018937,0.035736,31.7,66.1221933639189
13752,-8.407183,-3.75733,4.07737,-0.01237,-0.018021,0.029322,31.67,66.1172603667787
13762,-8.407781,-3.764508,4.073781,-0.013592,-0.016035,0.022755,31.67,66.1439347864987
13772,-8.407183,-3.754937,4.07737,-0.014508,-0.015424,0.017257,31.68,66.1150117408443
13782,-8.41436,-3.759125,4.08395,-0.016493,-0.013897,0.010537,31.68,66.0998265439865
13792,-8.38804,-3.748357,4.077968,-0.018326,-0.011759,0.005498,31.76,66.0653618790719
13802,-8.392825,-3.754339,4.071986,-0.020922,-0.006261,-0.002443,31.76,66.1122573607757
13812,-8.379665,-3.759125,4.071388,-0.021838,-0.003818,-0.004123,31.68,66.0921573744191
13822,-8.371889,-3.751946,4.060022,-0.023366,-0.001527,-0.006567,31.7,66.128279342104
13832,-8.37129,-3.738786,4.069593,-0.02474,0.001527,-0.007483,31.7,66.064600109655
13842,-8.363514,-3.741179,4.066004,-0.02642,0.004123,-0.007789,31.68,66.0691521141887
13852,-8.355738,-3.736392,4.053442,-0.027184,0.005498,-0.007636,31.68,66.1138533263157
13862,-8.355738,-3.734,4.062415,-0.027794,0.007178,-0.00504,31.65,66.0646453459554
13872,-8.344969,-3.731009,4.066004,-0.029322,0.008705,-0.004123,31.65,66.0201797337347
13882,-8.359326,-3.728616,4.054638,-0.029627,0.010385,-0.001527,31.64,66.1078383612688
13892,-8.346764,-3.736392,4.052843,-0.030543,0.011301,0.001374,31.64,66.0979912117487
13902,-8.352745,-3.733402,4.042076,-0.031307,0.011606,0.004276,31.69,66.1642164150058
13912,-8.35155,-3.734,4.040281,-0.032223,0.012217,0.007789,31.69,66.171662316875
13922,-8.349755,-3.720241,4.03729,-0.033445,0.012065,0.011148,31.71,66.1705631622517
13932,-8.353344,-3.712464,4.04746,-0.034972,0.010537,0.014203,31.71,66.1175168880314
13942,-8.356335,-3.718446,4.036094,-0.035125,0.009163,0.016646,31.71,66.1890610502197
