t_ms,ax,ay,az,gx,gy,gz,temp,ang_deg
12,-8.109874,-3.788436,4.462016,0.359952,0.137597,-0.080023,32.16,63.5043114289717
22,-8.103294,-3.786642,4.468596,0.363312,0.153785,-0.077427,32.16,63.4533836851266
32,-8.119445,-3.769892,4.475177,0.364228,0.168904,-0.076053,32.16,63.4390441141365
42,-8.126026,-3.754339,4.484748,0.364839,0.184176,-0.076969,32.16,63.388607348604
52,-8.161918,-3.747759,4.489533,0.36377,0.211359,-0.080787,32.16,63.4404869031016
62,-8.182258,-3.74058,4.485346,0.357203,0.224646,-0.083536,32.19,63.5013354722205
72,-8.190034,-3.734,4.474578,0.351858,0.237321,-0.087659,32.19,63.5673048294921
82,-8.204391,-3.722634,4.463212,0.345444,0.247706,-0.091019,32.16,63.6465184733312
92,-8.220542,-3.711866,4.466802,0.338877,0.257327,-0.097586,32.16,63.6541670765391
102,-8.221141,-3.710072,4.451249,0.330325,0.265726,-0.103084,32.19,63.7330762232556
112,-8.2349,-3.701099,4.429115,0.322995,0.273057,-0.108276,32.19,63.868505368626
122,-8.24148,-3.690929,4.421339,0.314748,0.278096,-0.111941,32.22,63.9129071557674
132,-8.25165,-3.690331,4.398606,0.307112,0.280998,-0.117744,32.22,64.05192919468
142,-8.261221,-3.68734,4.372285,0.299171,0.281914,-0.122173,32.22,64.205646555429
152,-8.268398,-3.669394,4.363312,0.291841,0.280998,-0.124769,32.22,64.2498983152126
162,-8.276773,-3.66401,4.332206,0.284358,0.277333,-0.129045,32.17,64.4234482881033
172,-8.287541,-3.665206,4.320839,0.27718,0.27153,-0.13271,32.17,64.5074192601056
182,-8.292327,-3.661617,4.312464,0.270919,0.26481,-0.137292,32.16,64.5577576264863
192,-8.30788,-3.659822,4.285545,0.264199,0.255189,-0.140804,32.16,64.7296089556544
202,-8.321041,-3.655635,4.271188,0.258549,0.244804,-0.14447,32.14,64.8289186299984
212,-8.321041,-3.646064,4.250251,0.253051,0.231823,-0.150273,32.14,64.9278213234201
222,-8.353344,-3.633501,4.231109,0.248317,0.218232,-0.161116,32.16,65.0861403969708
232,-8.352745,-3.637689,4.233501,0.240681,0.185398,-0.167224,32.14,65.0764635604539
242,-8.353942,-3.643671,4.224528,0.238237,0.168599,-0.17318,32.14,65.1312582186333
252,-8.363514,-3.637689,4.214957,0.235489,0.149967,-0.180511,32.16,65.196094392921
262,-8.359925,-3.632903,4.217948,0.235336,0.13042,-0.188605,32.16,65.168162468243
272,-8.344969,-3.631706,4.205984,0.234267,0.111788,-0.197157,32.12,65.1961512069471
282,-8.34138,-3.641278,4.207779,0.236405,0.093462,-0.20296,32.12,65.1881219456448
292,-8.328817,-3.639483,4.208975,0.237627,0.075289,-0.208916,32.15,65.1525522408158
302,-8.319845,-3.641876,4.213162,0.239459,0.057116,-0.214719,32.15,65.1133467742523
312,-8.294122,-3.637091,4.211368,0.243124,0.040775,-0.219453,32.21,65.0611688515814
322,-8.275578,-3.643072,4.213761,0.246331,0.026114,-0.221591,32.21,65.0134165096035
332,-8.254042,-3.643072,4.22094,0.251524,0.012523,-0.223271,32.18,64.9281054218875
342,-8.224131,-3.644867,4.23051,0.257327,0.001222,-0.221439,32.18,64.8131050699204
352,-8.199007,-3.659224,4.252644,0.262672,-0.007941,-0.21869,32.17,64.6555662904681
362,-8.17807,-3.661019,4.261617,0.269392,-0.015424,-0.213345,32.17,64.5632995076184
372,-8.134401,-3.672385,4.272385,0.275042,-0.019548,-0.206625,32.16,64.4195242053695
382,-8.126026,-3.672385,4.28076,0.280998,-0.022144,-0.198531,32.16,64.3566791386603
392,-8.087741,-3.674777,4.309474,0.287412,-0.022449,-0.188452,32.17,64.1213691479065
402,-8.076973,-3.68375,4.333402,0.299477,-0.01573,-0.166461,32.17,63.9811048747824
412,-8.076973,-3.691527,4.34058,0.303905,-0.009621,-0.155618,32.16,63.9519276460406
422,-8.076375,-3.699902,4.354938,0.308487,-0.003054,-0.144622,32.17,63.8847022978938
432,-8.089535,-3.697509,4.380062,0.311999,0.007789,-0.133169,32.17,63.782241101575
442,-8.094321,-3.7005,4.400999,0.314443,0.017562,-0.124617,32.14,63.6881172688359
452,-8.106285,-3.702295,4.417151,0.31597,0.028253,-0.11805,32.14,63.6344038887596
462,-8.122437,-3.711866,4.445267,0.316581,0.040623,-0.112705,32.15,63.5373331952566
472,-8.140383,-3.719643,4.456632,0.315359,0.052229,-0.110261,32.15,63.5289647242973
482,-8.166704,-3.728018,4.482355,0.31093,0.064599,-0.109956,32.15,63.4672776736869
492,-8.179864,-3.725027,4.506881,0.306807,0.076358,-0.113621,32.15,63.3695603977028
502,-8.209177,-3.734,4.517649,0.300393,0.089186,-0.118966,32.18,63.3922768272192
512,-8.246863,-3.738187,4.541577,0.291994,0.102778,-0.128129,32.18,63.3625821097844
522,-8.252846,-3.74058,4.545166,0.282525,0.115606,-0.139583,32.19,63.3607623149829
532,-8.286943,-3.735196,4.552345,0.270766,0.128129,-0.151189,32.19,63.3975087943453
542,-8.289934,-3.753142,4.563711,0.258701,0.141568,-0.166766,32.2,63.3658008053531
552,-8.305488,-3.764508,4.570889,0.245873,0.155007,-0.183107,32.2,63.3772462857638
562,-8.308478,-3.765106,4.569095,0.23274,0.16753,-0.200669,32.14,63.3937282390327
572,-8.305488,-3.777071,4.561318,0.220064,0.192423,-0.234878,32.14,63.4383779057136
582,-8.302496,-3.790829,4.54756,0.195477,0.203571,-0.251524,32.18,63.5150150401808
592,-8.294122,-3.781856,4.521238,0.184939,0.21533,-0.264963,32.13,63.6191912896188
602,-8.259426,-3.800999,4.499703,0.175318,0.225409,-0.276569,32.13,63.6689985146674
612,-8.24148,-3.800999,4.476971,0.168599,0.23503,-0.286343,32.16,63.7434143522121
622,-8.216953,-3.81057,4.453043,0.164323,0.242972,-0.293368,32.16,63.8194159145049
632,-8.2014,-3.822534,4.42074,0.162337,0.249997,-0.295659,32.17,63.9616046347438
642,-8.163713,-3.829114,4.386642,0.161727,0.256411,-0.293979,32.17,64.0580207286996
652,-8.133204,-3.821936,4.348357,0.164017,0.261145,-0.28955,32.15,64.1786105566558
662,-8.111669,-3.82732,4.309474,0.169973,0.26313,-0.280234,32.15,64.3370308744177
672,-8.098508,-3.836293,4.281956,0.178373,0.264352,-0.268017,32.13,64.4599773163936
682,-8.065009,-3.844668,4.26401,0.186925,0.26313,-0.252135,32.13,64.487163355817
692,-8.047661,-3.836891,4.229912,0.1996,0.260381,-0.231976,32.14,64.6183067018275
702,-8.044072,-3.849453,4.193422,0.214108,0.255647,-0.211054,32.14,64.8154108155618
712,-8.041678,-3.844069,4.169494,0.228616,0.24908,-0.187383,32.17,64.930383353366
722,-8.039885,-3.842873,4.162913,0.244652,0.241139,-0.163559,32.17,64.9598425793352
732,-8.059625,-3.835695,4.131208,0.261756,0.230296,-0.138361,32.14,65.1634901132281
742,-8.098508,-3.819543,4.129414,0.278249,0.219453,-0.088423,32.14,65.2418345203851
752,-8.12124,-3.809972,4.140181,0.308945,0.194866,-0.065515,32.15,65.2251967401673
762,-8.134999,-3.795615,4.148556,0.322995,0.180511,-0.045051,32.16,65.1966258469428
772,-8.167302,-3.805186,4.161119,0.33506,0.166155,-0.026878,32.16,65.2114886128391
782,-8.200802,-3.784249,4.170092,0.345139,0.151036,-0.010537,32.16,65.2166926778858
792,-8.224131,-3.775874,4.189234,0.352775,0.134543,-0.000153,32.16,65.1594462896631
802,-8.267202,-3.76391,4.210171,0.357967,0.118813,0.008552,32.14,65.1329262314205
812,-8.285149,-3.745964,4.226922,0.361938,0.104,0.012981,32.14,65.0675384210569
822,-8.317451,-3.737589,4.253242,0.36209,0.089186,0.012523,32.16,64.9940589376946
832,-8.338987,-3.724428,4.266403,0.3598,0.075136,0.010843,32.16,64.9605581090953
842,-8.35813,-3.721437,4.292724,0.356287,0.062003,0.004887,32.13,64.864387611402
852,-8.374879,-3.711866,4.30409,0.350179,0.050855,-0.004429,32.13,64.8336011157105
862,-8.386245,-3.690929,4.326224,0.34239,0.040164,-0.016035,32.12,64.7249827031042
872,-8.383853,-3.685545,4.356732,0.333532,0.030543,-0.030543,32.12,64.5586155642685
882,-8.38146,-3.680759,4.362116,0.322384,0.022602,-0.047647,32.19,64.5211533312161
892,-8.38804,-3.67059,4.372883,0.312152,0.016799,-0.064294,32.19,64.470988843158
902,-8.373085,-3.667599,4.38425,0.300698,0.011454,-0.082009,32.18,64.3767313036131
912,-8.331809,-3.656233,4.396214,0.28955,0.007789,-0.099724,32.18,64.2116852210137
922,-8.316854,-3.652046,4.392624,0.268781,0.005498,-0.132405,32.16,64.1920535049702
942,-8.242078,-3.645465,4.393821,0.251982,0.008399,-0.157603,32.16,64.0090584853798
952,-8.220542,-3.648456,4.400401,0.246026,0.011759,-0.166919,32.18,63.9288750545725
962,-8.184052,-3.646662,4.397409,0.240375,0.015882,-0.172875,32.18,63.8583447130227
972,-8.163713,-3.645465,4.395017,0.237627,0.021228,-0.177151,32.16,63.8223917792531
982,-8.142178,-3.637689,4.391428,0.236405,0.027489,-0.178067,32.16,63.7828948797488
992,-8.112864,-3.652046,4.389035,0.23671,0.035736,-0.176235,32.18,63.7420388635884
1002,-8.086544,-3.635296,4.389633,0.237016,0.043677,-0.172875,32.18,63.6598256932612
1012,-8.081161,-3.646064,4.400999,0.238696,0.052076,-0.167377,32.16,63.5996130298803
1022,-8.085348,-3.636492,4.396811,0.241292,0.062766,-0.160505,32.16,63.6210388689189
1032,-8.076973,-3.644269,4.404588,0.243888,0.074067,-0.153022,32.16,63.5692707248683
1042,-8.077571,-3.641278,4.422534,0.2474,0.085368,-0.145539,32.16,63.4745285206216
1052,-8.093722,-3.641876,4.422534,0.249691,0.097891,-0.13775,32.15,63.5131626688933
1062,-8.102098,-3.632305,4.42732,0.251524,0.11133,-0.131031,32.15,63.4980046532856
1072,-8.112267,-3.638885,4.438686,0.253204,0.124464,-0.126602,32.16,63.4701578183938
1082,-8.1679,-3.638287,4.451249,0.254273,0.137139,-0.123089,32.16,63.5351894743928
1092,-8.196015,-3.642474,4.455436,0.254578,0.160658,-0.123242,32.18,63.5835778068564
1102,-8.22473,-3.648456,4.468596,0.249691,0.171348,-0.126602,32.14,63.589109930343
1112,-8.246264,-3.638287,4.455436,0.246942,0.180511,-0.132252,32.14,63.6957656061931
1122,-8.267202,-3.646064,4.465007,0.242666,0.188605,-0.140346,32.18,63.7031566659109
1132,-8.286345,-3.644269,4.472186,0.237627,0.194408,-0.152105,32.18,63.7088587570247
1142,-8.313264,-3.668795,4.459623,0.231365,0.199447,-0.163865,32.18,63.859168347256
1152,-8.321041,-3.668197,4.461418,0.225257,0.203265,-0.177151,32.18,63.8671850777633
1162,-8.333005,-3.676572,4.446463,0.218232,0.206167,-0.193186,32.2,63.9787544268566
1172,-8.33121,-3.684349,4.439284,0.21197,0.20632,-0.207541,32.2,64.0189516950676
1182,-8.336594,-3.68734,4.429713,0.204945,0.206014,-0.222508,32.19,64.0827815206069
1192,-8.323434,-3.693322,4.407579,0.197462,0.204334,-0.237321,32.19,64.1717440017894
1202,-8.326425,-3.706482,4.395017,0.192423,0.20296,-0.250302,32.17,64.255698705077
1212,-8.309077,-3.720241,4.371687,0.188452,0.200669,-0.261145,32.17,64.3497055043227
1222,-8.295916,-3.729812,4.364508,0.184023,0.197157,-0.270461,32.18,64.3665703769964
1232,-8.27139,-3.735196,4.351946,0.180663,0.192728,-0.278555,32.18,64.381421676811
1242,-8.248059,-3.746562,4.319643,0.180969,0.188757,-0.281762,32.16,64.506820758321
1252,-8.225926,-3.766901,4.296911,0.18158,0.185245,-0.281456,32.16,64.5953967485607
1262,-8.172088,-3.796811,4.27717,0.182954,0.180358,-0.274278,32.2,64.6082252851464
1272,-8.158329,-3.798606,4.26401,0.190895,0.171348,-0.264963,32.15,64.6477156950779
1282,-8.129615,-3.808775,4.254438,0.19563,0.166461,-0.254273,32.15,64.6439843983625
1292,-8.103892,-3.813561,4.23051,0.202196,0.161574,-0.241292,32.16,64.7164213439636
1302,-8.113463,-3.820141,4.225725,0.209374,0.155771,-0.226478,32.16,64.7697203194602
1312,-8.089535,-3.82732,4.206582,0.217468,0.149509,-0.209527,32.17,64.824180419003
1322,-8.100902,-3.826722,4.213761,0.225715,0.143095,-0.190743,32.17,64.811251185573
1332,-8.093722,-3.835097,4.200002,0.233503,0.135918,-0.17318,32.19,64.8761954147431
1342,-8.094321,-3.844668,4.195815,0.242819,0.12874,-0.155007,32.19,64.9095630504657
1352,-8.113463,-3.82732,4.201797,0.250302,0.120799,-0.136987,32.2,64.9024592900793
1362,-8.125427,-3.832105,4.201199,0.257785,0.111941,-0.120951,32.2,64.9371058099995
1372,-8.142776,-3.838088,4.211368,0.263436,0.103084,-0.105222,32.15,64.928554916661
1382,-8.157133,-3.836891,4.214957,0.26985,0.094531,-0.091783,32.15,64.9402844034347
1392,-8.176873,-3.827918,4.235895,0.27382,0.084605,-0.081856,32.18,64.8655256207585
1402,-8.198408,-3.826123,4.248456,0.27718,0.074984,-0.071624,32.18,64.8459889987672
1412,-8.224131,-3.827918,4.254438,0.279624,0.064294,-0.065363,32.18,64.8735389754018
1422,-8.236095,-3.814758,4.286144,0.28054,0.055283,-0.062614,32.18,64.7225539239711
1432,-8.264212,-3.806383,4.310072,0.280387,0.045968,-0.061239,32.12,64.6529145699555
1442,-8.290532,-3.795615,4.314857,0.275958,0.029016,-0.063377,32.13,64.6755860938611
1452,-8.297711,-3.790829,4.326224,0.273209,0.022449,-0.067501,32.13,64.6282948821802
1462,-8.291729,-3.772883,4.359125,0.268933,0.016493,-0.072998,32.14,64.4283068419043
1472,-8.298907,-3.761517,4.369295,0.265115,0.012675,-0.079565,32.14,64.3807841877727
1482,-8.288139,-3.768098,4.38425,0.261298,0.010079,-0.085979,32.14,64.2869567555668
1492,-8.280362,-3.754937,4.399205,0.258091,0.008247,-0.092699,32.14,64.1797028604222
1502,-8.274381,-3.745964,4.408178,0.254425,0.009468,-0.099418,32.15,64.1112446272683
1512,-8.259426,-3.743571,4.417749,0.251066,0.011912,-0.105527,32.15,64.0261020770635
1522,-8.248059,-3.738786,4.429115,0.249997,0.016035,-0.109345,32.17,63.9373397353636
1532,-8.234302,-3.733402,4.427918,0.249233,0.021228,-0.114995,32.17,63.9065704936142
1542,-8.213365,-3.728018,4.433302,0.248928,0.029169,-0.116064,32.19,63.825619875683
1552,-8.189436,-3.731009,4.43749,0.249386,0.037568,-0.117592,32.19,63.7524101578494
1562,-8.164909,-3.726821,4.438686,0.251676,0.0478,-0.117133,32.17,63.6853998583813
1572,-8.135597,-3.710072,4.448257,0.254578,0.060018,-0.115606,32.17,63.5506774948403
1582,-8.12782,-3.703491,4.446463,0.258243,0.073304,-0.112857,32.16,63.5348194633964
1592,-8.084151,-3.706482,4.445267,0.261908,0.087201,-0.109498,32.16,63.4421818233836
1602,-8.080563,-3.696911,4.445865,0.265268,0.101862,-0.104916,32.16,63.4204122382787
1612,-8.088937,-3.704688,4.448855,0.272446,0.13271,-0.094531,32.16,63.4329760110303
1622,-8.076973,-3.692126,4.456034,0.2755,0.149051,-0.089339,32.19,63.3544124321361
1632,-8.083553,-3.694518,4.457829,0.276875,0.165544,-0.084452,32.19,63.3632026147899
1642,-8.094919,-3.690331,4.451847,0.278249,0.180969,-0.080787,32.19,63.4162084559469
1652,-8.099107,-3.676572,4.441677,0.277638,0.19563,-0.078038,32.18,63.4637604959256
1662,-8.124231,-3.668197,4.446463,0.276417,0.209985,-0.075442,32.18,63.4890706441271
1672,-8.136195,-3.676572,4.43749,0.274584,0.222966,-0.074678,32.16,63.5720252682049
1682,-8.169695,-3.662215,4.445267,0.270461,0.23442,-0.076053,32.16,63.5950078001127
1692,-8.185846,-3.669992,4.434498,0.265879,0.244193,-0.079107,32.16,63.6958594919984
1702,-8.21157,-3.664608,4.424329,0.259465,0.251829,-0.084452,32.16,63.8018993467047
1712,-8.233703,-3.669992,4.406981,0.253509,0.257327,-0.091019,32.15,63.9472662598211
1722,-8.249854,-3.67418,4.388436,0.246942,0.260687,-0.097891,32.15,64.0835820578564
1732,-8.286345,-3.669394,4.386044,0.238848,0.261908,-0.108123,32.18,64.1739444521409
1742,-8.292327,-3.669992,4.363312,0.231212,0.260534,-0.117592,32.18,64.3046108878344
1752,-8.325827,-3.669394,4.348357,0.222508,0.256869,-0.129045,32.15,64.4560762304168
1762,-8.333604,-3.658626,4.326224,0.213956,0.25076,-0.140804,32.15,64.5764400662905
1772,-8.356933,-3.672983,4.299304,0.206778,0.242055,-0.151953,32.16,64.7806417691774
1782,-8.365308,-3.674777,4.276572,0.199447,0.218537,-0.175624,32.16,64.9177434561183
1792,-8.371889,-3.666403,4.252644,0.186772,0.204029,-0.186619,32.15,65.0473381243179
1802,-8.352745,-3.673581,4.237689,0.182801,0.187994,-0.196088,32.19,65.0893699018509
1812,-8.355738,-3.678366,4.229912,0.178067,0.171042,-0.204487,32.19,65.1407278615717
1822,-8.360522,-3.681956,4.223332,0.175624,0.152411,-0.211359,32.17,65.1886572983845
1832,-8.347363,-3.690331,4.204189,0.173638,0.133169,-0.216399,32.17,65.2670175167036
1842,-8.32463,-3.699304,4.195815,0.17318,0.113316,-0.219606,32.18,65.2694837770567
1852,-8.312068,-3.692724,4.191627,0.172417,0.093921,-0.221744,32.18,65.2573754369668
1862,-8.299506,-3.707081,4.183252,0.173638,0.074678,-0.222202,32.14,65.2874287389748
1872,-8.278568,-3.702295,4.179065,0.176693,0.056047,-0.219453,32.14,65.2587128425991
1882,-8.276175,-3.711866,4.173083,0.1799,0.038332,-0.215025,32.19,65.2940400344028
1892,-8.242676,-3.716652,4.193422,0.184634,0.02138,-0.210596,32.19,65.1191314485272
1902,-8.236095,-3.721437,4.188038,0.189826,0.004734,-0.204945,32.2,65.1374737509666
1912,-8.207382,-3.726223,4.198207,0.195171,-0.009621,-0.197157,32.2,65.0257265989607
1922,-8.21157,-3.729812,4.204189,0.202349,-0.022755,-0.189215,32.19,65.0073809907108
1932,-8.185248,-3.726821,4.225725,0.209374,-0.034972,-0.181122,32.19,64.8334468049976
1942,-8.180463,-3.738187,4.258626,0.21701,-0.04444,-0.17318,32.12,64.6628880305085
1952,-8.156534,-3.753142,4.274179,0.224646,-0.051313,-0.154091,32.12,64.5436320188124
1962,-8.14457,-3.743571,4.296313,0.239917,-0.060018,-0.14447,32.19,64.3915988740158
1972,-8.146963,-3.751946,4.321437,0.24679,-0.060476,-0.137597,32.18,64.2753317249825
1982,-8.129017,-3.745964,4.345964,0.253051,-0.058185,-0.128893,32.18,64.1010969372632
1992,-8.124829,-3.760919,4.366303,0.258549,-0.052687,-0.122784,32.19,64.0020584448139
2002,-8.113463,-3.751946,4.390232,0.263741,-0.045968,-0.116981,32.19,63.8428040593483
2012,-8.109874,-3.757928,4.419543,0.266643,-0.035583,-0.111483,32.16,63.6897428321229
2022,-8.117651,-3.768098,4.4339,0.269697,-0.022297,-0.107054,32.16,63.6447325928324
2032,-8.106883,-3.751348,4.46082,0.27153,-0.009468,-0.104763,32.2,63.4634805532228
2042,-8.10808,-3.748357,4.482355,0.27153,0.006414,-0.103236,32.2,63.3525946871575
2052,-8.11466,-3.748955,4.493123,0.270613,0.024282,-0.10232,32.16,63.3134629368299
2062,-8.112864,-3.77049,4.506283,0.268323,0.042302,-0.103084,32.16,63.2652805454869
2072,-8.124231,-3.761517,4.52423,0.265574,0.061239,-0.104458,32.14,63.1905217795713
2082,-8.130812,-3.761517,4.527819,0.260687,0.080481,-0.107818,32.14,63.1876134351672
2092,-8.148758,-3.765705,4.533203,0.255953,0.101251,-0.111941,32.18,63.2066152627643
2102,-8.160722,-3.766303,4.536194,0.250149,0.120646,-0.116828,32.18,63.2199282948794
2112,-8.161918,-3.768098,4.544569,0.244346,0.139888,-0.120951,32.16,63.1821118830184
2122,-8.176873,-3.765705,4.527221,0.236558,0.158825,-0.126144,32.16,63.3024121131073
2132,-8.194819,-3.766901,4.517051,0.221439,0.193033,-0.13775,32.17,63.3969017198885
2142,-8.19781,-3.757928,4.511069,0.213956,0.208763,-0.143553,32.15,63.4246854479681
2152,-8.209774,-3.767499,4.491926,0.20632,0.221133,-0.149662,32.15,63.5596904502488
2162,-8.213365,-3.762115,4.478765,0.198684,0.23274,-0.155465,32.13,63.6292340319995
2172,-8.212168,-3.765705,4.458427,0.191201,0.242666,-0.161879,32.13,63.7338924347884
2182,-8.220542,-3.775874,4.436294,0.185245,0.249538,-0.165239,32.09,63.8765871495387
2192,-8.23131,-3.772285,4.42074,0.180053,0.255036,-0.167835,32.09,63.9767541452865
2202,-8.22772,-3.772883,4.40399,0.174707,0.258243,-0.170431,32.14,64.0549015680077
2212,-8.236095,-3.781258,4.380062,0.171195,0.260229,-0.171348,32.14,64.2050332396587
2222,-8.230114,-3.784847,4.364508,0.168446,0.259923,-0.170584,32.18,64.2750699845764
2232,-8.232506,-3.781856,4.35075,0.166919,0.258091,-0.167988,32.18,64.3480175801573
2242,-8.216953,-3.771687,4.323233,0.166919,0.253814,-0.165086,32.12,64.4443474263763
2252,-8.215756,-3.780062,4.299304,0.168446,0.248164,-0.159894,32.12,64.5738172493941
2262,-8.206783,-3.776472,4.278965,0.170737,0.241903,-0.153174,32.17,64.6553511423678
2272,-8.209774,-3.780062,4.258626,0.175318,0.233656,-0.145539,32.17,64.7711151961351
2282,-8.21157,-3.771687,4.243073,0.181122,0.22434,-0.136681,32.12,64.8472965075605
2292,-8.204989,-3.772285,4.210171,0.188299,0.213956,-0.127824,32.12,65.0045507475829
2302,-8.191828,-3.756134,4.200002,0.196851,0.190285,-0.106138,32.17,65.0121292012354
2312,-8.203195,-3.765705,4.186841,0.215941,0.177609,-0.095753,32.15,65.1156609668175
2322,-8.199007,-3.764508,4.183252,0.225715,0.163559,-0.085368,32.15,65.1239811461533
2332,-8.196614,-3.750151,4.166502,0.237474,0.149662,-0.075595,32.15,65.1918610391101
2342,-8.204391,-3.75733,4.17727,0.247706,0.135154,-0.066126,32.15,65.159861479456
2352,-8.204989,-3.754339,4.174279,0.258549,0.121257,-0.058185,32.18,65.1738064406279
2362,-8.221739,-3.734,4.186841,0.268475,0.107054,-0.051924,32.18,65.1246229633789
2372,-8.222935,-3.726821,4.192824,0.277638,0.093462,-0.0478,32.17,65.0888356347012
2382,-8.231908,-3.739383,4.196413,0.286038,0.079718,-0.044593,32.17,65.1024761084512
2392,-8.247462,-3.714259,4.205386,0.293063,0.067806,-0.042761,32.18,65.0649585847485
2402,-8.250452,-3.719045,4.219743,0.297644,0.056963,-0.042302,32.18,65.0016079734623
2413,-8.258827,-3.701099,4.240082,0.30024,0.047037,-0.044746,32.16,64.8966130681065
2422,-8.264212,-3.698706,4.252644,0.302378,0.037263,-0.047647,32.16,64.8410229283564
2432,-8.279166,-3.689733,4.275974,0.30192,0.029169,-0.052382,32.18,64.7445923467207
2442,-8.272586,-3.691527,4.289135,0.300088,0.021228,-0.05849,32.18,64.6636745299199
2452,-8.282157,-3.672983,4.298706,0.296117,0.01405,-0.064904,32.17,64.6172028611876
2462,-8.298308,-3.66042,4.328616,0.290772,0.008094,-0.073151,32.17,64.4868202837954
2472,-8.293524,-3.664608,4.348955,0.283594,0.002443,-0.092393,32.17,64.3756475159236
2482,-8.303694,-3.65384,4.348955,0.267406,-0.005803,-0.101862,32.18,64.3878662507258
2492,-8.293524,-3.643671,4.369295,0.257327,-0.009621,-0.111636,32.18,64.2503700475769
2502,-8.3013,-3.645465,4.372285,0.246484,-0.012217,-0.121868,32.15,64.254430407828
2512,-8.276773,-3.650251,4.38724,0.235947,-0.014355,-0.130572,32.15,64.1268620475823
2522,-8.273782,-3.650849,4.392026,0.224493,-0.014813,-0.13943,32.17,64.0961149814927
2532,-8.263614,-3.655036,4.408178,0.214719,-0.014203,-0.14676,32.17,63.994370903701
2542,-8.259426,-3.643671,4.409374,0.20464,-0.013286,-0.15348,32.16,63.9671789098344
2552,-8.247462,-3.638287,4.415356,0.196546,-0.010843,-0.16081,32.16,63.9036306587172
2562,-8.244471,-3.644867,4.425525,0.189063,-0.007789,-0.16585,32.13,63.851329601859
2572,-8.222337,-3.65384,4.431507,0.182649,-0.003054,-0.16921,32.13,63.7788646690488
2582,-8.210971,-3.656831,4.432106,0.177456,0.003665,-0.171653,32.2,63.752631237444
2592,-8.191828,-3.658028,4.431507,0.173333,0.010843,-0.173944,32.2,63.7126690012988
2602,-8.167302,-3.662813,4.446463,0.171042,0.019548,-0.174402,32.15,63.5839237972276
2612,-8.164909,-3.669394,4.442276,0.169668,0.029932,-0.174402,32.15,63.6067298966549
2622,-8.173882,-3.668197,4.442276,0.169821,0.040164,-0.173944,32.14,63.6263288374194
2632,-8.152347,-3.67418,4.453641,0.1715,0.051618,-0.174249,32.14,63.5241424466389
2642,-8.147561,-3.68734,4.444668,0.175013,0.064446,-0.172875,32.17,63.5729213629171
2652,-8.137392,-3.702893,4.448855,0.183565,0.091935,-0.171806,32.17,63.5441745412327
2662,-8.11466,-3.704688,4.46381,0.187994,0.106138,-0.171653,32.18,63.4162413844645
2672,-8.118249,-3.707081,4.462614,0.193644,0.121257,-0.169973,32.16,63.4333262480642
2682,-8.115856,-3.711268,4.460222,0.198837,0.136987,-0.170126,32.16,63.4444923299792
2692,-8.13799,-3.714857,4.464409,0.203571,0.152105,-0.170279,32.16,63.4784296197692
2702,-8.124231,-3.714857,4.46381,0.20861,0.167988,-0.169821,32.16,63.4494427188715
2712,-8.136793,-3.712464,4.454239,0.212581,0.18387,-0.168904,32.15,63.5252793852059
2722,-8.138588,-3.736991,4.448257,0.214261,0.19792,-0.170279,32.15,63.5862053398255
2732,-8.148159,-3.742973,4.458427,0.215941,0.211512,-0.169515,32.19,63.5625835316199
2742,-8.150552,-3.743571,4.450052,0.217163,0.223882,-0.170126,32.19,63.6116733772075
2752,-8.175079,-3.746562,4.427918,0.217315,0.235183,-0.170126,32.17,63.7848122934531
2762,-8.175676,-3.75075,4.411767,0.216399,0.24343,-0.169362,32.17,63.873458519399
2772,-8.175676,-3.767499,4.395017,0.215788,0.249844,-0.170584,32.14,63.9770944544239
2782,-8.199606,-3.777669,4.388436,0.213956,0.255036,-0.170126,32.14,64.0759335160287
2792,-8.215756,-3.778267,4.369295,0.212276,0.25748,-0.16921,32.17,64.2113573470988
2802,-8.203195,-3.792624,4.346562,0.210596,0.257632,-0.16753,32.17,64.314893593391
2812,-8.230712,-3.793222,4.314857,0.207541,0.255342,-0.166461,32.15,64.5404210823423
2822,-8.237292,-3.796213,4.302894,0.205403,0.243888,-0.16249,32.15,64.6198011825248
2832,-8.245667,-3.800999,4.281358,0.202196,0.235947,-0.159741,32.19,64.7543668271312
2842,-8.245069,-3.801597,4.27059,0.200058,0.225715,-0.157145,32.18,64.8092709685587
2852,-8.252247,-3.809972,4.256233,0.199447,0.214719,-0.154702,32.18,64.9077991252835
2862,-8.257631,-3.821936,4.246064,0.199753,0.201738,-0.150273,32.14,64.9843220369477
2872,-8.252846,-3.81715,4.229912,0.199753,0.188605,-0.148288,32.14,65.0525988665575
2882,-8.254042,-3.82074,4.229314,0.201127,0.175318,-0.144317,32.14,65.0619431910067
2892,-8.255239,-3.822534,4.21735,0.202655,0.160963,-0.140652,32.14,65.1283642971768
2902,-8.253444,-3.824329,4.21077,0.204793,0.145997,-0.136528,32.13,65.1603853493427
2912,-8.243275,-3.815954,4.207779,0.207541,0.131641,-0.131641,32.13,65.1452730059408
2922,-8.24148,-3.813561,4.201199,0.210596,0.116523,-0.128282,32.16,65.1731220515287
2932,-8.246264,-3.815954,4.196413,0.213956,0.102014,-0.122784,32.16,65.2108395933795
2942,-8.244471,-3.81057,4.194618,0.219606,0.087812,-0.118508,32.17,65.2108379140475
2952,-8.251051,-3.809972,4.198207,0.225409,0.073762,-0.113621,32.17,65.2059220233464
2962,-8.244471,-3.795017,4.2006,0.23106,0.061239,-0.109498,32.16,65.1640767562521
2972,-8.230114,-3.804588,4.213162,0.237016,0.048258,-0.106443,32.16,65.0770155146437
2982,-8.229516,-3.78066,4.228117,0.24175,0.035736,-0.101709,32.19,64.9737638521271
2992,-8.236095,-3.778267,4.234099,0.247553,0.025045,-0.09499,32.19,64.9547829906447
3002,-8.230114,-3.771089,4.251448,0.25916,0.005345,-0.091324,32.18,64.8443007314723
3012,-8.237292,-3.754339,4.266403,0.264047,-0.002138,-0.088575,32.18,64.7657449563781
3022,-8.223534,-3.760919,4.274179,0.268323,-0.009774,-0.08659,32.18,64.7015608772474
3032,-8.219944,-3.741776,4.289733,0.272446,-0.01573,-0.083841,32.11,64.5935208316655
3042,-8.219944,-3.727419,4.305884,0.275806,-0.019853,-0.081856,32.11,64.495334464606
3052,-8.212168,-3.729812,4.323233,0.278249,-0.022907,-0.080634,32.16,64.3906110269467
3062,-8.21157,-3.719045,4.338188,0.279318,-0.024435,-0.078649,32.16,64.3010166519851
3072,-8.193025,-3.7005,4.362714,0.279776,-0.023824,-0.077122,32.16,64.1132838329537
3082,-8.199007,-3.692724,4.389035,0.279624,-0.022297,-0.076053,32.16,63.9833313230299
3092,-8.191828,-3.701099,4.38724,0.278402,-0.018937,-0.075136,32.19,63.9847818896095
3102,-8.182258,-3.686144,4.412963,0.2755,-0.014203,-0.075289,32.19,63.8149647548066
3112,-8.184052,-3.676572,4.433302,0.273515,-0.00733,-0.075136,32.16,63.7046806217283
3122,-8.163713,-3.675375,4.445267,0.270308,0.001222,-0.074526,32.16,63.5948449727598
3132,-8.167302,-3.665804,4.452445,0.265421,0.011301,-0.074678,32.2,63.5563445077652
3142,-8.17149,-3.662215,4.461418,0.260381,0.021991,-0.075595,32.2,63.516332370525
3152,-8.170293,-3.652046,4.480561,0.255494,0.034361,-0.076358,32.2,63.4048474974793
3162,-8.169096,-3.64726,4.499703,0.250455,0.047342,-0.078954,32.2,63.2991158189587
3172,-8.176275,-3.649653,4.49731,0.239306,0.076511,-0.085827,32.18,63.3306902662446
3182,-8.159525,-3.644867,4.496712,0.234114,0.092241,-0.087659,32.13,63.2894186409558
3192,-8.178668,-3.644269,4.511069,0.228158,0.108123,-0.093921,32.13,63.2604076560524
3202,-8.179864,-3.638287,4.506283,0.224035,0.124158,-0.098655,32.15,63.2813942206308
3212,-8.185846,-3.650251,4.50748,0.218995,0.139888,-0.104153,32.15,63.3018177012703
3222,-8.176873,-3.654438,4.504489,0.213956,0.15516,-0.111941,32.17,63.3004327167247
3232,-8.178668,-3.657429,4.491926,0.210138,0.171348,-0.117744,32.17,63.3719407988206
3242,-8.19123,-3.655635,4.485346,0.206014,0.185398,-0.12538,32.14,63.4330406689742
3252,-8.197212,-3.66401,4.479364,0.202807,0.198684,-0.132558,32.14,63.4862627436404
3262,-8.194221,-3.65384,4.4674,0.198989,0.211054,-0.139888,32.17,63.5299131699317
3272,-8.216354,-3.669992,4.450052,0.196699,0.222355,-0.148593,32.17,63.6867077800072
3282,-8.214561,-3.672983,4.438686,0.194561,0.231671,-0.156534,32.17,63.7438327671026
3292,-8.221141,-3.680759,4.41416,0.192881,0.239765,-0.163406,32.17,63.8926708573922
3302,-8.22772,-3.685545,4.391428,0.191048,0.245721,-0.170279,32.18,64.0293138075494
3312,-8.233703,-3.695116,4.381258,0.190132,0.249997,-0.176387,32.18,64.1049789797029
3322,-8.226524,-3.698706,4.361517,0.189826,0.251371,-0.181885,32.13,64.193856380816
3332,-8.245069,-3.71067,4.332206,0.188605,0.251524,-0.186467,32.13,64.3989436454743
3342,-8.24148,-3.713063,4.298706,0.187536,0.243888,-0.193644,32.2,64.5662144506508
3352,-8.253444,-3.716054,4.28734,0.186161,0.23839,-0.195477,32.13,64.6547533164095
3362,-8.248658,-3.728018,4.26401,0.186314,0.230602,-0.195171,32.13,64.776850427346
3372,-8.255836,-3.727419,4.244269,0.186161,0.220522,-0.195324,32.16,64.8945048300002
3382,-8.263614,-3.741776,4.241278,0.185856,0.207541,-0.195324,32.16,64.9415659769068
3392,-8.268398,-3.744169,4.233501,0.185245,0.193644,-0.193644,32.16,64.9948201176083
3402,-8.26481,-3.739982,4.212564,0.185856,0.178984,-0.190132,32.16,65.0914187280579
3412,-8.262416,-3.754339,4.204788,0.186619,0.163254,-0.187077,32.11,65.1408634472549
3422,-8.258827,-3.750151,4.186841,0.187536,0.145691,-0.182038,32.11,65.2222027394861
3432,-8.258827,-3.753142,4.182654,0.189063,0.127213,-0.176998,32.16,65.2469806135809
3442,-8.252846,-3.766303,4.192824,0.19059,0.109803,-0.1715,32.16,65.1940586699817
3452,-8.261221,-3.767499,4.192824,0.192728,0.091019,-0.166155,32.18,65.2135658756754
3462,-8.253444,-3.764508,4.189833,0.194713,0.073457,-0.159436,32.18,65.209143105689
3472,-8.25464,-3.76391,4.196413,0.19792,0.055589,-0.153938,32.2,65.1769214543117
3482,-8.246264,-3.762115,4.193422,0.201127,0.039095,-0.14844,32.2,65.1723467855016
3492,-8.238488,-3.766303,4.211368,0.204029,0.024129,-0.141873,32.19,65.0660859642087
3502,-8.237292,-3.769294,4.234099,0.208305,0.010079,-0.13607,32.19,64.9483566723092
3512,-8.223534,-3.77049,4.253242,0.212734,-0.002291,-0.124311,32.16,64.8198123520483
3522,-8.221739,-3.772883,4.267001,0.221133,-0.02138,-0.119424,32.14,64.7469393032749
3532,-8.225926,-3.768696,4.290331,0.224646,-0.028405,-0.116217,32.14,64.6312397260187
3542,-8.216953,-3.768696,4.310072,0.228922,-0.032834,-0.113621,32.18,64.5091975214617
3552,-8.219944,-3.76391,4.331607,0.232587,-0.034514,-0.111941,32.18,64.399881764268
3562,-8.20798,-3.763312,4.345964,0.235641,-0.034819,-0.110719,32.18,64.2983671386255
3572,-8.208578,-3.765106,4.368098,0.238696,-0.033139,-0.109345,32.18,64.1876563874637
3582,-8.199007,-3.762115,4.378866,0.242361,-0.028863,-0.110567,32.12,64.1075223891331
3592,-8.19123,-3.753142,4.396214,0.244652,-0.023824,-0.110872,32.12,63.9913540455805
3602,-8.196614,-3.756732,4.411767,0.246484,-0.016646,-0.113163,32.2,63.9275637511688
3612,-8.182856,-3.754937,4.429713,0.248622,-0.008552,-0.116217,32.2,63.80225415608
3622,-8.176275,-3.75075,4.441079,0.249997,0.00168,-0.118661,32.15,63.724524553619
3632,-8.175676,-3.764508,4.453641,0.250302,0.012217,-0.121868,32.15,63.6733947858199
3642,-8.163713,-3.754339,4.457231,0.250149,0.024435,-0.12538,32.18,63.6167149730199
3652,-8.160722,-3.749553,4.459025,0.250149,0.037263,-0.126907,32.18,63.5955550403294
3662,-8.156534,-3.744768,4.475177,0.248775,0.05116,-0.128893,32.15,63.4981614816342
3672,-8.140383,-3.744169,4.475775,0.247095,0.065363,-0.131641,32.15,63.456999929173
3682,-8.129017,-3.751348,4.483552,0.244957,0.07926,-0.133779,32.16,63.3984726401513
3692,-8.121839,-3.744768,4.481159,0.238696,0.110567,-0.133932,32.19,63.3869423830604
3702,-8.115258,-3.741776,4.475775,0.23503,0.124769,-0.133169,32.19,63.3959725466662
3712,-8.114061,-3.743571,4.469792,0.230907,0.139125,-0.130878,32.16,63.4257882948395
3722,-8.117651,-3.736392,4.472186,0.227089,0.153785,-0.127976,32.16,63.4141683422619
3732,-8.12124,-3.735196,4.457829,0.223119,0.166308,-0.125533,32.17,63.4948982425127
3742,-8.132606,-3.733402,4.442276,0.218995,0.178984,-0.120799,32.17,63.5992355891581
3752,-8.136195,-3.744169,4.433302,0.215483,0.19059,-0.115759,32.14,63.6650965246164
3762,-8.133802,-3.739383,4.427918,0.210749,0.200364,-0.110567,32.14,63.6821553112685
3772,-8.154141,-3.727419,4.41057,0.206625,0.208305,-0.105222,32.17,63.8056511232811
3782,-8.160722,-3.737589,4.398008,0.204334,0.215025,-0.100029,32.17,63.8961124589452
3792,-8.170293,-3.729812,4.384848,0.200975,0.218537,-0.094837,32.15,63.9776571319081
3802,-8.191828,-3.731607,4.379463,0.198378,0.221439,-0.090561,32.15,64.0564251540555
3812,-8.20798,-3.734598,4.363312,0.196088,0.223729,-0.086285,32.14,64.1793733507955
3822,-8.213962,-3.722634,4.345964,0.195171,0.222355,-0.082925,32.14,64.2699971121759
3832,-8.239684,-3.724428,4.336991,0.193033,0.22098,-0.080481,32.12,64.3761356504098
3842,-8.257033,-3.717848,4.326224,0.192423,0.217315,-0.079565,32.12,64.4639247747311
3852,-8.270193,-3.731607,4.320241,0.191812,0.212581,-0.078954,32.16,64.5380890707911
3862,-8.275578,-3.726223,4.303492,0.192881,0.198684,-0.082467,32.16,64.6309635894975
3872,-8.285748,-3.715455,4.292126,0.19395,0.190895,-0.085368,32.18,64.7014344983514
3882,-8.295916,-3.726821,4.289135,0.19563,0.182954,-0.088728,32.19,64.7507638462549
3892,-8.291131,-3.719045,4.28734,0.198531,0.17318,-0.092852,32.19,64.7416575513556
3902,-8.301898,-3.720839,4.272385,0.201127,0.162948,-0.098044,32.17,64.8444425262037
3912,-8.298308,-3.713661,4.272385,0.204182,0.153327,-0.103389,32.17,64.8293852639175
3922,-8.29472,-3.719643,4.267001,0.207236,0.143095,-0.109192,32.15,64.8551755961101
3932,-8.28455,-3.706482,4.262215,0.211359,0.132558,-0.114232,32.15,64.8443339951587
3942,-8.28455,-3.707081,4.256832,0.215025,0.122326,-0.119271,32.14,64.8727763726076
3952,-8.277969,-3.713661,4.25743,0.218995,0.112857,-0.124464,32.14,64.8616329253844
3962,-8.269596,-3.707081,4.261019,0.223271,0.103389,-0.128893,32.13,64.8179307398344
3972,-8.266006,-3.711866,4.249653,0.227242,0.093615,-0.133169,32.13,64.8736082174639
3982,-8.257033,-3.709473,4.252644,0.231212,0.085063,-0.135918,32.18,64.8357981092833
3992,-8.243872,-3.703491,4.250251,0.233503,0.077274,-0.138056,32.18,64.8129577662138
4002,-8.228917,-3.705884,4.255037,0.235794,0.068722,-0.139888,32.16,64.7571557335113
4012,-8.218747,-3.698706,4.245465,0.238237,0.061239,-0.139735,32.16,64.7769773939422
4022,-8.221141,-3.705884,4.269992,0.240223,0.053145,-0.14111,32.15,64.6621169129591
4032,-8.208578,-3.695715,4.275974,0.242055,0.046273,-0.138056,32.15,64.5925762426806
4042,-8.210971,-3.690929,4.28076,0.242666,0.033292,-0.135765,32.2,64.5682676621447
4052,-8.2014,-3.702295,4.288536,0.242514,0.027184,-0.133627,32.18,64.5178854075692
4062,-8.203195,-3.693322,4.295715,0.240834,0.022144,-0.1321,32.18,64.4755672548937
4072,-8.199606,-3.68375,4.308876,0.239306,0.016799,-0.12874,32.2,64.3894740667053
4082,-8.198408,-3.678965,4.314857,0.237016,0.012828,-0.126144,32.2,64.3508891029364
4092,-8.206185,-3.685545,4.333402,0.23274,0.00901,-0.124158,32.19,64.2792772709117
4102,-8.204989,-3.690331,4.339384,0.228769,0.005803,-0.123547,32.19,64.2505318690945
4112,-8.212168,-3.681956,4.356134,0.225104,0.003665,-0.123547,32.16,64.1718417280523
4122,-8.228917,-3.679563,4.364508,0.219453,0.002291,-0.123089,32.16,64.1643841781673
4132,-8.22772,-3.682554,4.379463,0.214414,0.002596,-0.123089,32.18,64.0877512905922
4142,-8.225328,-3.672983,4.39083,0.209221,0.002749,-0.124922,32.18,64.0140797128719
4152,-8.230712,-3.67418,4.408178,0.202655,0.005192,-0.126602,32.18,63.9385536727063
4162,-8.235497,-3.678965,4.427918,0.195171,0.008247,-0.129962,32.18,63.8532712603058
4172,-8.243872,-3.678366,4.427918,0.189215,0.01405,-0.132863,32.16,63.8718616399522
4182,-8.236693,-3.677768,4.450052,0.183412,0.019395,-0.137445,32.16,63.741607497044
4192,-8.223534,-3.693322,4.460222,0.178067,0.026725,-0.141721,32.17,63.6754045645895
4202,-8.221141,-3.685545,4.466802,0.172417,0.034819,-0.151495,32.17,63.6282409301357
4212,-8.220542,-3.7005,4.470989,0.164017,0.053603,-0.156687,32.18,63.6209992804393
4222,-8.213962,-3.711268,4.47398,0.160658,0.064752,-0.160505,32.19,63.6017670583646
4232,-8.203793,-3.704688,4.478765,0.158825,0.076053,-0.164934,32.19,63.54699838555
4242,-8.19781,-3.717848,4.463212,0.158978,0.087048,-0.168141,32.17,63.6263419695278
4252,-8.195418,-3.73041,4.46082,0.158367,0.098807,-0.17089,32.17,63.6462064846641
4262,-8.186445,-3.73041,4.455436,0.159589,0.110414,-0.174097,32.15,63.6530520463479
4272,-8.173882,-3.741776,4.454239,0.162032,0.122173,-0.173944,32.15,63.6421823491415
4282,-8.158329,-3.745365,4.442276,0.165392,0.133321,-0.17318,32.18,63.6713927792586
4292,-8.152946,-3.75075,4.434498,0.169821,0.144317,-0.171348,32.18,63.7045856317885
4302,-8.151151,-3.762115,4.432106,0.174249,0.155312,-0.168752,32.12,63.7247830361252
4312,-8.140383,-3.766303,4.413561,0.1799,0.16417,-0.166613,32.12,63.7997489301331
4322,-8.125427,-3.768098,4.401597,0.184481,0.173638,-0.163254,32.14,63.8288925813432
4332,-8.128419,-3.771089,4.394419,0.190743,0.182496,-0.158061,32.14,63.8759360402057
4342,-8.123632,-3.78724,4.37408,0.196393,0.189979,-0.151647,32.18,63.9870926581708
4352,-8.118249,-3.790829,4.377071,0.201738,0.196546,-0.14508,32.18,63.9631791197284
4362,-8.109276,-3.791427,4.358526,0.207236,0.203113,-0.138361,32.16,64.0391724466143
4372,-8.136793,-3.800999,4.343571,0.211207,0.20632,-0.131947,32.16,64.1892622946887
4382,-8.14457,-3.789633,4.325625,0.21869,0.211665,-0.118202,32.16,64.2877228651217
4392,-8.148159,-3.787838,4.319045,0.221439,0.211512,-0.111483,32.15,64.3280205097528
4402,-8.168499,-3.784249,4.311268,0.222355,0.211054,-0.105222,32.15,64.4103786815274
4414,-8.177471,-3.799803,4.301697,0.223119,0.20861,-0.100945,32.16,64.4962587364467
4422,-8.190632,-3.79741,4.296313,0.224035,0.205709,-0.095448,32.16,64.551075329496
4432,-8.204989,-3.80399,4.296313,0.223271,0.200364,-0.090561,32.18,64.5899093635668
4442,-8.224131,-3.794419,4.283153,0.221897,0.194102,-0.087812,32.18,64.6906618848778
4452,-8.225926,-3.798606,4.280162,0.220675,0.185398,-0.083994,32.2,64.714394955073
4462,-8.233105,-3.8004,4.27059,0.217621,0.176693,-0.08262,32.2,64.7816191763664
4472,-8.25464,-3.795615,4.272385,0.214872,0.166461,-0.081398,32.19,64.8150413564455
4482,-8.254042,-3.79382,4.255037,0.21197,0.155923,-0.080787,32.19,64.9015654288789
4492,-8.264212,-3.786044,4.256832,0.209832,0.144011,-0.081092,32.16,64.9068147228135
4502,-8.273782,-3.771687,4.246662,0.207083,0.130878,-0.081703,32.16,64.966023525293
4512,-8.292925,-3.777071,4.24726,0.205709,0.117897,-0.082314,32.19,65.0103279229843
4522,-8.290532,-3.766901,4.252644,0.205403,0.103389,-0.083078,32.19,64.9671194392448
4532,-8.306085,-3.768696,4.24068,0.203876,0.089797,-0.083536,32.18,65.0647882974361
4542,-8.301898,-3.751348,4.241877,0.202807,0.075442,-0.085063,32.18,65.0322311821896
4552,-8.294122,-3.747759,4.24726,0.203418,0.049327,-0.087201,32.16,64.9837712402211
4562,-8.293524,-3.728616,4.256233,0.205862,0.035736,-0.089034,32.18,64.91706969512
4572,-8.298907,-3.736392,4.254438,0.208916,0.023671,-0.089492,32.18,64.9459232865009
4582,-8.287541,-3.719045,4.268198,0.211207,0.012828,-0.090866,32.15,64.8325075958079
4592,-8.275578,-3.716054,4.273581,0.213039,0.002443,-0.093004,32.15,64.7751757095827
4602,-8.275578,-3.714259,4.286144,0.216704,-0.006109,-0.093157,32.15,64.7084808887497
4612,-8.26481,-3.707081,4.302894,0.220522,-0.012981,-0.09499,32.15,64.5908001766939
4622,-8.254042,-3.690331,4.31067,0.222966,-0.018021,-0.097128,32.14,64.5096995589444
4632,-8.243872,-3.689733,4.328616,0.225562,-0.021991,-0.09728,32.14,64.3935736866512
4642,-8.2349,-3.677171,4.341179,0.227853,-0.024282,-0.099418,32.17,64.295773248778
4652,-8.225926,-3.677171,4.366303,0.229227,-0.024435,-0.101709,32.17,64.1458952782632
4662,-8.212766,-3.668197,4.37408,0.230296,-0.021838,-0.103084,32.16,64.0666436036099
4672,-8.205587,-3.65384,4.39083,0.230907,-0.018631,-0.104916,32.16,63.9492335298376
4682,-8.192427,-3.659822,4.404588,0.230907,-0.013897,-0.107054,32.2,63.8542609991943
4692,-8.181061,-3.652046,4.422534,0.22938,-0.006109,-0.108734,32.2,63.7276410401451
4702,-8.179864,-3.643072,4.422534,0.228311,0.002138,-0.110108,32.12,63.7155843614276
4712,-8.163115,-3.650251,4.459623,0.226784,0.010996,-0.110872,32.12,63.4934993676689
4722,-8.156534,-3.651447,4.448257,0.22434,0.021228,-0.114843,32.15,63.537742128733
4732,-8.13799,-3.652644,4.459025,0.217621,0.044899,-0.114995,32.17,63.4402888855268
4742,-8.146963,-3.643072,4.462614,0.214261,0.057879,-0.115759,32.17,63.4328317769681
4752,-8.145766,-3.648456,4.46082,0.209374,0.07086,-0.118202,32.18,63.4448876894152
4762,-8.140383,-3.650849,4.463212,0.205251,0.084605,-0.118813,32.18,63.42249855565
4772,-8.145168,-3.647858,4.46381,0.202502,0.097586,-0.119271,32.16,63.42750260933
4782,-8.134999,-3.667001,4.459025,0.19792,0.11133,-0.119577,32.16,63.448408755192
4792,-8.135597,-3.654438,4.458427,0.194102,0.124158,-0.120493,32.17,63.4396416720237
4802,-8.146365,-3.672983,4.457829,0.191048,0.136987,-0.121257,32.17,63.4874264790602
4812,-8.145168,-3.680161,4.452445,0.187688,0.148746,-0.120799,32.19,63.5198393187469
4822,-8.152347,-3.68375,4.45065,0.184634,0.160505,-0.121715,32.19,63.5495578934179
4832,-8.176873,-3.674777,4.435695,0.181427,0.170431,-0.122326,32.14,63.6739065092781
4842,-8.183454,-3.691527,4.426124,0.179289,0.179594,-0.123395,32.14,63.7557017937341
4852,-8.190034,-3.705884,4.421339,0.176387,0.187536,-0.125686,32.19,63.8103628752105
4862,-8.204989,-3.705884,4.400401,0.17486,0.193644,-0.12706,32.19,63.9521754940457
4872,-8.213365,-3.702893,4.400401,0.171653,0.19792,-0.129503,32.18,63.9682460718725
4882,-8.233105,-3.710072,4.387838,0.16921,0.201891,-0.132558,32.18,64.0851272742022
4892,-8.245069,-3.726821,4.35733,0.167224,0.204334,-0.136681,32.2,64.2860485241495
4902,-8.264212,-3.723232,4.354339,0.16417,0.203724,-0.144317,32.2,64.3408888518442
4912,-8.282157,-3.736392,4.346562,0.162796,0.200364,-0.149204,32.16,64.4343859637355
4922,-8.283952,-3.743571,4.325027,0.160352,0.196546,-0.153022,32.19,64.5562256105313
4932,-8.28156,-3.743571,4.315455,0.158825,0.191354,-0.156229,32.19,64.6001169178674
4942,-8.285748,-3.764508,4.299902,0.15852,0.184634,-0.16081,32.2,64.7105062197813
4952,-8.290532,-3.761517,4.3005,0.158672,0.176693,-0.163865,32.2,64.7150128844986
4962,-8.278568,-3.769294,4.287939,0.15852,0.166613,-0.168752,32.15,64.7610484109213
4972,-8.286943,-3.765705,4.269393,0.158978,0.156687,-0.170279,32.15,64.871563290369
4982,-8.276773,-3.764508,4.25743,0.15913,0.14447,-0.172417,32.19,64.9097354335818
4992,-8.260622,-3.77408,4.250251,0.161116,0.132863,-0.172264,32.19,64.920897100215
5002,-8.266603,-3.781258,4.241278,0.162337,0.121409,-0.170584,32.18,64.987712090684
5012,-8.258228,-3.781258,4.235296,0.164934,0.108429,-0.16921,32.18,65.0002962085168
5022,-8.249854,-3.78066,4.232305,0.167988,0.095906,-0.166766,32.16,64.9967946930753
5032,-8.231908,-3.789633,4.228117,0.173028,0.083078,-0.162032,32.16,64.9881180794341
5042,-8.216953,-3.790829,4.232903,0.176998,0.071319,-0.157603,32.14,64.9315230747277
5052,-8.203793,-3.790829,4.229314,0.181732,0.059407,-0.150731,32.14,64.9211213715197
5062,-8.204989,-3.778267,4.240082,0.186161,0.048564,-0.144317,32.17,64.8549598730256
5072,-8.183454,-3.792026,4.252644,0.191812,0.029169,-0.12874,32.17,64.7559761028975
5082,-8.176275,-3.783053,4.261617,0.202349,0.022144,-0.120646,32.15,64.6841001577122
5092,-8.176873,-3.785445,4.274778,0.207847,0.015882,-0.112094,32.17,64.6195530052886
5102,-8.176873,-3.776472,4.278367,0.21197,0.011148,-0.103542,32.17,64.5916456294993
5112,-8.166105,-3.77049,4.286144,0.216399,0.00672,-0.096822,32.12,64.5209408340371
5122,-8.163713,-3.765106,4.308876,0.22037,0.004429,-0.089339,32.12,64.3920551933312
5132,-8.161918,-3.759125,4.328018,0.222966,0.004276,-0.08323,32.18,64.2826311236262
5142,-8.16132,-3.756732,4.332804,0.225409,0.004734,-0.077733,32.18,64.2540142039629
5152,-8.176275,-3.753741,4.34417,0.227547,0.006872,-0.072998,32.17,64.2260394418207
5162,-8.164909,-3.748357,4.368696,0.229227,0.009468,-0.070097,32.17,64.0680077544155
5172,-8.177471,-3.738187,4.380062,0.230143,0.013592,-0.066279,32.18,64.0274509120139
5182,-8.195418,-3.738786,4.396214,0.230449,0.017868,-0.06521,32.18,63.9859387648266
5192,-8.184052,-3.725625,4.400999,0.229991,0.024893,-0.063988,32.18,63.9216680924418
5202,-8.195418,-3.729214,4.416552,0.228922,0.031765,-0.065821,32.18,63.8715732902513
5212,-8.203793,-3.732205,4.428516,0.22602,0.038026,-0.068111,32.16,63.8325539292011
5222,-8.206783,-3.721437,4.4339,0.224646,0.045662,-0.069791,32.16,63.8006316047467
5232,-8.204989,-3.717848,4.438088,0.222813,0.053145,-0.073151,32.12,63.7713427870786
5242,-8.22473,-3.709473,4.43749,0.220217,0.061545,-0.082161,32.12,63.811013463221
5252,-8.219346,-3.710072,4.446463,0.215025,0.076969,-0.086437,32.19,63.7534071084832
5262,-8.212168,-3.707081,4.44048,0.211665,0.084299,-0.091324,32.16,63.7644082887093
5272,-8.214561,-3.702893,4.430311,0.209069,0.091783,-0.096059,32.16,63.8176162701613
5282,-8.221141,-3.7005,4.435695,0.206014,0.099876,-0.100487,32.16,63.8026869758979
5292,-8.201998,-3.705884,4.439284,0.202349,0.10797,-0.104305,32.16,63.7458971287317
5302,-8.205587,-3.701099,4.436892,0.199142,0.114843,-0.108429,32.16,63.761433693308
5312,-8.199007,-3.70409,4.424927,0.19624,0.122173,-0.112094,32.16,63.8107208750936
5322,-8.200203,-3.687938,4.42074,0.193492,0.128587,-0.114537,32.15,63.8182065251466
5332,-8.201998,-3.701697,4.415356,0.189521,0.134848,-0.117592,32.15,63.8642062252092
5342,-8.193025,-3.699902,4.407579,0.186161,0.140041,-0.12034,32.15,63.8816830852918
5352,-8.195418,-3.698107,4.41416,0.183412,0.145997,-0.121409,32.15,63.8515146642412
5362,-8.19123,-3.690331,4.396214,0.180511,0.151495,-0.121257,32.18,63.926088168403
5372,-8.195418,-3.697509,4.395017,0.177304,0.15516,-0.120951,32.18,63.9492750977199
5382,-8.182258,-3.699902,4.38066,0.174249,0.159283,-0.120188,32.16,63.995517600892
5392,-8.181061,-3.70409,4.371089,0.171806,0.16249,-0.118661,32.16,64.046463112624
5402,-8.188837,-3.709473,4.359723,0.169821,0.165392,-0.115912,32.14,64.1284201235252
5412,-8.193025,-3.707679,4.347759,0.168599,0.166461,-0.115301,32.14,64.1978649026119
5422,-8.193623,-3.711268,4.339384,0.166766,0.166155,-0.109345,32.16,64.2461793267755
5432,-8.204989,-3.714857,4.320241,0.16585,0.163865,-0.107054,32.16,64.374565196914
5442,-8.199606,-3.714857,4.321437,0.166155,0.161879,-0.104153,32.16,64.3562091022755
5452,-8.214561,-3.719045,4.31067,0.16753,0.158367,-0.101251,32.19,64.4499377209618
5462,-8.218149,-3.73041,4.299902,0.168904,0.154549,-0.098197,32.19,64.5252932478618
5472,-8.221141,-3.716054,4.295117,0.169821,0.149967,-0.09499,32.18,64.5421758469689
5482,-8.22473,-3.724428,4.298706,0.172722,0.144317,-0.093615,32.18,64.5401634259529
5492,-8.23131,-3.721437,4.289733,0.175776,0.138208,-0.093004,32.16,64.5983092904898
5502,-8.239087,-3.719643,4.282554,0.178678,0.131947,-0.092393,32.16,64.6510534228088
5512,-8.240283,-3.714259,4.278965,0.182038,0.124769,-0.090866,32.17,64.6668799361798
5522,-8.248059,-3.726223,4.283751,0.18555,0.117592,-0.091019,32.17,64.6715293789752
5532,-8.260622,-3.725027,4.275974,0.188299,0.110261,-0.092393,32.17,64.7385330978657
5542,-8.253444,-3.715455,4.28076,0.191659,0.103084,-0.093615,32.17,64.688180376674
5552,-8.26481,-3.720839,4.280162,0.195477,0.095753,-0.095753,32.18,64.7220008020064
5562,-8.273185,-3.729214,4.284947,0.198684,0.08827,-0.098197,32.18,64.7242997790426
5572,-8.263015,-3.72383,4.284349,0.201127,0.081092,-0.100945,32.18,64.6993658449136
5582,-8.268398,-3.720839,4.292724,0.202807,0.073304,-0.104916,32.18,64.6651039133354
5592,-8.268398,-3.714857,4.290331,0.204334,0.061239,-0.113621,32.12,64.6714633219099
5602,-8.271988,-3.728616,4.293921,0.207236,0.054825,-0.118813,32.13,64.6747237600244
5612,-8.268398,-3.725625,4.304688,0.20632,0.048564,-0.1237,32.13,64.6081866627536
5622,-8.276773,-3.710072,4.305884,0.206167,0.043219,-0.129198,32.18,64.6051126901934
5632,-8.267202,-3.721437,4.318447,0.204182,0.038026,-0.134085,32.18,64.5303923097647
5642,-8.251051,-3.71725,4.325027,0.202044,0.033139,-0.138819,32.17,64.4560586509124
5652,-8.257033,-3.720241,4.326224,0.199753,0.028711,-0.144164,32.17,64.4663431883375
5662,-8.258228,-3.712464,4.328018,0.196393,0.024587,-0.148288,32.18,64.4519282722136
5672,-8.259426,-3.716652,4.336392,0.191964,0.020769,-0.153022,32.18,64.4157355668988
5682,-8.243872,-3.713063,4.350152,0.188146,0.018631,-0.155618,32.16,64.3062562155596
5692,-8.2349,-3.710072,4.347161,0.185092,0.016341,-0.157909,32.16,64.2983451811812
5702,-8.234302,-3.708277,4.354339,0.179747,0.014355,-0.161421,32.17,64.2582038248256
5712,-8.209774,-3.709473,4.364508,0.17486,0.013134,-0.162032,32.17,64.1514194267903
5722,-8.218149,-3.716054,4.364508,0.169668,0.012675,-0.162185,32.19,64.1772039361847
5732,-8.196614,-3.708875,4.375875,0.165544,0.013286,-0.162032,32.19,64.0622766716626
5742,-8.194819,-3.712464,4.376472,0.16249,0.01405,-0.160199,32.17,64.0588140082905
5752,-8.188837,-3.714259,4.400999,0.159436,0.017104,-0.158214,32.17,63.9207982800366
5762,-8.167302,-3.729812,4.38724,0.156534,0.0197,-0.150884,32.17,63.9584890907392
5772,-8.160722,-3.718446,4.394419,0.153785,0.029474,-0.145844,32.2,63.894523381732
5782,-8.151749,-3.716652,4.401597,0.153174,0.035583,-0.139735,32.2,63.835023567349
5792,-8.147561,-3.722634,4.41057,0.153174,0.043524,-0.133169,32.16,63.7854539348029
5802,-8.133204,-3.731607,4.406981,0.153327,0.051313,-0.12706,32.16,63.7803050274561
5812,-8.133204,-3.733402,4.421937,0.155465,0.061087,-0.11973,32.17,63.7051907585079
5822,-8.134401,-3.733402,4.424329,0.157298,0.070708,-0.112857,32.17,63.6956497073617
5832,-8.140383,-3.739982,4.423133,0.160963,0.081092,-0.10568,32.16,63.722591712451
5842,-8.129615,-3.74058,4.411169,0.163865,0.090713,-0.098197,32.16,63.7599595869851
5852,-8.139785,-3.746562,4.414758,0.167377,0.10232,-0.091783,32.15,63.7712662659581
5862,-8.13799,-3.756732,4.432704,0.171195,0.113621,-0.086896,32.15,63.6856780959754
5872,-8.135597,-3.748955,4.42074,0.176235,0.123547,-0.081856,32.17,63.7333825906998
5882,-8.143373,-3.764508,4.41057,0.179747,0.133627,-0.077885,32.17,63.8200906218711
5892,-8.156534,-3.757928,4.406981,0.184787,0.143401,-0.074373,32.19,63.8617668316805
5902,-8.165507,-3.764508,4.411767,0.189368,0.152411,-0.071624,32.19,63.8646659228303
5912,-8.166704,-3.761517,4.400401,0.193186,0.160963,-0.07025,32.14,63.9226542668212
5922,-8.177471,-3.764508,4.388436,0.197004,0.168904,-0.069639,32.14,64.0118787824911
5932,-8.2014,-3.772883,4.379463,0.200211,0.174402,-0.070402,32.16,64.1210876732774
5942,-8.204391,-3.774678,4.377669,0.205403,0.183565,-0.074831,32.16,64.1389425999805
5952,-8.216354,-3.775276,4.368696,0.205862,0.186008,-0.077885,32.16,64.2126823828276
5962,-8.233703,-3.772285,4.353741,0.205556,0.18723,-0.082009,32.18,64.3254791835199
5972,-8.222337,-3.77408,4.342973,0.205709,0.186772,-0.085674,32.18,64.3571820189813
5982,-8.236693,-3.772883,4.336392,0.204945,0.186008,-0.089644,32.17,64.4220090898237
5992,-8.248658,-3.762714,4.326822,0.203571,0.183107,-0.095295,32.17,64.4876273470084
6002,-8.25165,-3.778865,4.322036,0.199753,0.177915,-0.10064,32.18,64.5354088470433
6012,-8.258827,-3.759125,4.312464,0.197309,0.172417,-0.105069,32.18,64.5806001109331
6022,-8.255836,-3.765106,4.298108,0.193797,0.166308,-0.10797,32.19,64.6539994899436
6032,-8.248658,-3.753142,4.290331,0.191048,0.158214,-0.111177,32.19,64.6660506943644
6042,-8.248658,-3.760321,4.283153,0.186925,0.149357,-0.113468,32.17,64.7104008675438
6052,-8.247462,-3.755535,4.277769,0.183412,0.140194,-0.115606,32.17,64.7307285925379
6062,-8.246264,-3.756732,4.274179,0.180205,0.130114,-0.117286,32.18,64.7478438100285
6072,-8.253444,-3.745964,4.265206,0.177151,0.119882,-0.115301,32.18,64.7993350927283
6082,-8.250452,-3.752544,4.255635,0.174097,0.109039,-0.113621,32.15,64.8488833725902
6092,-8.238488,-3.742374,4.262215,0.171653,0.097891,-0.111483,32.15,64.7780027486872
6102,-8.24148,-3.739982,4.259823,0.169668,0.086437,-0.108887,32.17,64.7946338665595
6112,-8.237292,-3.73041,4.25085,0.168752,0.064599,-0.101404,32.17,64.8222221232128
6122,-8.229516,-3.728018,4.25384,0.169057,0.053756,-0.096975,32.17,64.7869973109108
6132,-8.236693,-3.726223,4.253242,0.171653,0.044593,-0.091783,32.19,64.804264070912
6142,-8.245667,-3.709473,4.263412,0.172722,0.035736,-0.087659,32.19,64.7546720063437
6152,-8.245069,-3.69392,4.274179,0.175166,0.026573,-0.082314,32.18,64.6819365280293
6162,-8.23131,-3.696911,4.277769,0.178373,0.018784,-0.078343,32.18,64.6355181254819
6172,-8.237292,-3.689135,4.286144,0.181885,0.012523,-0.075289,32.17,64.5977136444328
6182,-8.226524,-3.686144,4.298706,0.184939,0.007025,-0.071319,32.17,64.505419789089
6192,-8.2349,-3.682554,4.303492,0.188146,0.002902,-0.070402,32.19,64.4958997198636
6202,-8.243872,-3.679563,4.31725,0.191506,-0.000916,-0.068722,32.19,64.441990157085
6212,-8.237292,-3.68375,4.335197,0.195324,-0.002596,-0.068111,32.16,64.3387067493022
6222,-8.228917,-3.669394,4.348357,0.197462,-0.003818,-0.069944,32.16,64.2372885965632
6232,-8.250452,-3.666403,4.362116,0.200517,-0.003054,-0.070402,32.19,64.2123236624504
6242,-8.229516,-3.667001,4.375276,0.201738,-0.002291,-0.073457,32.19,64.0975406204985
6252,-8.221739,-3.655635,4.389633,0.202196,0.000916,-0.076969,32.13,63.9943119009073
6262,-8.22473,-3.655036,4.401597,0.202655,0.003818,-0.081551,32.13,63.9390634203709
6272,-8.230712,-3.649055,4.418347,0.202044,0.008247,-0.08659,32.15,63.8607330497262
6282,-8.221141,-3.654438,4.428516,0.199753,0.014813,-0.099876,32.15,63.7920499625674
6292,-8.219944,-3.662813,4.442276,0.19395,0.029169,-0.10568,32.15,63.7273969139919
6302,-8.207382,-3.656233,4.44048,0.189826,0.036957,-0.112399,32.21,63.7007906508993
6312,-8.205587,-3.652644,4.445267,0.186008,0.045662,-0.119119,32.21,63.6684034086086
6322,-8.194221,-3.672385,4.441677,0.180205,0.053756,-0.12538,32.16,63.6809018440119
6332,-8.196015,-3.673581,4.451249,0.175471,0.062308,-0.131489,32.16,63.6372502213227
6342,-8.194221,-3.669992,4.442873,0.171653,0.07086,-0.13775,32.19,63.6722893392355
6352,-8.18764,-3.678965,4.442276,0.166766,0.080023,-0.142179,32.19,63.6694341340803
6362,-8.182856,-3.685545,4.44048,0.16249,0.088575,-0.14615,32.16,63.6744232468368
6372,-8.184649,-3.692126,4.430909,0.157603,0.096517,-0.15012,32.16,63.7345226059101
6382,-8.17807,-3.692126,4.42732,0.153938,0.104916,-0.152716,32.17,63.7377565270169
6392,-8.163115,-3.698706,4.418945,0.151036,0.111941,-0.155007,32.17,63.7531297875656
6402,-8.164311,-3.710072,4.408776,0.14844,0.119119,-0.155312,32.15,63.8200943108616
6415,-8.165507,-3.716652,4.395017,0.144775,0.131947,-0.156076,32.16,63.9005568022254
6422,-8.165507,-3.716652,4.395017,0.144775,0.131947,-0.156076,32.16,63.9005568022254
6432,-8.163713,-3.732205,4.395615,0.144164,0.137139,-0.154396,32.16,63.9096407184667
6442,-8.160124,-3.732205,4.370491,0.144011,0.142179,-0.152258,32.18,64.0309297465293
6452,-8.1679,-3.749553,4.351946,0.144164,0.146608,-0.149815,32.18,64.1625119517314
6462,-8.168499,-3.756134,4.347161,0.144928,0.151342,-0.142637,32.2,64.1954515264426
6472,-8.179267,-3.765705,4.342973,0.145844,0.15348,-0.138361,32.19,64.2514460895643
6482,-8.188837,-3.766303,4.336392,0.147066,0.153938,-0.134238,32.19,64.3076568923837
6492,-8.18764,-3.779463,4.336392,0.148593,0.154702,-0.129198,32.2,64.3186294074565
6502,-8.196614,-3.768098,4.326822,0.150578,0.153785,-0.123395,32.2,64.3764462544447
6512,-8.201998,-3.778267,4.323831,0.151647,0.152564,-0.118813,32.13,64.4145038511101
6522,-8.192427,-3.781258,4.314857,0.153327,0.150273,-0.112705,32.13,64.4424677775864
6532,-8.209177,-3.790231,4.313063,0.155312,0.147524,-0.107665,32.19,64.4985277156801
6542,-8.206185,-3.783651,4.313661,0.157603,0.143553,-0.102778,32.19,64.4819554252309
6552,-8.204391,-3.789035,4.311867,0.158367,0.13943,-0.097586,32.18,64.4927649095989
6562,-8.206783,-3.791427,4.301697,0.159589,0.134543,-0.093462,32.18,64.5531182624799
6572,-8.233105,-3.792026,4.295715,0.161727,0.129198,-0.088728,32.17,64.6432499246639
6582,-8.22772,-3.784847,4.292126,0.162948,0.122937,-0.08659,32.17,64.6424658626099
6592,-8.23789,-3.786642,4.299902,0.164628,0.116981,-0.083536,32.18,64.6267722126086
6602,-8.235497,-3.791427,4.287939,0.167072,0.110261,-0.080787,32.18,64.6880963447764
6612,-8.242676,-3.790829,4.284947,0.168599,0.102778,-0.07926,32.18,64.7188537160224
6622,-8.232506,-3.783053,4.284349,0.169973,0.095142,-0.078802,32.18,64.6914548704977
6632,-8.249256,-3.774678,4.291527,0.174097,0.08094,-0.07758,32.18,64.6830478709489
6642,-8.249256,-3.769892,4.290331,0.176693,0.07422,-0.078191,32.17,64.6843613323307
6652,-8.252846,-3.777071,4.293921,0.178525,0.067042,-0.080176,32.17,64.6810945523871
6662,-8.252846,-3.756134,4.286742,0.180358,0.060018,-0.081398,32.14,64.696928572581
6672,-8.255836,-3.752544,4.290929,0.182191,0.053909,-0.08262,32.14,64.6783262569988
6682,-8.250452,-3.745964,4.307081,0.184023,0.048258,-0.085063,32.16,64.5763247169181
6692,-8.244471,-3.756134,4.307081,0.186161,0.042761,-0.088117,32.16,64.5732990816155
6702,-8.243872,-3.748357,4.313063,0.187994,0.037874,-0.089797,32.16,64.5332011769241
6712,-8.239684,-3.745365,4.310072,0.18891,0.034361,-0.092546,32.16,64.5362223730694
6722,-8.222337,-3.734598,4.323233,0.190132,0.030543,-0.095753,32.18,64.418408000174
6732,-8.229516,-3.728616,4.332804,0.191659,0.027947,-0.09728,32.18,64.3790850713974
6742,-8.228917,-3.727419,4.331607,0.191659,0.025656,-0.098655,32.17,64.382686761376
6752,-8.225328,-3.719045,4.337589,0.191964,0.023671,-0.099876,32.17,64.3352003569381
6762,-8.216354,-3.719643,4.342973,0.191964,0.023824,-0.101404,32.14,64.2877669297228
6772,-8.206783,-3.702295,4.34417,0.190895,0.023671,-0.102625,32.14,64.2421323805145
6782,-8.193623,-3.70409,4.359723,0.19059,0.024587,-0.102625,32.16,64.1337766031699
6792,-8.204989,-3.699304,4.369893,0.189979,0.025962,-0.102014,32.16,64.1023324960963
6802,-8.194221,-3.69392,4.381258,0.188452,0.031154,-0.099113,32.19,64.0136456733307
6812,-8.193025,-3.697509,4.378268,0.185856,0.034667,-0.096822,32.17,64.0300154169128
6822,-8.182258,-3.682554,4.386642,0.18387,0.039095,-0.094073,32.17,63.9467322352796
6832,-8.166704,-3.678366,4.389035,0.182038,0.043371,-0.09163,32.2,63.8942631513898
6842,-8.173284,-3.683152,4.38724,0.180053,0.048258,-0.088728,32.2,63.9236366248698
6852,-8.179864,-3.679563,4.407579,0.177762,0.053909,-0.085216,32.2,63.8303071304963
6862,-8.172088,-3.678366,4.398008,0.175929,0.059407,-0.082467,32.2,63.8604154220554
6872,-8.17149,-3.685545,4.401597,0.174097,0.065668,-0.079718,32.14,63.8480063497653
6882,-8.162517,-3.675375,4.400401,0.172569,0.071624,-0.075442,32.14,63.8228834952376
6892,-8.167302,-3.686741,4.404588,0.169973,0.078038,-0.074526,32.19,63.8241894848465
6902,-8.181659,-3.677768,4.40399,0.168599,0.083841,-0.072082,32.19,63.8510537301491
6912,-8.180463,-3.678965,4.404588,0.166919,0.090408,-0.07025,32.2,63.8464598749063
6922,-8.177471,-3.686741,4.408776,0.16585,0.09728,-0.069486,32.2,63.826084051307
6932,-8.194221,-3.686741,4.405785,0.164017,0.102778,-0.067959,32.16,63.8800222423606
6942,-8.193025,-3.692724,4.396811,0.162185,0.108276,-0.067959,32.16,63.9296111881178
6952,-8.204989,-3.69392,4.400401,0.160658,0.114079,-0.069639,32.18,63.9398221376582
6962,-8.210373,-3.692724,4.391428,0.160199,0.118508,-0.071013,32.18,63.9970352747249
6972,-8.213365,-3.702893,4.372883,0.158978,0.121409,-0.0759,32.15,64.1097106098075
6982,-8.225926,-3.701099,4.371687,0.156687,0.126144,-0.080176,32.19,64.1426074354173
6992,-8.248059,-3.705286,4.374678,0.156076,0.127824,-0.08491,32.19,64.1817447063693
7002,-8.250452,-3.709473,4.366303,0.15516,0.128434,-0.089492,32.2,64.2344342992837
7012,-8.243275,-3.705286,4.365107,0.153938,0.127824,-0.09499,32.2,64.2200791703157
7022,-8.236693,-3.717848,4.369893,0.152869,0.127824,-0.099266,32.2,64.1933895226501
7032,-8.244471,-3.708277,4.355535,0.151495,0.126907,-0.105374,32.2,64.2750486324517
7042,-8.256434,-3.727419,4.353741,0.150578,0.124769,-0.110719,32.19,64.330708546792
7052,-8.253444,-3.729812,4.345366,0.148898,0.122326,-0.117439,32.19,64.3694633324985
7062,-8.251051,-3.719643,4.347759,0.147982,0.120646,-0.122631,32.18,64.341441890583
7072,-8.246264,-3.734598,4.34417,0.147371,0.117439,-0.126449,32.18,64.3643386211355
7082,-8.249256,-3.739383,4.332804,0.146608,0.115454,-0.130572,32.17,64.4344196055427
7092,-8.243872,-3.732205,4.32742,0.145539,0.113468,-0.133932,32.17,64.4427719318573
7102,-8.24148,-3.737589,4.331009,0.14615,0.110108,-0.137292,32.18,64.424387221062
7112,-8.230712,-3.738187,4.322036,0.145844,0.107054,-0.139583,32.18,64.4470739359884
7122,-8.225328,-3.739383,4.328018,0.145539,0.104153,-0.141568,32.16,64.4053380133049
7132,-8.221141,-3.74058,4.322036,0.146455,0.101404,-0.141415,32.16,64.4280125926405
7142,-8.204989,-3.74058,4.307081,0.146608,0.098502,-0.140499,32.18,64.4689793026547
7152,-8.205587,-3.753142,4.3005,0.149051,0.09163,-0.137139,32.16,64.5172538687289
7162,-8.205587,-3.748955,4.297509,0.151342,0.088423,-0.133474,32.16,64.5284408433731
7172,-8.207382,-3.751348,4.297509,0.153022,0.084758,-0.130114,32.15,64.5349176872394
7182,-8.202596,-3.74058,4.288536,0.154854,0.079718,-0.126296,32.15,64.5596334289788
7192,-8.199606,-3.744768,4.289733,0.156687,0.074831,-0.122631,32.18,64.551009966596
7202,-8.194819,-3.74716,4.281956,0.159589,0.071166,-0.117744,32.18,64.5830486515128
7212,-8.2014,-3.751348,4.282554,0.161727,0.065821,-0.112857,32.17,64.59898075096
7222,-8.203793,-3.742973,4.285545,0.163254,0.060781,-0.109345,32.17,64.5802668380085
7232,-8.215158,-3.735196,4.284349,0.166613,0.054825,-0.104458,32.18,64.6039892516901
7242,-8.199007,-3.734598,4.307679,0.167988,0.049175,-0.100029,32.18,64.4462887003399
7252,-8.204989,-3.739383,4.3005,0.169057,0.044135,-0.096059,32.22,64.5018106930051
7262,-8.217552,-3.731607,4.298706,0.17089,0.039248,-0.093462,32.22,64.5313614940365
7272,-8.218747,-3.732205,4.313063,0.1715,0.03375,-0.091324,32.2,64.4604140909134
7282,-8.224131,-3.739982,4.316054,0.171348,0.030543,-0.089034,32.2,64.4650016298067
7292,-8.22772,-3.726223,4.319045,0.171195,0.026725,-0.086743,32.17,64.443591949784
7302,-8.221141,-3.719045,4.347161,0.170431,0.023213,-0.086132,32.17,64.2763935086668
7312,-8.218747,-3.726821,4.361517,0.168599,0.02138,-0.086132,32.18,64.2050100459639
7322,-8.228318,-3.714857,4.35733,0.166766,0.01909,-0.088117,32.18,64.2359778077791
7332,-8.228318,-3.720839,4.372883,0.162796,0.020006,-0.088575,32.18,64.1621061905016
7342,-8.233703,-3.714857,4.388436,0.159741,0.021686,-0.090103,32.22,64.0883220839678
7352,-8.23131,-3.720241,4.395017,0.157145,0.024893,-0.092088,32.22,64.0546466946698
7362,-8.215158,-3.723232,4.408776,0.153327,0.028405,-0.094379,32.2,63.9503734000248
7372,-8.213365,-3.720241,4.416552,0.150578,0.033139,-0.096364,32.2,63.9033201006241
7382,-8.219944,-3.724428,4.418945,0.147524,0.03879,-0.098655,32.16,63.9104312714248
7392,-8.208578,-3.727419,4.424927,0.144928,0.044593,-0.099113,32.16,63.8569090219285
7402,-8.196614,-3.728616,4.417151,0.142942,0.05116,-0.100335,32.18,63.8706168297885
7412,-8.198408,-3.722036,4.426722,0.141263,0.058032,-0.101862,32.18,63.8188068436761
7422,-8.196015,-3.732804,4.423133,0.140804,0.065973,-0.101709,32.14,63.8429404023386
7432,-8.182258,-3.726821,4.42074,0.140957,0.073151,-0.10064,32.14,63.8174102096654
7442,-8.172686,-3.728616,4.415954,0.140804,0.080481,-0.100793,32.16,63.821877277296
7452,-8.17807,-3.731607,4.409374,0.142484,0.087812,-0.099113,32.16,63.8711691098886
7462,-8.156534,-3.741179,4.392026,0.144775,0.095295,-0.096364,32.17,63.9210868126041
7472,-8.17448,-3.738187,4.38425,0.147066,0.100793,-0.094226,32.17,63.9990559437016
7482,-8.164909,-3.750151,4.375875,0.149815,0.106749,-0.091477,32.16,64.0328708559801
7492,-8.165507,-3.738786,4.367499,0.153785,0.112857,-0.085979,32.16,64.0655398610029
7502,-8.156534,-3.754937,4.370491,0.16081,0.122326,-0.081551,32.14,64.0465501600951
7512,-8.161918,-3.75075,4.35733,0.164781,0.126144,-0.077733,32.19,64.1223550446709
7522,-8.160722,-3.750151,4.35733,0.168599,0.127976,-0.074526,32.19,64.1190060691258
7532,-8.172088,-3.748357,4.339982,0.171653,0.130267,-0.071319,32.17,64.2325835496538
7542,-8.176873,-3.759723,4.344768,0.174707,0.13271,-0.068875,32.17,64.2305326261759
7552,-8.179267,-3.745365,4.335197,0.176693,0.132863,-0.067042,32.17,64.2704767185734
7562,-8.175676,-3.756732,4.331009,0.178831,0.132863,-0.063988,32.17,64.2957991385282
7572,-8.189436,-3.755535,4.325625,0.180053,0.132558,-0.063225,32.13,64.3534643447713
7582,-8.195418,-3.74716,4.329813,0.180358,0.131336,-0.062461,32.13,64.3366699669194
7592,-8.209177,-3.746562,4.319643,0.179747,0.129962,-0.062461,32.17,64.4195938582167
7602,-8.209774,-3.745365,4.325027,0.179747,0.127365,-0.062461,32.17,64.3919024363833
7612,-8.21157,-3.751348,4.320839,0.177456,0.124158,-0.062461,32.17,64.4237125440763
7622,-8.225926,-3.744169,4.323831,0.175013,0.120493,-0.063683,32.17,64.4331732763727
7632,-8.219346,-3.74058,4.323831,0.171959,0.117439,-0.06353,32.16,64.4147111113614
7642,-8.230114,-3.731009,4.313661,0.168904,0.113468,-0.065668,32.16,64.4816440990582
7652,-8.230712,-3.731009,4.314259,0.16585,0.109192,-0.067653,32.14,64.4798988405619
7662,-8.254042,-3.717848,4.317849,0.161574,0.103847,-0.069333,32.14,64.5003782177634
7672,-8.264212,-3.718446,4.308277,0.154396,0.092546,-0.074067,32.17,64.5731104358607
7682,-8.260622,-3.705884,4.311268,0.150578,0.08659,-0.0759,32.18,64.5370133495103
7692,-8.260024,-3.716652,4.313661,0.147219,0.080481,-0.07758,32.18,64.5341703957248
7702,-8.291131,-3.71067,4.308277,0.143248,0.072998,-0.082009,32.16,64.6254163359202
7712,-8.276773,-3.705884,4.32742,0.138972,0.066584,-0.084605,32.16,64.4899903203984
7722,-8.270193,-3.698107,4.314259,0.137597,0.060934,-0.087048,32.16,64.5352328812251
7732,-8.269596,-3.695715,4.311867,0.134238,0.053451,-0.090255,32.16,64.5438317655043
7742,-8.276175,-3.680161,4.318447,0.1321,0.047342,-0.093157,32.13,64.5091125349875
7752,-8.280362,-3.689733,4.323233,0.130572,0.040623,-0.096211,32.13,64.5034154850945
7762,-8.28455,-3.680759,4.326224,0.13042,0.035277,-0.099266,32.18,64.4884538404016
7772,-8.278568,-3.688536,4.319643,0.130114,0.030085,-0.101404,32.18,64.5166854140237
7782,-8.2678,-3.674777,4.328616,0.129503,0.025351,-0.104305,32.16,64.4324851163287
7792,-8.262416,-3.675375,4.339384,0.130725,0.021686,-0.106749,32.16,64.365469185951
7802,-8.260024,-3.678965,4.331009,0.131336,0.018326,-0.109345,32.14,64.4068256580802
7812,-8.260024,-3.675974,4.339384,0.131183,0.016188,-0.111941,32.14,64.3606692169319
7822,-8.247462,-3.682554,4.35075,0.132863,0.014661,-0.114537,32.15,64.280360167796
7832,-8.220542,-3.677171,4.348357,0.134848,0.013439,-0.117286,32.15,64.2261432607594
7842,-8.218149,-3.678366,4.356134,0.136528,0.015424,-0.119119,32.17,64.1818010995903
7852,-8.197212,-3.679563,4.356732,0.139583,0.01741,-0.120646,32.15,64.1321931811254
7862,-8.193623,-3.678366,4.363312,0.142026,0.020006,-0.12202,32.15,64.0887955165249
7872,-8.193025,-3.687938,4.372285,0.144011,0.023366,-0.120951,32.18,64.0509831173449
7882,-8.17448,-3.69392,4.367499,0.14676,0.026573,-0.120188,32.18,64.0393966320458
7892,-8.164909,-3.691527,4.371687,0.148135,0.032529,-0.11973,32.15,63.9933383977861
7902,-8.163115,-3.701697,4.378866,0.15012,0.037874,-0.117897,32.15,63.9627292288736
7912,-8.154141,-3.703491,4.378866,0.152564,0.043371,-0.116523,32.14,63.9439832307755
7922,-8.159525,-3.711268,4.379463,0.153938,0.04948,-0.114079,32.14,63.9613854513178
7932,-8.14457,-3.718446,4.378866,0.153938,0.055894,-0.111941,32.14,63.9376383774
7942,-8.148159,-3.714857,4.393821,0.154396,0.062156,-0.107512,32.14,63.8649522930615
7952,-8.147561,-3.718446,4.379463,0.153785,0.068417,-0.104153,32.16,63.9414265724318
7962,-8.143373,-3.733402,4.388436,0.15348,0.074984,-0.101251,32.16,63.9012157107242
7972,-8.146365,-3.727419,4.381856,0.153174,0.080481,-0.097738,32.15,63.9357429318401
7982,-8.143971,-3.736991,4.390232,0.152869,0.085216,-0.095142,32.15,63.8971071113629
7992,-8.150552,-3.74058,4.383053,0.150731,0.090255,-0.092546,32.18,63.952998578039
8002,-8.158927,-3.745365,4.378866,0.148746,0.094073,-0.089797,32.18,63.9987761463091
8012,-8.181061,-3.754937,4.374678,0.14676,0.098502,-0.085674,32.17,64.0808315944731
8022,-8.194819,-3.754937,4.378866,0.141721,0.104763,-0.083994,32.14,64.0905483653557
8032,-8.200203,-3.75733,4.377669,0.139583,0.106749,-0.083689,32.14,64.1114121571655
8042,-8.205587,-3.765106,4.377071,0.13607,0.107207,-0.083383,32.16,64.1347681060354
8052,-8.209774,-3.771687,4.371687,0.133169,0.108276,-0.084452,32.16,64.1787387552936
8062,-8.226524,-3.772883,4.372883,0.13042,0.109498,-0.085216,32.14,64.2116364046895
8072,-8.228318,-3.765106,4.366901,0.128129,0.10965,-0.086285,32.14,64.2383623925511
8082,-8.229516,-3.775276,4.357928,0.12538,0.108734,-0.08827,32.16,64.2976385953876
8092,-8.238488,-3.77049,4.360919,0.123395,0.107512,-0.088423,32.16,64.2975117604674
8102,-8.242078,-3.768696,4.352544,0.121715,0.106901,-0.090255,32.2,64.3467420165032
8112,-8.231908,-3.781856,4.347759,0.120493,0.104763,-0.092088,32.2,64.362050006218
8122,-8.236693,-3.785445,4.354938,0.12034,0.103084,-0.094379,32.18,64.3395884239494
8132,-8.240283,-3.779463,4.348357,0.119882,0.102778,-0.09499,32.18,64.3752832237859
8142,-8.239684,-3.779463,4.35075,0.120646,0.099876,-0.095448,32.19,64.3616469325276
8152,-8.230712,-3.777071,4.341179,0.121715,0.098044,-0.096059,32.19,64.3882823174177
8162,-8.225926,-3.789035,4.341179,0.122937,0.09728,-0.094226,32.18,64.3898833672734
8172,-8.221141,-3.774678,4.334,0.124617,0.095448,-0.093157,32.18,64.401317137543
8182,-8.199606,-3.768098,4.31725,0.126755,0.093615,-0.091783,32.18,64.4326124139987
8192,-8.21157,-3.774678,4.323831,0.133474,0.090408,-0.086285,32.16,64.4322742582172
8202,-8.19781,-3.77049,4.322634,0.136834,0.089339,-0.082467,32.16,64.403236253835
8212,-8.188837,-3.752544,4.31067,0.140041,0.087506,-0.078954,32.17,64.4263692684531
8222,-8.179267,-3.762115,4.304688,0.143401,0.085521,-0.074526,32.17,64.4456919633538
8232,-8.191828,-3.76391,4.298108,0.147677,0.083383,-0.069028,32.2,64.5098461777374
8242,-8.188837,-3.749553,4.301697,0.151953,0.080481,-0.066279,32.2,64.4697455992647
8252,-8.195418,-3.741179,4.302295,0.155007,0.077274,-0.062308,32.14,64.4728404686986
8262,-8.195418,-3.736991,4.301697,0.158061,0.073762,-0.059254,32.14,64.4716379084133
8272,-8.187043,-3.737589,4.301697,0.160963,0.07086,-0.0562,32.21,64.4533914383521
8282,-8.197212,-3.731009,4.294518,0.163254,0.067195,-0.052993,32.21,64.5067401168535
8292,-8.200802,-3.714259,4.3005,0.166003,0.063225,-0.051313,32.17,64.4666957121256
8302,-8.210971,-3.71067,4.295715,0.167377,0.058796,-0.050855,32.17,64.5107406719677
8312,-8.222935,-3.704688,4.3005,0.168599,0.054062,-0.050091,32.19,64.5068122852554
8322,-8.218747,-3.699902,4.31067,0.168599,0.049175,-0.050702,32.19,64.439891896569
8332,-8.233105,-3.690929,4.314857,0.168446,0.04383,-0.05116,32.17,64.4415368023776
8342,-8.243872,-3.7005,4.322634,0.167683,0.039706,-0.053145,32.17,64.4353159160316
8352,-8.248658,-3.691527,4.334,0.167224,0.036499,-0.055589,32.15,64.3784216672361
8362,-8.251051,-3.675375,4.343571,0.165697,0.028405,-0.062919,32.15,64.3182113503642
8372,-8.246863,-3.668795,4.353741,0.16081,0.026725,-0.066279,32.18,64.2496987111912
8382,-8.252846,-3.669992,4.351348,0.158061,0.023671,-0.070097,32.18,64.2767972476956
8392,-8.251051,-3.671188,4.365705,0.15516,0.022297,-0.074067,32.18,64.2000561051333
8402,-8.245667,-3.66401,4.359125,0.151036,0.021991,-0.077733,32.15,64.2144282801601
8416,-8.262416,-3.67418,4.370491,0.147066,0.022297,-0.081856,32.15,64.2042763822011
8422,-8.245667,-3.665206,4.380062,0.143401,0.023671,-0.085674,32.19,64.107947414822
8432,-8.243275,-3.659224,4.390232,0.139277,0.025351,-0.089034,32.19,64.0441775715232
8442,-8.229516,-3.665804,4.393223,0.135612,0.0281,-0.091324,32.19,64.0040392997613
8452,-8.224131,-3.678366,4.397409,0.131794,0.03146,-0.093157,32.19,63.9830440618279
8462,-8.226524,-3.677171,4.394419,0.127671,0.035125,-0.095906,32.16,64.0026540948076
8472,-8.216354,-3.677171,4.404588,0.125075,0.040012,-0.097738,32.16,63.9271323292206
8482,-8.213962,-3.685545,4.398008,0.121868,0.044899,-0.098807,32.16,63.9640501353438
8492,-8.191828,-3.678965,4.39083,0.11973,0.050702,-0.098349,32.16,63.9434351850743
8502,-8.200203,-3.690929,4.398606,0.11805,0.055131,-0.099876,32.18,63.9349908482629
8512,-8.203195,-3.692126,4.393821,0.116523,0.060934,-0.09896,32.18,63.9676865872999
8522,-8.17807,-3.699304,4.385446,0.114995,0.066737,-0.098655,32.13,63.9606318740849
8532,-8.17448,-3.707081,4.387838,0.114995,0.072235,-0.097128,32.13,63.9481515254068
8542,-8.173882,-3.711268,4.38425,0.115148,0.082009,-0.095448,32.16,63.9696245107536
8552,-8.188837,-3.71067,4.376472,0.115301,0.085521,-0.095142,32.16,64.0432998721441
8562,-8.182856,-3.712464,4.371687,0.116064,0.090103,-0.093921,32.16,64.0561571079256
8572,-8.181659,-3.725027,4.368098,0.11805,0.093768,-0.093615,32.16,64.0849613748417
8582,-8.182856,-3.739383,4.365705,0.120035,0.096517,-0.092088,32.16,64.1149387929945
8592,-8.178668,-3.736392,4.365705,0.120799,0.09896,-0.091172,32.14,64.1022957674822
8602,-8.17807,-3.74716,4.357928,0.12202,0.101098,-0.091477,32.14,64.1522516895329
8612,-8.187043,-3.745964,4.350152,0.124158,0.103389,-0.090408,32.16,64.2114884127809
8622,-8.193025,-3.741179,4.351946,0.125533,0.103847,-0.089644,32.16,64.2108365476073
8632,-8.188239,-3.748955,4.354339,0.127365,0.105222,-0.089797,32.17,64.195706401091
8642,-8.193623,-3.759125,4.346562,0.128282,0.104305,-0.090255,32.17,64.2585473645419
8652,-8.191828,-3.753142,4.341777,0.129351,0.104458,-0.089186,32.14,64.272974494066
8662,-8.200802,-3.754937,4.339384,0.131947,0.104305,-0.088728,32.14,64.3074459913374
8672,-8.210373,-3.761517,4.329813,0.133016,0.102931,-0.089186,32.18,64.3851645143053
8682,-8.202596,-3.764508,4.325625,0.133474,0.102473,-0.090408,32.18,64.3923732608939
8692,-8.20798,-3.767499,4.319643,0.13439,0.10064,-0.089492,32.16,64.4384363580669
8702,-8.216354,-3.753142,4.323831,0.135154,0.098807,-0.089186,32.16,64.4208609174789
8712,-8.216953,-3.758526,4.324429,0.135765,0.093921,-0.089339,32.2,64.424648606347
8722,-8.22473,-3.75733,4.322634,0.136223,0.091324,-0.089797,32.16,64.450133270898
8732,-8.225926,-3.75075,4.313063,0.137597,0.089339,-0.089797,32.16,64.4954697533138
8742,-8.226524,-3.751348,4.316652,0.136376,0.085063,-0.091019,32.18,64.4788962086464
8752,-8.233703,-3.750151,4.319643,0.135918,0.082009,-0.090255,32.18,64.4783332830913
8762,-8.231908,-3.744768,4.319643,0.135154,0.078496,-0.08995,32.19,64.46881630101
8772,-8.229516,-3.752544,4.31725,0.133474,0.074526,-0.090255,32.19,64.4837386083793
8782,-8.242078,-3.751348,4.320241,0.132558,0.070555,-0.090713,32.15,64.4952253917054
8792,-8.239087,-3.732804,4.32742,0.130267,0.065821,-0.091019,32.15,64.4326360818133
8802,-8.246264,-3.738187,4.319643,0.129351,0.060934,-0.091935,32.15,64.4942951881987
8812,-8.239087,-3.738786,4.311867,0.127671,0.056658,-0.092241,32.15,64.518935261129
8822,-8.246264,-3.735795,4.316054,0.125838,0.051465,-0.091783,32.15,64.5103716694742
8832,-8.240881,-3.723232,4.321437,0.124617,0.046884,-0.09331,32.15,64.4577881496777
8842,-8.245667,-3.727419,4.331607,0.123395,0.042455,-0.093921,32.16,64.4203683516112
8852,-8.256434,-3.732804,4.323831,0.121562,0.037721,-0.09331,32.16,64.4900357751788
8862,-8.239087,-3.728616,4.325027,0.12034,0.032987,-0.093921,32.19,64.4407129206372
8872,-8.221739,-3.728616,4.326224,0.120646,0.029627,-0.093157,32.19,64.395511893069
8882,-8.226524,-3.724428,4.322036,0.119424,0.02306,-0.091477,32.16,64.4236309993199
8892,-8.213962,-3.714857,4.331009,0.120493,0.020464,-0.089492,32.2,64.3391995514961
8902,-8.205587,-3.724428,4.338786,0.121104,0.018479,-0.088728,32.2,64.2899149215145
8912,-8.20798,-3.713661,4.336392,0.122631,0.018021,-0.08659,32.17,64.2966459181575
8922,-8.193623,-3.726821,4.342973,0.124617,0.017104,-0.084452,32.17,64.2436603280878
8932,-8.176873,-3.726821,4.34058,0.126755,0.018326,-0.081398,32.15,64.2180020190378
8942,-8.172088,-3.729214,4.348955,0.128893,0.01909,-0.078038,32.15,64.166315864027
8952,-8.165507,-3.729214,4.363312,0.131336,0.020922,-0.074831,32.15,64.0771609417644
8962,-8.164311,-3.716652,4.355535,0.134085,0.024129,-0.070402,32.15,64.101525236947
8972,-8.172686,-3.722634,4.371089,0.136987,0.028405,-0.06689,32.13,64.0465691390307
8982,-8.16132,-3.716054,4.385446,0.13943,0.032223,-0.062919,32.13,63.9396418303646
8992,-8.166704,-3.716054,4.368696,0.141415,0.036957,-0.058948,32.14,64.0383924459018
9002,-8.154739,-3.722036,4.384848,0.144164,0.043371,-0.054825,32.14,63.9338808085269
9012,-8.159525,-3.726223,4.389035,0.145539,0.048564,-0.052534,32.14,63.9276615619291
9022,-8.164311,-3.73041,4.395615,0.148288,0.054367,-0.050244,32.14,63.9091307710559
9032,-8.166105,-3.723232,4.387838,0.149204,0.060934,-0.047342,32.16,63.9457877583552
9042,-8.175079,-3.729214,4.399803,0.150578,0.067042,-0.046273,32.16,63.9110109582552
9052,-8.182856,-3.729214,4.398008,0.151189,0.07926,-0.044135,32.17,63.9380491378056
9062,-8.187043,-3.734598,4.393223,0.151647,0.085063,-0.04444,32.18,63.97783524224
9072,-8.188837,-3.729812,4.389035,0.150578,0.090103,-0.045968,32.18,63.9984877868064
9082,-8.198408,-3.726223,4.396214,0.149051,0.094226,-0.048258,32.16,63.979707059548
9092,-8.208578,-3.731009,4.386642,0.147524,0.098349,-0.050091,32.16,64.0570306296352
9102,-8.218149,-3.729812,4.387838,0.144928,0.102167,-0.053603,32.16,64.0714202293777
9112,-8.219944,-3.737589,4.377071,0.143553,0.105069,-0.056505,32.16,64.1388193573945
9122,-8.219944,-3.734598,4.388436,0.140804,0.10736,-0.059865,32.11,64.0773679205333
9132,-8.230114,-3.729812,4.378268,0.137903,0.10797,-0.064904,32.11,64.1477215845676
9142,-8.2349,-3.72383,4.372285,0.135307,0.108734,-0.069486,32.17,64.1831594928911
9152,-8.225926,-3.728018,4.366901,0.133169,0.109192,-0.073609,32.17,64.1948023909305
9162,-8.246264,-3.729214,4.357928,0.129809,0.108276,-0.077733,32.17,64.2881099271309
9172,-8.24148,-3.736991,4.360321,0.126907,0.107207,-0.083078,32.17,64.2729661700159
9182,-8.231908,-3.736392,4.351348,0.12538,0.106138,-0.086896,32.15,64.2969070897311
9192,-8.237292,-3.721437,4.339982,0.122937,0.104153,-0.090255,32.15,64.352294875267
9202,-8.24148,-3.721437,4.342375,0.12034,0.102167,-0.093157,32.18,64.3494093487471
9212,-8.238488,-3.731009,4.323831,0.117897,0.099266,-0.0956,32.18,64.447967925204
9222,-8.230712,-3.726223,4.325625,0.115606,0.095906,-0.10064,32.16,64.4163631896975
9232,-8.219346,-3.716652,4.328616,0.112094,0.090103,-0.10064,32.15,64.3655508396383
9242,-8.213365,-3.726821,4.318447,0.110872,0.087201,-0.10064,32.15,64.4149765839623
9252,-8.218747,-3.716054,4.302894,0.110872,0.08323,-0.099876,32.19,64.4965416907279
9262,-8.209177,-3.72383,4.312464,0.109498,0.079871,-0.098349,32.19,64.4334144228517
9272,-8.21157,-3.719643,4.304688,0.108581,0.075747,-0.096211,32.17,64.4747622568956
9282,-8.206185,-3.716652,4.296313,0.109039,0.071777,-0.094379,32.17,64.502960901239
9292,-8.20798,-3.713063,4.30409,0.108887,0.067806,-0.091783,32.14,64.4630614160471
9302,-8.222935,-3.713063,4.299304,0.108887,0.063683,-0.088728,32.14,64.521497484708
9312,-8.215158,-3.706482,4.301697,0.110567,0.059559,-0.085979,32.13,64.4849271165023
9322,-8.224131,-3.705286,4.313063,0.112246,0.055589,-0.082314,32.13,64.4451248219573
9332,-8.22473,-3.713661,4.31067,0.112552,0.05116,-0.079565,32.16,64.4673523959553
9342,-8.22473,-3.71067,4.314259,0.114079,0.046426,-0.077122,32.16,64.445761510697
9352,-8.231908,-3.703491,4.315455,0.115759,0.042913,-0.074984,32.16,64.4484645601561
9362,-8.219346,-3.703491,4.316054,0.117744,0.038637,-0.073151,32.16,64.41704520627
9372,-8.238488,-3.715455,4.317849,0.119577,0.034972,-0.07254,32.17,64.4630355002311
9382,-8.233105,-3.707679,4.323831,0.120493,0.03146,-0.072235,32.17,64.4121539002006
9392,-8.233105,-3.701099,4.331009,0.123089,0.027947,-0.071929,32.14,64.3684318530468
9402,-8.234302,-3.706482,4.334598,0.127365,0.022907,-0.072693,32.14,64.3580880110977
9412,-8.234302,-3.697509,4.34058,0.12874,0.020311,-0.074526,32.16,64.3181294336773
9422,-8.244471,-3.706482,4.345964,0.130878,0.018479,-0.076205,32.12,64.3224792438105
9432,-8.246863,-3.702893,4.352544,0.131489,0.017562,-0.079412,32.12,64.2903737807138
9442,-8.252247,-3.71067,4.350152,0.132558,0.017104,-0.082467,32.17,64.3227234187366
9452,-8.242078,-3.705286,4.360321,0.13271,0.017257,-0.085979,32.17,64.2419775217378
9462,-8.240283,-3.708277,4.365705,0.132558,0.017562,-0.090103,32.2,64.2132756129836
9472,-8.22473,-3.713063,4.375276,0.133169,0.018784,-0.092546,32.2,64.1336877567904
9482,-8.221739,-3.708277,4.375875,0.133016,0.021075,-0.096211,32.16,64.1189008510644
9492,-8.221141,-3.720839,4.381258,0.131794,0.023824,-0.098655,32.16,64.1027752840273
9502,-8.200203,-3.724428,4.381258,0.131183,0.026114,-0.101862,32.15,64.058831604702
9512,-8.209774,-3.719045,4.384848,0.129656,0.029016,-0.104458,32.15,64.05661298211
9522,-8.202596,-3.719045,4.389633,0.127976,0.032834,-0.106749,32.18,64.0156501716693
9532,-8.183454,-3.728616,4.384848,0.125838,0.036194,-0.109039,32.18,64.006495510148
9542,-8.184649,-3.74058,4.393223,0.124311,0.04047,-0.108734,32.19,63.9786055025925
9552,-8.187043,-3.742374,4.38724,0.122784,0.04444,-0.109345,32.19,64.0167046894798
9562,-8.17807,-3.749553,4.382454,0.121868,0.049786,-0.108429,32.18,64.0283675448859
9572,-8.158927,-3.749553,4.383651,0.119577,0.059559,-0.104916,32.18,63.9785098339671
9582,-8.16132,-3.753741,4.383053,0.117439,0.063988,-0.102473,32.16,63.991457200775
9592,-8.158927,-3.758526,4.383053,0.116675,0.069333,-0.099113,32.14,63.9910223421507
9602,-8.152946,-3.765705,4.379463,0.11637,0.073457,-0.09499,32.14,64.0034284715963
9612,-8.143373,-3.766901,4.381258,0.115148,0.078038,-0.090408,32.12,63.9735769453572
9622,-8.150552,-3.761517,4.371687,0.115912,0.082314,-0.086437,32.12,64.0336530910524
9632,-8.154739,-3.77408,4.365107,0.115912,0.087506,-0.08094,32.13,64.0903617587667
9642,-8.145766,-3.772883,4.369295,0.116981,0.091172,-0.075442,32.13,64.0470640561034
9652,-8.155338,-3.762714,4.364508,0.117286,0.0956,-0.069333,32.16,64.0828631690737
9662,-8.163713,-3.771687,4.358526,0.118508,0.09896,-0.064446,32.16,64.1421899338865
9672,-8.167302,-3.775276,4.35733,0.120188,0.101862,-0.058643,32.19,64.1602650128768
9682,-8.162517,-3.771687,4.359125,0.12202,0.104153,-0.052993,32.19,64.1363842220317
9692,-8.176873,-3.781258,4.35733,0.122631,0.105985,-0.048564,32.15,64.1882086413603
9702,-8.176873,-3.768098,4.341179,0.124311,0.107054,-0.04444,32.15,64.2577869869315
9712,-8.194221,-3.771687,4.34417,0.125838,0.107818,-0.040623,32.18,64.2852648495078
9722,-8.210373,-3.766901,4.347161,0.127824,0.108276,-0.037721,32.18,64.3013027540861
9732,-8.218149,-3.76391,4.346562,0.129503,0.107818,-0.036041,32.19,64.3188090889133
9742,-8.230114,-3.762714,4.344768,0.131641,0.107818,-0.035125,32.19,64.3537177535926
9752,-8.239087,-3.742374,4.341179,0.134238,0.104305,-0.035888,32.18,64.3715221519909
9762,-8.248059,-3.748357,4.326822,0.134848,0.103236,-0.036957,32.15,64.4716646730923
9772,-8.261818,-3.742374,4.333402,0.135612,0.100487,-0.038637,32.15,64.4625265040589
9782,-8.253444,-3.746562,4.331607,0.135918,0.098197,-0.040623,32.16,64.4572647470065
9792,-8.254042,-3.745365,4.338188,0.13607,0.094531,-0.04444,32.16,64.4235311737544
9802,-8.248658,-3.739383,4.337589,0.136223,0.091935,-0.049022,32.18,64.408449729273
9812,-8.266006,-3.726821,4.328018,0.135765,0.08827,-0.054062,32.18,64.4838660153954
9822,-8.268997,-3.727419,4.332804,0.135459,0.084605,-0.058643,32.16,64.4665453859443
9832,-8.267202,-3.715455,4.326224,0.13439,0.080787,-0.063225,32.16,64.4843173428757
9842,-8.263015,-3.714857,4.311268,0.133016,0.077274,-0.068417,32.2,64.5513982045596
9852,-8.261818,-3.712464,4.322634,0.131794,0.072998,-0.07422,32.2,64.4877217369356
9862,-8.268997,-3.708875,4.319045,0.129809,0.069028,-0.078496,32.17,64.518693238832
9872,-8.250452,-3.699902,4.31725,0.128587,0.064599,-0.083078,32.17,64.4772986346539
9882,-8.261221,-3.690929,4.310072,0.127518,0.06017,-0.08659,32.16,64.5295108227234
9892,-8.238488,-3.693322,4.309474,0.126602,0.055589,-0.090713,32.16,64.4839049565323
9902,-8.250452,-3.693322,4.307679,0.125075,0.051771,-0.093157,32.2,64.5200861295623
9912,-8.239684,-3.684349,4.301697,0.123853,0.046731,-0.096059,32.2,64.5177670179879
9922,-8.23789,-3.683152,4.298108,0.123242,0.036499,-0.099724,32.17,64.5310950443368
9932,-8.234302,-3.685545,4.309474,0.122631,0.03207,-0.100029,32.19,64.4666259171346
9942,-8.221739,-3.68375,4.307081,0.121868,0.027794,-0.100182,32.19,64.4488441502667
9952,-8.216953,-3.680759,4.303492,0.121868,0.023366,-0.098502,32.14,64.4535905497914
9962,-8.22473,-3.693322,4.310072,0.121868,0.018479,-0.097891,32.14,64.4498089350672
9972,-8.213962,-3.676572,4.314857,0.122326,0.014813,-0.096364,32.16,64.3837287386993
9982,-8.206185,-3.681956,4.319643,0.121409,0.011606,-0.094531,32.16,64.3467945420758
9992,-8.202596,-3.681358,4.316652,0.121562,0.008705,-0.092088,32.18,64.3535310541378
10002,-8.205587,-3.687938,4.33041,0.121257,0.006872,-0.08827,32.18,64.2958299396961
10012,-8.2014,-3.678965,4.34417,0.121257,0.004887,-0.085674,32.15,64.2060181307164
10022,-8.189436,-3.677171,4.352544,0.121715,0.003665,-0.082467,32.15,64.1336054098688
10032,-8.19123,-3.687938,4.356134,0.120951,0.003818,-0.078954,32.17,64.1302182320459
10042,-8.196614,-3.698706,4.356134,0.121409,0.005498,-0.076205,32.17,64.1535697246867
10052,-8.200802,-3.690331,4.377669,0.121104,0.008094,-0.072846,32.18,64.0434886088699
10062,-8.193623,-3.702893,4.382454,0.12034,0.010385,-0.070708,32.18,64.0153843317497
10072,-8.19781,-3.702295,4.38425,0.119577,0.014355,-0.067653,32.16,64.0150948950366
10082,-8.196614,-3.71725,4.399803,0.119271,0.018937,-0.065973,32.16,63.9478558170779
10092,-8.185846,-3.71725,4.395017,0.118813,0.029932,-0.063072,32.15,63.9478170531165
10102,-8.185846,-3.721437,4.411767,0.117897,0.036957,-0.062766,32.15,63.8660871322108
10112,-8.186445,-3.725625,4.41416,0.117286,0.042761,-0.064294,32.15,63.8595426146329
10122,-8.188239,-3.734598,4.409972,0.116523,0.050855,-0.063988,32.13,63.8945183095181
10132,-8.186445,-3.737589,4.415356,0.116217,0.058643,-0.065668,32.13,63.8659019402316
10142,-8.179864,-3.739383,4.418945,0.115759,0.065973,-0.065973,32.18,63.8342817262177
10152,-8.197212,-3.744768,4.416552,0.115606,0.073609,-0.06857,32.18,63.8918999343053
10162,-8.193623,-3.754937,4.406981,0.113774,0.08094,-0.072082,32.18,63.9434128019279
10172,-8.199606,-3.755535,4.415954,0.113926,0.087659,-0.074831,32.18,63.9116758350369
10182,-8.19123,-3.749553,4.401597,0.113774,0.093921,-0.077427,32.16,63.9599635706582
10192,-8.193623,-3.756732,4.399205,0.112552,0.100335,-0.080329,32.16,63.9851946292183
10202,-8.191828,-3.764508,4.388436,0.112246,0.104611,-0.085063,32.14,64.0445384694097
10212,-8.200203,-3.75733,4.388436,0.111636,0.109345,-0.088117,32.14,64.0560837741917
10222,-8.202596,-3.767499,4.383053,0.111483,0.113163,-0.091172,32.12,64.0997486109946
10232,-8.196015,-3.765106,4.368098,0.111177,0.116064,-0.094837,32.12,64.1592330111828
10242,-8.206185,-3.77049,4.360919,0.111177,0.117744,-0.097586,32.13,64.2247567206914
10252,-8.19781,-3.758526,4.345366,0.110261,0.118508,-0.099418,32.13,64.2735530446942
10262,-8.199007,-3.771089,4.334,0.10965,0.118355,-0.104305,32.18,64.347879875164
10272,-8.212168,-3.766901,4.32742,0.109192,0.11637,-0.104611,32.12,64.4070881642749
10282,-8.212766,-3.764508,4.322036,0.10965,0.114537,-0.105222,32.12,64.4337462279849
10292,-8.200802,-3.768696,4.309474,0.108429,0.111177,-0.104,32.17,64.4761015165792
10302,-8.215756,-3.763312,4.307081,0.108581,0.107054,-0.102473,32.17,64.516443919476
10312,-8.204391,-3.757928,4.307081,0.109345,0.103389,-0.100793,32.2,64.4854427824138
10322,-8.208578,-3.748955,4.301099,0.110108,0.098807,-0.096975,32.2,64.516570904724
10332,-8.199606,-3.758526,4.3005,0.110872,0.093615,-0.09331,32.14,64.5093682357754
10342,-8.210373,-3.758526,4.3005,0.111788,0.087048,-0.089034,32.14,64.5335018418834
10352,-8.213365,-3.757928,4.298108,0.112705,0.081856,-0.084605,32.16,64.5519597585247
10362,-8.215756,-3.75075,4.293322,0.113926,0.075747,-0.079565,32.16,64.574729040903
10372,-8.215158,-3.750151,4.282554,0.114537,0.069944,-0.074373,32.15,64.6285284086661
10382,-8.217552,-3.745964,4.283751,0.116217,0.064141,-0.069028,32.15,64.6234104195415
10392,-8.213365,-3.739383,4.291527,0.117744,0.057574,-0.064141,32.17,64.5670611565938
10402,-8.221739,-3.746562,4.297509,0.118661,0.052382,-0.059559,32.17,64.5621845255574
10412,-8.22473,-3.726223,4.290331,0.121409,0.047647,-0.054672,32.21,64.5853268046072
10422,-8.225926,-3.729812,4.301099,0.123242,0.041692,-0.050396,32.21,64.5359420393664
10432,-8.225328,-3.717848,4.310072,0.124617,0.036346,-0.046273,32.14,64.4760445774283
10442,-8.237292,-3.715455,4.322634,0.127213,0.027642,-0.041386,32.14,64.4356518243158
10452,-8.242676,-3.711268,4.320839,0.128587,0.023671,-0.04047,32.14,64.4527796189295
10462,-8.244471,-3.707081,4.329813,0.129503,0.020159,-0.039859,32.17,64.4062960769942
10472,-8.243275,-3.714857,4.331009,0.129503,0.017257,-0.039706,32.17,64.405319229788
10482,-8.247462,-3.704688,4.34417,0.13042,0.015577,-0.039706,32.18,64.3366469173544
10492,-8.2349,-3.704688,4.347759,0.130878,0.013286,-0.041844,32.18,64.2897846820255
10502,-8.242078,-3.703491,4.359723,0.130114,0.011606,-0.043982,32.14,64.2432270704055
10512,-8.245069,-3.701697,4.360321,0.129503,0.011148,-0.047495,32.14,64.245097831382
10522,-8.245667,-3.701099,4.360919,0.12874,0.011301,-0.05116,32.16,64.2427686319813
10532,-8.236095,-3.7005,4.376472,0.128587,0.011912,-0.054825,32.16,64.1405056099419
10542,-8.234302,-3.691527,4.375875,0.127671,0.012828,-0.057727,32.14,64.1303434140687
10552,-8.240881,-3.705884,4.378268,0.126907,0.014813,-0.062156,32.14,64.1476419819172
10562,-8.228917,-3.693322,4.375276,0.125686,0.016035,-0.066584,32.2,64.1230032598039
10572,-8.22473,-3.711866,4.38066,0.124464,0.019242,-0.071319,32.2,64.1047878949449
10582,-8.221141,-3.699902,4.389633,0.122631,0.022907,-0.07422,32.13,64.0382316237579
10592,-8.214561,-3.699902,4.388436,0.121715,0.026573,-0.07758,32.13,64.0293674215035
10602,-8.18764,-3.707679,4.38724,0.120951,0.030085,-0.08094,32.16,63.9820078310004
10612,-8.200203,-3.712464,4.383053,0.12034,0.039706,-0.086437,32.16,64.0372249549171
10622,-8.187043,-3.711268,4.38724,0.118813,0.04444,-0.087506,32.17,63.9843631236395
10632,-8.177471,-3.717848,4.399803,0.117439,0.048717,-0.089492,32.22,63.9046283092827
10642,-8.176275,-3.720241,4.386044,0.116981,0.054214,-0.089034,32.22,63.9752037583125
10652,-8.173882,-3.732205,4.38425,0.117133,0.058948,-0.088881,32.18,63.9914436089771
10662,-8.155936,-3.716054,4.383651,0.116981,0.063683,-0.087354,32.18,63.9365406907033
10672,-8.170892,-3.735795,4.377669,0.117286,0.068722,-0.086132,32.16,64.0222649406513
10682,-8.158329,-3.726223,4.375276,0.117897,0.073609,-0.084452,32.16,63.9958745088743
10692,-8.167302,-3.726223,4.375875,0.11805,0.077122,-0.081856,32.17,64.0133180415245
10702,-8.158329,-3.735795,4.372285,0.119271,0.081551,-0.080176,32.17,64.0213240948312
10712,-8.157133,-3.742374,4.365705,0.120188,0.085979,-0.0759,32.15,64.0594421535734
10722,-8.154739,-3.739982,4.356134,0.120646,0.088728,-0.074067,32.15,64.1009130554055
10732,-8.173882,-3.734598,4.353741,0.121257,0.091935,-0.071777,32.15,64.1512709848562
10742,-8.173882,-3.736392,4.358526,0.122173,0.094531,-0.068875,32.15,64.1284344446002
10752,-8.178668,-3.735795,4.353741,0.121715,0.096975,-0.066584,32.15,64.1634002793123
10762,-8.189436,-3.720839,4.349553,0.12202,0.098197,-0.063835,32.15,64.1940093784943
10772,-8.190632,-3.735795,4.353741,0.120951,0.100029,-0.062461,32.16,64.1905773983585
10782,-8.215158,-3.737589,4.35075,0.120035,0.100487,-0.060323,32.16,64.2633958115275
10792,-8.204391,-3.734,4.349553,0.11805,0.100793,-0.060018,32.15,64.2415119735048
10802,-8.206185,-3.732205,4.346562,0.116828,0.100182,-0.060018,32.18,64.259146941927
10812,-8.223534,-3.728018,4.348357,0.11469,0.099876,-0.062003,32.18,64.2848279637799
10822,-8.233703,-3.738786,4.348955,0.112246,0.098807,-0.062919,32.13,64.3157176943257
10832,-8.232506,-3.728018,4.347161,0.110719,0.096975,-0.06353,32.13,64.3112434102104
10842,-8.240283,-3.727419,4.345366,0.107512,0.095142,-0.066584,32.14,64.3374066305444
10852,-8.245667,-3.73041,4.349553,0.105374,0.092699,-0.069486,32.14,64.3310402464235
10862,-8.267202,-3.731607,4.347161,0.104153,0.090255,-0.071624,32.2,64.3929605930565
10872,-8.257631,-3.735795,4.335794,0.101709,0.087354,-0.074067,32.2,64.4341705477499
10882,-8.266603,-3.723232,4.331009,0.099113,0.083841,-0.07926,32.15,64.4661888329586
10892,-8.263614,-3.719643,4.333402,0.097738,0.080329,-0.081703,32.15,64.4435486986257
10902,-8.264212,-3.720241,4.328616,0.096211,0.076053,-0.085368,32.14,64.470126162215
10912,-8.259426,-3.729214,4.325625,0.095295,0.072235,-0.087965,32.14,64.4838654457082
10922,-8.268997,-3.71067,4.323831,0.094837,0.067806,-0.092699,32.18,64.4958458924754
10932,-8.268997,-3.724428,4.31725,0.094379,0.062461,-0.095295,32.18,64.5435842341127
10942,-8.257631,-3.712464,4.313661,0.095142,0.057879,-0.096975,32.18,64.5245894666717
10952,-8.245667,-3.710072,4.313661,0.094531,0.053145,-0.099724,32.18,64.4953346977759
10962,-8.23789,-3.72383,4.308277,0.096669,0.042455,-0.101251,32.15,64.519605331207
10972,-8.240881,-3.714259,4.31067,0.098044,0.037568,-0.102625,32.16,64.5042642991155
10982,-8.237292,-3.709473,4.307679,0.10064,0.032834,-0.102167,32.16,64.5068118248287
10992,-8.228318,-3.715455,4.311867,0.102931,0.029016,-0.100945,32.17,64.4710610361893
11002,-8.209774,-3.729812,4.301099,0.105069,0.024129,-0.100487,32.17,64.499676103398
11012,-8.219944,-3.726821,4.30409,0.108123,0.020159,-0.097128,32.15,64.5040032035157
11022,-8.209774,-3.732804,4.318447,0.111025,0.016493,-0.096364,32.15,64.4130087277314
11032,-8.200802,-3.73041,4.318447,0.114079,0.013286,-0.093462,32.17,64.3903262767421
11042,-8.196614,-3.732804,4.313661,0.117592,0.011148,-0.090103,32.17,64.408094566086
11052,-8.191828,-3.735795,4.325625,0.12034,0.007941,-0.086437,32.17,64.3384831894298
11062,-8.185248,-3.732205,4.328018,0.123395,0.006414,-0.082772,32.17,64.307521260966
11072,-8.181061,-3.729812,4.328616,0.126144,0.005345,-0.078038,32.16,64.2924726401517
11082,-8.17149,-3.729214,4.329813,0.128587,0.005803,-0.073151,32.16,64.2639523810557
11092,-8.175079,-3.739982,4.343571,0.130878,0.005651,-0.069944,32.15,64.2121181754466
11102,-8.17448,-3.744169,4.353741,0.132252,0.007178,-0.065363,32.15,64.1625871785365
11112,-8.164909,-3.741179,4.351348,0.133169,0.009163,-0.062308,32.15,64.1500646949762
11122,-8.163115,-3.741179,4.370491,0.134085,0.011148,-0.059712,32.15,64.0471468758033
11132,-8.166704,-3.729214,4.369295,0.13439,0.01909,-0.053756,32.16,64.0490140047663
11142,-8.170892,-3.744768,4.380062,0.133474,0.023671,-0.051618,32.15,64.0193119713159
11152,-8.176275,-3.739982,4.393223,0.1321,0.028558,-0.050396,32.15,63.9588513381297
11162,-8.182258,-3.75075,4.400999,0.130878,0.033445,-0.050396,32.16,63.9438101484701
11172,-8.180463,-3.746562,4.402793,0.129045,0.039859,-0.049175,32.16,63.9261087555203
11182,-8.183454,-3.747759,4.412365,0.126907,0.045815,-0.048258,32.16,63.8850493669354
11192,-8.185846,-3.747759,4.412963,0.1237,0.052229,-0.049327,32.16,63.8874514884013
11202,-8.183454,-3.75075,4.421937,0.121409,0.05849,-0.049938,32.17,63.8390821280903
11212,-8.193025,-3.741179,4.411767,0.117897,0.065363,-0.051007,32.17,63.9031233478743
11222,-8.191828,-3.749553,4.405785,0.115454,0.072388,-0.05116,32.18,63.9398295220956
11232,-8.197212,-3.759723,4.411767,0.112399,0.077885,-0.053298,32.18,63.9320539374087
11242,-8.195418,-3.751946,4.412963,0.109803,0.083383,-0.05452,32.21,63.9137007497789
11252,-8.203793,-3.74716,4.405187,0.106749,0.090255,-0.056505,32.21,63.9676882157665
11262,-8.193623,-3.749553,4.40399,0.104916,0.094684,-0.057879,32.19,63.9531376757461
11272,-8.209177,-3.75733,4.396214,0.102473,0.099113,-0.060018,32.19,64.0365436249335
11282,-8.210971,-3.756134,4.387838,0.101098,0.103236,-0.060934,32.18,64.0823560518431
11292,-8.212168,-3.741179,4.373481,0.100029,0.106443,-0.062156,32.18,64.1433445973471
11302,-8.206185,-3.739383,4.369893,0.09896,0.111788,-0.063072,32.16,64.1463724762369
11312,-8.215756,-3.736392,4.369295,0.097891,0.113468,-0.063988,32.18,64.1680642718144
11322,-8.214561,-3.731607,4.36391,0.099266,0.114995,-0.063683,32.18,64.1881310161506
11332,-8.214561,-3.741179,4.347161,0.099876,0.114843,-0.064752,32.18,64.2842290873648
11342,-8.210971,-3.735795,4.343571,0.101251,0.113468,-0.065057,32.18,64.289086567926
11352,-8.225926,-3.734598,4.339384,0.10232,0.11301,-0.065057,32.16,64.3431922202863
11362,-8.206185,-3.731607,4.326224,0.104763,0.111177,-0.064294,32.16,64.3635048717559
11372,-8.220542,-3.726821,4.314259,0.106749,0.108276,-0.06353,32.15,64.452776698607
11382,-8.225328,-3.731009,4.309474,0.109192,0.105832,-0.063225,32.15,64.4925267320707
11392,-8.230114,-3.725625,4.303492,0.109956,0.101709,-0.063072,32.2,64.528708830186
11402,-8.22473,-3.720839,4.293322,0.111483,0.097128,-0.063683,32.2,64.564379958027
11412,-8.227122,-3.719643,4.296313,0.113468,0.092852,-0.064141,32.12,64.5530532815208
11423,-8.232506,-3.713661,4.296911,0.114995,0.087659,-0.064141,32.12,64.5559775714008
11432,-8.242676,-3.715455,4.291527,0.116828,0.080634,-0.065515,32.16,64.608427466343
11442,-8.238488,-3.699902,4.28734,0.118355,0.075595,-0.065821,32.16,64.6050369200342
11452,-8.240881,-3.696911,4.284947,0.118661,0.068722,-0.066432,32.14,64.6197822435626
11462,-8.25165,-3.706482,4.283153,0.119424,0.062766,-0.067501,32.14,64.6627850203597
11472,-8.249854,-3.696313,4.295715,0.120188,0.055589,-0.071319,32.18,64.5835797280462
11482,-8.255239,-3.695116,4.281956,0.118661,0.041386,-0.072388,32.17,64.665608985645
11492,-8.248658,-3.690929,4.298108,0.118966,0.033139,-0.074373,32.17,64.563115073278
11502,-8.258228,-3.68375,4.296313,0.117439,0.026267,-0.076053,32.17,64.5866723278521
11512,-8.250452,-3.69392,4.307679,0.116217,0.019853,-0.077427,32.17,64.5206875916118
11522,-8.246863,-3.68734,4.312464,0.115606,0.013744,-0.07926,32.18,64.4812799541756
11532,-8.240881,-3.688536,4.31067,0.114843,0.009621,-0.080176,32.18,64.4782846994062
11542,-8.253444,-3.696911,4.325027,0.11301,0.004276,-0.082009,32.14,64.4408979203931
11552,-8.235497,-3.70409,4.331607,0.111025,-0.000458,-0.083078,32.14,64.3737818544727
11562,-8.245667,-3.692126,4.341179,0.109803,-0.003665,-0.084605,32.16,64.3352771793892
11572,-8.242078,-3.689733,4.335197,0.107818,-0.006109,-0.085063,32.16,64.3555805014195
11582,-8.23131,-3.699304,4.354339,0.106291,-0.008247,-0.086132,32.17,64.2422846699214
11592,-8.228318,-3.695116,4.356134,0.104305,-0.009163,-0.086896,32.17,64.2219872773181
11602,-8.215756,-3.697509,4.36391,0.102778,-0.009621,-0.087201,32.14,64.155834733706
11612,-8.204989,-3.70409,4.378268,0.100945,-0.008094,-0.087354,32.14,64.0641318554098
11622,-8.206185,-3.709473,4.38066,0.099876,-0.006261,-0.08659,32.15,64.0600975510117
11632,-8.203195,-3.708875,4.385446,0.098349,-0.003818,-0.086896,32.15,64.0280375343348
11642,-8.205587,-3.726821,4.381856,0.097128,-0.000153,-0.086285,32.15,64.0704927944337
11652,-8.189436,-3.720241,4.393223,0.096211,0.009927,-0.084299,32.15,63.968367818136
11662,-8.177471,-3.735196,4.406981,0.095906,0.015424,-0.082925,32.15,63.885846916709
11672,-8.178668,-3.729214,4.405785,0.096211,0.021075,-0.081398,32.12,63.8884800749817
11682,-8.169695,-3.739383,4.402793,0.097128,0.0281,-0.079107,32.12,63.8939446509388
11692,-8.167302,-3.744169,4.401597,0.097128,0.035125,-0.078802,32.14,63.8996354126261
11702,-8.175676,-3.739383,4.399205,0.098349,0.041386,-0.077274,32.14,63.926088753522
11712,-8.163713,-3.752544,4.412365,0.100029,0.048869,-0.075747,32.19,63.8448700022069
11722,-8.160124,-3.745964,4.405785,0.100793,0.056047,-0.074831,32.19,63.8635333989929
11732,-8.1679,-3.761517,4.38724,0.102625,0.062919,-0.074373,32.16,63.9930817459978
11742,-8.166105,-3.756134,4.396811,0.105527,0.069944,-0.072235,32.16,63.9340831823795
11752,-8.146963,-3.762115,4.394419,0.106596,0.076053,-0.070555,32.11,63.9089090491506
11762,-8.158927,-3.760919,4.386044,0.109039,0.081551,-0.069639,32.11,63.9781337749582
11772,-8.157133,-3.771089,4.381856,0.110872,0.087506,-0.068417,32.18,64.0063225152169
11782,-8.166105,-3.763312,4.379463,0.112705,0.093004,-0.066584,32.18,64.030914536859
11792,-8.163713,-3.772883,4.366303,0.114843,0.098502,-0.065363,32.19,64.1033353220181
11802,-8.156534,-3.763312,4.368696,0.116217,0.101709,-0.064446,32.19,64.0646075630208
11812,-8.172088,-3.775874,4.362714,0.117133,0.105222,-0.063377,32.14,64.143983080277
11822,-8.18764,-3.761517,4.35733,0.118355,0.11133,-0.061545,32.14,64.1919843371045
11832,-8.193025,-3.769294,4.356732,0.120646,0.112857,-0.06185,32.18,64.2153397842649
11842,-8.203195,-3.762115,4.348357,0.120035,0.114079,-0.063072,32.18,64.2740082763239
11852,-8.203195,-3.768098,4.339982,0.120035,0.113926,-0.06185,32.18,64.3233637272682
11862,-8.219944,-3.756134,4.335197,0.119424,0.113316,-0.062919,32.16,64.3733861546564
11872,-8.222337,-3.761517,4.337589,0.118202,0.113316,-0.063072,32.16,64.371972960001
11882,-8.221141,-3.760919,4.328616,0.117286,0.112246,-0.063377,32.14,64.4149143828944
11892,-8.225328,-3.756732,4.329813,0.116217,0.109345,-0.064141,32.14,64.413846710878
11902,-8.239087,-3.756134,4.331009,0.114537,0.106291,-0.064599,32.16,64.4379351459791
11912,-8.243275,-3.749553,4.326822,0.112246,0.102473,-0.064752,32.16,64.4621682451543
11922,-8.245667,-3.737589,4.317849,0.110872,0.098349,-0.065668,32.15,64.5015996315979
11932,-8.252247,-3.739982,4.322036,0.108123,0.093615,-0.067806,32.15,64.4971821805902
11942,-8.259426,-3.731009,4.323233,0.105985,0.088881,-0.067348,32.21,64.4979988462816
11952,-8.255239,-3.725625,4.320839,0.103847,0.083078,-0.067653,32.21,64.4955087334013
11962,-8.249256,-3.726821,4.307081,0.102931,0.076816,-0.068417,32.17,64.5542724797746
11972,-8.249256,-3.731009,4.307679,0.101556,0.070708,-0.067653,32.17,64.5554221767356
11982,-8.252846,-3.713661,4.311268,0.099571,0.064446,-0.067653,32.17,64.527415896239
11992,-8.252247,-3.718446,4.307081,0.098349,0.058032,-0.066737,32.17,64.5525091622773
12002,-8.240881,-3.717848,4.298706,0.098655,0.045357,-0.065363,32.19,64.569706287306
12012,-8.23789,-3.716652,4.297509,0.098807,0.038943,-0.064294,32.14,64.5679833678721
12022,-8.236095,-3.705884,4.3005,0.099571,0.032681,-0.062766,32.14,64.5376056117174
12032,-8.248059,-3.7005,4.311268,0.100945,0.02642,-0.062461,32.15,64.5034017208397
12042,-8.236693,-3.699902,4.307081,0.102625,0.020769,-0.060628,32.15,64.498879324493
12052,-8.228917,-3.707679,4.306482,0.104153,0.016341,-0.058948,32.16,64.4923551818502
12062,-8.237292,-3.707081,4.298706,0.107207,0.012675,-0.057116,32.16,64.5507799444065
12072,-8.230712,-3.692724,4.320839,0.109803,0.008399,-0.0562,32.15,64.4070433999157
12082,-8.2349,-3.70409,4.324429,0.111483,0.004581,-0.054672,32.15,64.4094722851054
12092,-8.210971,-3.708875,4.322634,0.113621,0.002749,-0.054214,32.17,64.3695978446096
12102,-8.214561,-3.69392,4.325625,0.116217,0.000916,-0.054062,32.17,64.3470106622479
12112,-8.206185,-3.70409,4.329813,0.118508,-0.000916,-0.052993,32.16,64.3167709601527
12122,-8.215158,-3.698107,4.34058,0.121104,-0.000916,-0.053145,32.16,64.275384282935
12132,-8.213962,-3.708277,4.348955,0.122478,-0.000764,-0.054214,32.17,64.2398614376058
12142,-8.203793,-3.704688,4.351946,0.124617,0.000153,-0.054978,32.17,64.1976641464898
12152,-8.201998,-3.705884,4.365107,0.126296,0.001833,-0.0562,32.2,64.1269447344509
12162,-8.196015,-3.708277,4.38066,0.126755,0.004734,-0.058643,32.2,64.0356522679038
12172,-8.190632,-3.713063,4.378866,0.126449,0.011606,-0.061392,32.13,64.0375456663373
12182,-8.200802,-3.718446,4.386642,0.126755,0.016646,-0.064141,32.16,64.0263153628075
12192,-8.189436,-3.714857,4.393821,0.125075,0.020922,-0.066584,32.16,63.9597005957779
12202,-8.193025,-3.714857,4.400401,0.123853,0.025504,-0.068722,32.18,63.9340856113182
12212,-8.188239,-3.711866,4.403392,0.122173,0.031307,-0.071319,32.18,63.9046397216711
12222,-8.193623,-3.713063,4.395017,0.119882,0.03711,-0.073762,32.19,63.961270216152
12232,-8.187043,-3.725027,4.409374,0.117592,0.042608,-0.076664,32.19,63.8848645610072
12242,-8.19123,-3.721437,4.397409,0.114843,0.048411,-0.078496,32.16,63.9521907691728
12252,-8.193623,-3.723232,4.401597,0.111941,0.054214,-0.079718,32.16,63.9380085571356
12262,-8.190632,-3.731607,4.408776,0.109498,0.058796,-0.082161,32.16,63.9030146776251
12272,-8.181659,-3.741776,4.408776,0.106901,0.063683,-0.084452,32.16,63.8931027028688
12282,-8.182856,-3.739383,4.397409,0.104458,0.069639,-0.084299,32.15,63.9517405006535
12292,-8.177471,-3.735795,4.398606,0.101556,0.074067,-0.085521,32.15,63.9295232438937
12302,-8.185248,-3.733402,4.396214,0.099266,0.078802,-0.085368,32.17,63.9571098357776
12312,-8.181061,-3.726223,4.395017,0.097586,0.08323,-0.085063,32.17,63.9462050877397
12322,-8.196015,-3.732205,4.390232,0.094531,0.087201,-0.085521,32.18,64.0111992302006
12332,-8.190632,-3.742374,4.378268,0.093462,0.090561,-0.085216,32.18,64.0710375009277
12342,-8.200203,-3.735795,4.375276,0.091324,0.096364,-0.082467,32.16,64.1013762959614
12352,-8.194221,-3.74716,4.369893,0.088881,0.099113,-0.081703,32.17,64.127275419089
12362,-8.196614,-3.735795,4.366901,0.088728,0.101251,-0.080176,32.17,64.136332337155
12372,-8.188239,-3.74058,4.357928,0.089034,0.10232,-0.079107,32.17,64.1685102218417
12382,-8.196015,-3.74716,4.354938,0.088575,0.104305,-0.07758,32.17,64.2083783320915
12392,-8.201998,-3.745365,4.349553,0.087965,0.105527,-0.076053,32.17,64.2478218371616
12402,-8.203793,-3.741776,4.34417,0.089034,0.104611,-0.073151,32.17,64.2759321169702
12412,-8.210373,-3.751348,4.328018,0.089492,0.103084,-0.072693,32.17,64.3839599987886
12422,-8.225926,-3.751348,4.335794,0.090103,0.10232,-0.069944,32.17,64.3788474220296
12432,-8.209774,-3.744169,4.319045,0.091783,0.100793,-0.068417,32.15,64.4215700377616
12442,-8.225926,-3.755535,4.325625,0.092852,0.098349,-0.066737,32.15,64.4355526845543
12452,-8.226524,-3.744768,4.320241,0.093615,0.095906,-0.064904,32.14,64.4536506106817
12462,-8.213365,-3.744169,4.318447,0.095142,0.092393,-0.064752,32.14,64.4327360293334
12472,-8.233703,-3.732205,4.308876,0.096364,0.089186,-0.06353,32.15,64.5156237342221
12482,-8.243872,-3.732205,4.308876,0.098197,0.084758,-0.062614,32.15,64.5384069214047
12492,-8.240881,-3.734,4.306482,0.099266,0.080329,-0.062919,32.17,64.5458893413528
12502,-8.221739,-3.738786,4.309474,0.101251,0.075136,-0.062308,32.17,64.492398988881
12512,-8.255239,-3.74058,4.303492,0.103542,0.070097,-0.062461,32.18,64.600071360381
12522,-8.25464,-3.731009,4.298706,0.105985,0.058338,-0.063072,32.14,64.6137664587351
12532,-8.25464,-3.728018,4.293921,0.107512,0.052534,-0.064752,32.14,64.6354586797471
12542,-8.257631,-3.736392,4.296313,0.10797,0.04612,-0.066279,32.15,64.6382220076178
12552,-8.252846,-3.725625,4.305286,0.108734,0.039095,-0.066737,32.15,64.5703598164139
12562,-8.255239,-3.729812,4.31067,0.109956,0.033445,-0.067501,32.17,64.5521644792781
12572,-8.246863,-3.725625,4.294518,0.111177,0.0281,-0.068264,32.17,64.6125925383392
12582,-8.245667,-3.722036,4.314259,0.111025,0.021228,-0.07025,32.14,64.5043489658838
12592,-8.252846,-3.728616,4.313661,0.111025,0.016188,-0.071624,32.14,64.5301768252677
12602,-8.250452,-3.726821,4.317849,0.111025,0.010537,-0.072846,32.15,64.5014036736302
12612,-8.25165,-3.725625,4.319045,0.111177,0.005192,-0.073915,32.15,64.4967120468033
12622,-8.242078,-3.703491,4.332206,0.111636,0.00168,-0.075595,32.17,64.3849296927927
12632,-8.238488,-3.711268,4.33041,0.110719,-0.002749,-0.076358,32.17,64.3939849500386
12642,-8.230114,-3.712464,4.332804,0.110567,-0.005498,-0.077274,32.17,64.3639722069856
12652,-8.219944,-3.720839,4.339982,0.110108,-0.007636,-0.076816,32.17,64.3125324446726
12662,-8.218149,-3.720839,4.354339,0.110261,-0.009621,-0.076511,32.13,64.2344749377059
12672,-8.203793,-3.719045,4.356732,0.109956,-0.009927,-0.077274,32.13,64.1877417014799
12682,-8.190632,-3.738187,4.359723,0.109803,-0.009774,-0.075136,32.17,64.1622084324172
12692,-8.193623,-3.729214,4.362714,0.108581,-0.006414,-0.073457,32.18,64.1442949714436
12702,-8.17448,-3.735196,4.368098,0.108734,-0.00336,-0.071624,32.18,64.0791685646517
12712,-8.164909,-3.731009,4.375875,0.109039,0.001222,-0.068264,32.2,64.0128430218704
12722,-8.158329,-3.725625,4.384848,0.108429,0.005345,-0.066432,32.2,63.9458754534382
12732,-8.155338,-3.733402,4.385446,0.108123,0.010385,-0.063225,32.19,63.9440872195563
12742,-8.148159,-3.733402,4.392026,0.108276,0.016493,-0.060628,32.19,63.8936959835709
12752,-8.156534,-3.736991,4.39083,0.108429,0.023976,-0.056352,32.16,63.9228479332805
12762,-8.13799,-3.74716,4.399803,0.109192,0.030543,-0.054062,32.16,63.8447715073296
12772,-8.147561,-3.732804,4.396811,0.109039,0.039095,-0.050549,32.2,63.8670313746514
12782,-8.140981,-3.732804,4.402196,0.108276,0.04612,-0.046731,32.2,63.8241479386181
12792,-8.147561,-3.741179,4.403392,0.108887,0.053909,-0.043524,32.12,63.841962008833
12802,-8.148159,-3.727419,4.401597,0.108581,0.062003,-0.040623,32.12,63.8380789590078
12812,-8.154141,-3.728616,4.397409,0.109192,0.07025,-0.037721,32.16,63.8746660409709
12822,-8.165507,-3.73041,4.402196,0.109498,0.077885,-0.036499,32.16,63.87800342062
12832,-8.172088,-3.723232,4.398606,0.109039,0.084758,-0.035125,32.16,63.90406050817
12842,-8.17149,-3.736392,4.399803,0.108581,0.091783,-0.03375,32.16,63.9102990572606
12852,-8.180463,-3.738786,4.389633,0.108276,0.098197,-0.033139,32.16,63.9856394131621
12862,-8.203793,-3.726223,4.397409,0.106901,0.108429,-0.034972,32.16,63.9858610053294
12872,-8.206783,-3.732804,4.395017,0.105374,0.112705,-0.035736,32.18,64.0117832282847
12882,-8.220542,-3.727419,4.38724,0.104611,0.115606,-0.038943,32.18,64.0774628539864
12892,-8.218149,-3.729812,4.370491,0.102931,0.118661,-0.041997,32.18,64.1605614394234
12902,-8.233703,-3.724428,4.378268,0.101098,0.119882,-0.045051,32.16,64.1503310856379
12912,-8.230114,-3.717848,4.368098,0.099571,0.11973,-0.049327,32.16,64.1877106682607
12922,-8.255239,-3.729214,4.351348,0.098044,0.120188,-0.053756,32.16,64.3421403726574
12932,-8.255239,-3.721437,4.356134,0.096364,0.119119,-0.057269,32.16,64.3096443272633
12942,-8.254042,-3.725625,4.355535,0.09499,0.116981,-0.062766,32.2,64.3142815036682
12952,-8.258228,-3.722634,4.335197,0.093157,0.114079,-0.068111,32.2,64.4252461558268
12962,-8.264212,-3.71725,4.328018,0.091172,0.10965,-0.073457,32.16,64.4701868811948
12972,-8.26481,-3.723232,4.319045,0.08995,0.105069,-0.078343,32.16,64.5237683139271
12982,-8.263614,-3.727419,4.305884,0.088575,0.10064,-0.082161,32.16,64.5931465887153
12992,-8.260024,-3.71725,4.301697,0.087812,0.095142,-0.086132,32.16,64.596492245443
13002,-8.259426,-3.713661,4.293322,0.087201,0.087965,-0.089492,32.14,64.6347938108744
13012,-8.25165,-3.713661,4.293921,0.087506,0.081703,-0.09163,32.14,64.6143192886135
13022,-8.257033,-3.726223,4.284349,0.087048,0.074678,-0.094531,32.15,64.6884448335582
13032,-8.254042,-3.718446,4.277769,0.087201,0.067042,-0.097586,32.15,64.7079912615045
13042,-8.239684,-3.711268,4.277769,0.087812,0.050855,-0.097433,32.16,64.6687227141033
13052,-8.247462,-3.707081,4.274179,0.08827,0.043371,-0.096669,32.2,64.7004855242195
13062,-8.234302,-3.714259,4.274778,0.088881,0.034819,-0.095295,32.2,64.6752011553983
13072,-8.228917,-3.705286,4.269393,0.090561,0.027642,-0.092088,32.21,64.6820331577016
13082,-8.22772,-3.716652,4.284947,0.091935,0.020464,-0.090255,32.21,64.6102041436856
13092,-8.228917,-3.714857,4.272983,0.092546,0.012981,-0.088575,32.17,64.6730681914648
13102,-8.215158,-3.719045,4.279563,0.094531,0.007025,-0.084147,32.17,64.6123794735912
13112,-8.215756,-3.721437,4.284947,0.096059,0.000916,-0.080634,32.18,64.5882373403712
13122,-8.212168,-3.71725,4.295715,0.097738,-0.004276,-0.077733,32.18,64.5201292973398
13132,-8.218747,-3.710072,4.307679,0.098502,-0.009927,-0.073762,32.15,64.465701025356
13142,-8.200802,-3.717848,4.302894,0.100182,-0.013744,-0.070097,32.15,64.4579591507036
13152,-8.213962,-3.707679,4.316054,0.101404,-0.015882,-0.066432,32.16,64.4091558822945
13162,-8.188239,-3.71725,4.329215,0.10232,-0.018326,-0.063377,32.16,64.2926905041212
13172,-8.204989,-3.720839,4.339384,0.102931,-0.0197,-0.061087,32.16,64.2817884405168
13182,-8.194819,-3.716054,4.348357,0.104153,-0.019853,-0.058185,32.16,64.2074801772842
13192,-8.19123,-3.720241,4.360321,0.104611,-0.018326,-0.0562,32.18,64.1419098196942
13202,-8.200203,-3.721437,4.364508,0.104763,-0.016646,-0.053909,32.18,64.1419746315833
13212,-8.209177,-3.727419,4.383053,0.104763,-0.011148,-0.052229,32.18,64.0731271762029
13222,-8.199007,-3.729214,4.388436,0.103694,-0.006261,-0.052076,32.15,64.0241504202562
13232,-8.199606,-3.733402,4.393223,0.103236,-0.001527,-0.050855,32.15,64.0052596335224
13242,-8.193623,-3.738187,4.40399,0.10232,0.003512,-0.052993,32.18,63.9412833250009
13252,-8.192427,-3.739982,4.413561,0.101862,0.009927,-0.053145,32.18,63.8913027374455
13262,-8.188239,-3.74058,4.41057,0.10064,0.01573,-0.055436,32.23,63.8976962776976
13272,-8.190632,-3.742973,4.41416,0.099724,0.023671,-0.056352,32.23,63.887249072574
13282,-8.201998,-3.75075,4.419543,0.097891,0.031612,-0.057879,32.17,63.8937486165435
13292,-8.190034,-3.760919,4.418347,0.097891,0.039248,-0.059712,32.17,63.8832001200066
13302,-8.17807,-3.760919,4.428516,0.09728,0.04612,-0.061087,32.18,63.8037189201774
13312,-8.172088,-3.754937,4.426722,0.096059,0.053909,-0.062461,32.18,63.7929010125611
13322,-8.173882,-3.751946,4.423731,0.0956,0.061392,-0.064752,32.13,63.809205804685
13332,-8.180463,-3.754339,4.411767,0.094379,0.068417,-0.066737,32.13,63.8881771439727
13342,-8.182856,-3.76391,4.406981,0.093615,0.075289,-0.068264,32.21,63.9282505037563
13352,-8.172088,-3.753741,4.396811,0.093157,0.081551,-0.069944,32.21,63.945241814863
13362,-8.17807,-3.759723,4.397409,0.093004,0.088423,-0.069639,32.18,63.9620990956804
13372,-8.175676,-3.749553,4.388436,0.093004,0.094073,-0.069791,32.18,63.9921232111796
13382,-8.170892,-3.751348,4.37408,0.093157,0.102167,-0.071624,32.12,64.0570144039496
13392,-8.172088,-3.752544,4.371687,0.094226,0.106596,-0.070402,32.2,64.0733208646889
13402,-8.168499,-3.753142,4.353741,0.094226,0.108734,-0.070097,32.2,64.1583501339624
13412,-8.176873,-3.754937,4.363312,0.094684,0.112094,-0.068264,32.15,64.1298716439379
13422,-8.186445,-3.756732,4.350152,0.095753,0.113468,-0.065668,32.15,64.2213117619895
13432,-8.187043,-3.752544,4.334,0.096059,0.114079,-0.063225,32.17,64.3016932173119
13442,-8.181659,-3.747759,4.331607,0.09728,0.114079,-0.060781,32.17,64.296928787904
13452,-8.193025,-3.742973,4.332206,0.098807,0.113621,-0.058796,32.17,64.3145816003607
13462,-8.181061,-3.739982,4.316054,0.099418,0.111483,-0.055436,32.17,64.3679924708521
13472,-8.197212,-3.743571,4.309474,0.100182,0.109192,-0.051924,32.17,64.4421718991326
13482,-8.210373,-3.726821,4.309474,0.099876,0.106901,-0.04948,32.17,64.4546311501597
13492,-8.209774,-3.738187,4.302894,0.099724,0.102778,-0.046426,32.16,64.4989458492276
13502,-8.221739,-3.729214,4.303492,0.100487,0.098349,-0.044288,32.16,64.5135639206473
13512,-8.233703,-3.72383,4.297509,0.100945,0.093768,-0.041233,32.16,64.5658666529689
13522,-8.233703,-3.728616,4.307081,0.099724,0.088117,-0.039859,32.16,64.5212493748822
13532,-8.236693,-3.714259,4.308277,0.099571,0.082467,-0.037568,32.15,64.5072209647949
13542,-8.249256,-3.707081,4.306482,0.099113,0.076205,-0.036499,32.15,64.5374370431765
13552,-8.257631,-3.706482,4.299304,0.098502,0.062461,-0.03543,32.14,64.5926704151038
13562,-8.267202,-3.710072,4.296911,0.096517,0.055741,-0.035888,32.17,64.6300269947758
13572,-8.271988,-3.70409,4.308277,0.095295,0.048717,-0.037415,32.17,64.5760895348108
13582,-8.2678,-3.692724,4.308876,0.093004,0.041997,-0.038943,32.12,64.552238763604
13592,-8.283354,-3.702893,4.308876,0.092393,0.035125,-0.040623,32.12,64.5972134864797
13602,-8.289336,-3.696911,4.319045,0.091172,0.027947,-0.042761,32.15,64.5522455821047
13612,-8.289336,-3.699902,4.317849,0.089492,0.020464,-0.045968,32.15,64.561385925011
13622,-8.283354,-3.697509,4.325027,0.088423,0.014966,-0.047953,32.15,64.5086627452309
13632,-8.285149,-3.705884,4.317849,0.086743,0.008858,-0.05284,32.15,64.5580009061962
13642,-8.280362,-3.706482,4.323831,0.08659,0.00336,-0.056658,32.17,64.5171000548818
13652,-8.266006,-3.693322,4.331607,0.085979,-0.00168,-0.060628,32.17,64.4316431919328
13662,-8.258827,-3.698107,4.339384,0.085063,-0.005803,-0.064294,32.16,64.3802572647126
13672,-8.252846,-3.701099,4.336392,0.08491,-0.008705,-0.06918,32.16,64.3852088585043
13682,-8.248658,-3.699304,4.348955,0.084605,-0.011606,-0.07254,32.12,64.30925965936
13692,-8.248658,-3.698107,4.34058,0.084452,-0.013744,-0.074984,32.12,64.3511683749952
13702,-8.233703,-3.705286,4.353143,0.085827,-0.015119,-0.07758,32.16,64.2599576714895
13712,-8.208578,-3.699902,4.358526,0.085979,-0.015272,-0.078649,32.16,64.1697005751547
13722,-8.195418,-3.714857,4.356134,0.085979,-0.014661,-0.083078,32.15,64.1674764466257
13732,-8.182856,-3.707679,4.354938,0.088423,-0.011759,-0.083689,32.15,64.1376319203742
13742,-8.185846,-3.715455,4.359723,0.089644,-0.009621,-0.083841,32.15,64.1277853544862
13752,-8.178668,-3.725027,4.354938,0.090713,-0.006261,-0.08323,32.18,64.1460463033502
13762,-8.172686,-3.71725,4.371687,0.091783,-0.002596,-0.082925,32.18,64.0378835067963
13772,-8.163115,-3.71725,4.374678,0.092241,0.00168,-0.08094,32.09,64.0005492553339
13782,-8.148159,-3.73041,4.368098,0.093004,0.005803,-0.078802,32.09,64.0140337933481
13792,-8.146963,-3.725625,4.381258,0.093768,0.011148,-0.077427,32.17,63.9383182155377
13802,-8.143373,-3.731009,4.385446,0.094226,0.016646,-0.073915,32.17,63.9141217732986
13812,-8.137392,-3.736392,4.386642,0.094837,0.021686,-0.070708,32.15,63.8998833693925
13822,-8.148159,-3.725027,4.390232,0.096669,0.028405,-0.067195,32.15,63.894139844993
13832,-8.143373,-3.728018,4.389035,0.096517,0.034056,-0.064752,32.16,63.8924584742729
13842,-8.142178,-3.734,4.384848,0.096059,0.039706,-0.060476,32.16,63.9176115321548
13852,-8.148159,-3.731607,4.398606,0.095295,0.045968,-0.05849,32.14,63.8578968610735
13862,-8.15773,-3.731009,4.395615,0.094684,0.052534,-0.055131,32.14,63.8946611965014
13872,-8.158329,-3.742374,4.387838,0.094379,0.058032,-0.052687,32.14,63.9480283979678
13882,-8.162517,-3.733402,4.394419,0.092852,0.063988,-0.05116,32.14,63.9143115184474
13892,-8.179864,-3.743571,4.399803,0.091019,0.070555,-0.049022,32.16,63.9369742968669
13902,-8.184052,-3.743571,4.393223,0.087354,0.081551,-0.046884,32.16,63.9803644040181
13912,-8.193623,-3.746562,4.404588,0.085674,0.087201,-0.047037,32.16,63.9469468113112
13922,-8.194221,-3.750151,4.395615,0.083536,0.091783,-0.046273,32.18,63.998124282061
13932,-8.2014,-3.742973,4.397409,0.081245,0.095753,-0.045662,32.18,63.9977932781526
13942,-8.206185,-3.745964,4.380062,0.07926,0.099418,-0.046426,32.15,64.1008899270527
13952,-8.210373,-3.751348,4.386642,0.077122,0.103236,-0.048106,32.15,64.0821747063475
13962,-8.221141,-3.746562,4.384848,0.074678,0.105985,-0.04948,32.19,64.1108551651367
13972,-8.215158,-3.743571,4.379463,0.072846,0.108429,-0.050702,32.19,64.1218519340701
13982,-8.213365,-3.744169,4.365107,0.071777,0.109803,-0.052382,32.16,64.1922108911987
13992,-8.228318,-3.743571,4.358526,0.070097,0.109956,-0.054825,32.16,64.2592428859186
14002,-8.24148,-3.749553,4.35075,0.06857,0.109803,-0.056658,32.17,64.3350066866329
14012,-8.235497,-3.744169,4.351946,0.068111,0.108887,-0.057879,32.17,64.3098820743505
14022,-8.239684,-3.74716,4.338786,0.067653,0.107207,-0.06017,32.15,64.3900684315452
14032,-8.245069,-3.749553,4.32742,0.067195,0.103847,-0.062003,32.15,64.4631068024539
14042,-8.243872,-3.744768,4.319643,0.067348,0.100182,-0.063377,32.2,64.4956262158569
14052,-8.243872,-3.738786,4.312464,0.068417,0.095753,-0.064294,32.2,64.526568076666
