t_ms,ax,ay,az,gx,gy,gz,temp,ang_deg
12,-8.790633,-3.693322,4.138387,0.133169,-0.325591,0.280693,30.99,66.5381178769812
22,-8.880363,-3.678965,4.255037,0.116217,-0.31261,0.236252,30.99,66.1225855164299
32,-8.945567,-3.669992,4.341179,0.093921,-0.295048,0.177915,30.99,65.8211963309377
42,-8.99821,-3.664608,4.438686,0.065057,-0.274584,0.108123,30.99,65.4466400744957
52,-9.016754,-3.65384,4.509274,0.030543,-0.250607,0.030696,30.98,65.1327264792448
62,-9.026325,-3.659822,4.572086,-0.008094,-0.224493,-0.050855,30.98,64.8541568511233
72,-8.986245,-3.668795,4.603791,-0.050091,-0.196699,-0.13439,30.99,64.6246134514683
82,-8.953942,-3.685545,4.620541,-0.092852,-0.168599,-0.214566,30.99,64.489927693242
92,-8.876176,-3.708277,4.606782,-0.134696,-0.140499,-0.286496,30.97,64.4105893454537
102,-8.780463,-3.734,4.581657,-0.174249,-0.112094,-0.349873,30.97,64.3504025395859
112,-8.678768,-3.756732,4.530211,-0.210749,-0.083841,-0.400728,30.98,64.4039615521511
122,-8.566306,-3.778865,4.475177,-0.242972,-0.057116,-0.438296,30.98,64.4533260236996
132,-8.438289,-3.812963,4.399803,-0.268628,-0.03207,-0.460134,30.97,64.5851612874964
142,-8.313862,-3.839284,4.315455,-0.287718,-0.009774,-0.464258,30.97,64.7680072975848
152,-8.178668,-3.858427,4.153342,-0.301462,0.008705,-0.454178,31.03,65.3315406577468
162,-7.946565,-3.919443,4.074379,-0.307723,0.034667,-0.388663,31.03,65.3055177754667
172,-7.833503,-3.942773,3.998407,-0.299629,0.042608,-0.337808,30.97,65.4903543440836
182,-7.736594,-3.957729,3.924229,-0.285885,0.04948,-0.275653,30.97,65.6973654694577
192,-7.673184,-3.965506,3.860819,-0.268017,0.055436,-0.206014,30.97,65.9156614178155
202,-7.630712,-3.973282,3.81715,-0.243277,0.060018,-0.129962,30.98,66.0735934969372
212,-7.604988,-3.982853,3.77049,-0.215177,0.063377,-0.051465,30.98,66.2886866113409
222,-7.603194,-3.973282,3.745365,-0.183412,0.065668,0.029016,31.02,66.4146584870051
232,-7.619346,-3.987041,3.72383,-0.150731,0.067806,0.105527,31.02,66.5859388662343
242,-7.681559,-3.967898,3.720839,-0.115912,0.070555,0.177456,30.98,66.7148060825363
252,-7.763513,-3.95055,3.728616,-0.081703,0.07254,0.241597,30.98,66.8270159395836
262,-7.880762,-3.932006,3.754339,-0.050549,0.074373,0.291994,30.99,66.912427504462
272,-8.009376,-3.917649,3.773481,-0.022297,0.0759,0.328798,30.99,67.0610570537571
282,-8.143373,-3.904488,3.812365,0.001985,0.075595,0.350331,30.97,67.1134203710108
292,-8.273782,-3.889533,3.856632,0.022449,0.074067,0.35644,30.97,67.1280828315725
302,-8.39462,-3.862016,3.886542,0.039554,0.070708,0.347735,30.98,67.1881995990055
312,-8.496315,-3.8339,3.919443,0.053756,0.067653,0.327271,30.98,67.1940451645199
322,-8.608777,-3.812365,3.961916,0.063683,0.064141,0.295659,30.95,67.1785477094402
332,-8.762517,-3.766303,3.982255,0.070097,0.057879,0.207541,30.95,67.3379971955042
342,-8.811569,-3.768098,3.994219,0.079565,0.042761,0.15684,30.98,67.3744335966281
352,-8.830114,-3.751946,3.993621,0.080329,0.033292,0.108276,30.99,67.4002272828403
362,-8.827721,-3.744768,3.999005,0.080329,0.022907,0.062614,30.99,67.3622030972378
372,-8.81097,-3.731607,3.99063,0.079412,0.012675,0.025351,30.97,67.3611892823758
382,-8.790633,-3.721437,3.97747,0.077427,0.001833,-0.00168,30.97,67.3800882300029
392,-8.754142,-3.715455,3.973282,0.075136,-0.007483,-0.017562,31.02,67.3247519550993
402,-8.707481,-3.716054,3.969095,0.071319,-0.017104,-0.023366,31.02,67.2544398523491
412,-8.66142,-3.708277,3.966104,0.066126,-0.026114,-0.019548,30.98,67.1714932677861
422,-8.610572,-3.692724,3.93739,0.060781,-0.034819,-0.005651,30.98,67.2050671069501
432,-8.562119,-3.694518,3.940979,0.053603,-0.043219,0.016646,30.94,67.0903001989829
442,-8.519047,-3.694518,3.923033,0.045204,-0.050091,0.044746,30.94,67.0967883616559
452,-8.469995,-3.687938,3.910471,0.035888,-0.05849,0.079412,30.98,67.0570523659331
462,-8.419745,-3.684947,3.910471,0.027794,-0.065668,0.116675,30.98,66.9513956038678
472,-8.38804,-3.675375,3.900899,0.017715,-0.073304,0.153938,30.96,66.9279928490408
482,-8.355738,-3.680759,3.89731,0.008094,-0.080329,0.19059,30.96,66.8850593678815
492,-8.337791,-3.677768,3.89731,-0.002138,-0.087965,0.22434,31,66.8450521661531
502,-8.305488,-3.647858,3.908676,-0.012523,-0.094379,0.252745,31,66.6895126067715
512,-8.321639,-3.643072,3.923033,-0.036041,-0.104458,0.286038,30.97,66.6426543100332
522,-8.325229,-3.64068,3.940979,-0.049633,-0.108123,0.28787,31.01,66.5526897319072
532,-8.319246,-3.619742,3.957131,-0.062156,-0.109345,0.282372,31.01,66.4349991699238
542,-8.324032,-3.605386,3.976273,-0.075289,-0.107818,0.269239,31,66.3304323742011
552,-8.334201,-3.592823,3.990032,-0.089034,-0.105374,0.248622,31,66.2677008072374
562,-8.343175,-3.577868,4.009174,-0.101862,-0.099724,0.223729,30.97,66.1719599331351
572,-8.364112,-3.568895,4.028317,-0.113316,-0.093157,0.192575,30.97,66.1076693711772
582,-8.356933,-3.561118,4.045665,-0.124617,-0.084299,0.156687,30.94,65.9937512146181
592,-8.921041,-2.271387,4.265805,-0.134848,-0.073304,0.117592,30.94,65.1374944071251
602,-9.868,-1.42373,4.71087,-0.20464,-0.063072,-0.054672,31,64.7094472885574
612,-8.21157,-3.678965,4.055236,-0.280845,-0.053603,-0.244499,31,65.7398585967719
622,-7.762915,-3.612564,3.771687,-0.263588,-0.039706,-0.238543,31,66.2266133049572
632,-8.346166,-3.627519,4.109673,-0.243735,-0.0281,-0.232282,31,65.6964316020855
642,-8.382656,-3.642474,4.082754,-0.232282,-0.015577,-0.243583,31,65.929732524471
652,-7.802995,-3.690929,3.827918,-0.218537,-0.004887,-0.253814,31,66.0845408393921
662,-8.363514,-3.681956,4.078567,-0.18891,0.005192,-0.222508,30.99,65.9476128272229
672,-8.346764,-3.714259,3.919443,-0.176082,0.013439,-0.232434,30.99,66.7798564389807
682,-8.362316,-3.744768,4.071986,-0.157603,0.025504,-0.202349,30.95,66.0387711430362
692,-8.493324,-3.748357,4.091129,-0.119882,0.029474,-0.189368,30.98,66.2178902869115
702,-8.253444,-3.772285,3.986442,-0.10568,0.031154,-0.180969,30.98,66.284415321055
712,-8.469396,-3.78066,4.063013,-0.086285,0.03146,-0.152411,30.99,66.3434715092549
722,-8.554939,-3.784847,4.091129,-0.073762,0.031154,-0.138361,30.99,66.3787992197888
732,-8.408977,-3.801597,4.015156,-0.062919,0.029322,-0.122478,31,66.4867319408278
742,-8.516056,-3.823731,4.078567,-0.052687,0.026114,-0.098655,31,66.3991690025645
752,-8.601001,-3.84048,4.101298,-0.045051,0.02306,-0.081551,31,66.4713908699092
762,-8.48136,-3.847061,4.051647,-0.042455,0.019395,-0.068722,31,66.4885809089478
772,-8.543573,-3.865605,4.072584,-0.037568,0.014966,-0.049786,30.96,66.5247901862739
782,-8.598608,-3.862614,4.112065,-0.038485,0.011912,-0.038943,30.96,66.431656654224
792,-8.508877,-3.89073,4.078567,-0.043066,0.009621,-0.033139,30.98,66.4466213377476
802,-8.526226,-3.898506,4.075575,-0.047037,0.008094,-0.026878,30.98,66.5045727323722
812,-8.555537,-3.899703,4.091129,-0.053451,0.008552,-0.023518,31.03,66.4853731939544
822,-8.485548,-3.932006,4.054638,-0.063683,0.009774,-0.028558,31.03,66.5610847739344
832,-8.459227,-3.926024,4.052245,-0.073609,0.010843,-0.033445,31,66.5142956303701
842,-8.468798,-3.91406,4.015755,-0.084605,0.012675,-0.041233,31,66.7113034582762
852,-8.380861,-3.918845,4.007978,-0.098197,0.014355,-0.063377,31.02,66.5772726073795
862,-8.37129,-3.923631,3.987041,-0.120951,0.019242,-0.073457,30.99,66.6715832579899
872,-8.322835,-3.911069,3.960122,-0.132252,0.02138,-0.084605,30.99,66.7015376419782
882,-8.276175,-3.917649,3.926024,-0.141721,0.021991,-0.093004,31,66.7920355923941
892,-8.264212,-3.911667,3.907479,-0.148135,0.021533,-0.099266,31,66.8598857482243
902,-8.216953,-3.912265,3.867998,-0.153938,0.020617,-0.102625,31.02,66.973612342196
912,-8.193025,-3.915854,3.836293,-0.156992,0.018937,-0.100945,31.02,67.097620242921
922,-8.178668,-3.920042,3.808775,-0.15684,0.014508,-0.096517,30.96,67.2200105591912
932,-8.160722,-3.927818,3.780062,-0.154702,0.008552,-0.085216,30.96,67.3456094446397
942,-8.149954,-3.908078,3.744169,-0.15012,0.001527,-0.07025,30.98,67.4984206848351
952,-8.127223,-3.906881,3.720241,-0.140652,-0.008552,-0.049938,30.98,67.5810374995847
962,-8.136793,-3.910471,3.692724,-0.129351,-0.019548,-0.025198,30.97,67.7532698475765
972,-8.13799,-3.89731,3.669394,-0.114843,-0.032834,0.005803,30.97,67.8700108215068
982,-8.149954,-3.888935,3.651447,-0.098349,-0.048258,0.040623,30.97,67.9837158220917
992,-8.173284,-3.887738,3.645465,-0.077427,-0.065057,0.079718,30.97,68.0615101622146
1002,-8.172686,-3.869792,3.626921,-0.055436,-0.08323,0.123089,30.98,68.1445744607778
1012,-8.215756,-3.86381,3.63051,-0.032529,-0.103847,0.167835,30.98,68.2044528443114
1022,-8.279166,-3.841677,3.652644,-0.008094,-0.125075,0.213956,30.99,68.1887238155027
1032,-8.31446,-3.814159,3.676572,0.040164,-0.167835,0.302989,30.99,68.1039252323022
1042,-8.348558,-3.799204,3.710072,0.062461,-0.18891,0.344833,30.98,67.9774820875487
1052,-8.390432,-3.783651,3.755535,0.083536,-0.207541,0.381027,30.98,67.8031302376253
1062,-8.437692,-3.768696,3.808177,0.102167,-0.224035,0.412334,30.98,67.6038413967979
1072,-8.479566,-3.74716,3.86381,0.118508,-0.237932,0.436463,31,67.3745796191426
1082,-8.516056,-3.739383,3.928416,0.130114,-0.246942,0.453262,31,67.1022247870265
1092,-8.549556,-3.711268,3.991228,0.138208,-0.251982,0.462578,30.98,66.8180103592734
1102,-8.573483,-3.695715,4.065406,0.141873,-0.25244,0.463799,30.98,66.4692951562118
1112,-8.586046,-3.674777,4.136592,0.141721,-0.246331,0.456316,31,66.1105395791838
1122,-8.59143,-3.657429,4.20718,0.136834,-0.236405,0.43967,31,65.7452578788154
1132,-8.606983,-3.641278,4.269992,0.128129,-0.220522,0.414625,30.99,65.4442573018323
1142,-8.617152,-3.633501,4.316054,0.116064,-0.198989,0.381333,30.99,65.2258583730303
1152,-8.62134,-3.619144,4.369893,0.099571,-0.172722,0.341016,30.95,64.9505100398167
1162,-8.612965,-3.611368,4.419543,0.080634,-0.143553,0.293979,30.95,64.675886594152
1172,-8.595018,-3.586841,4.449454,0.059101,-0.110719,0.242819,30.98,64.4640199289998
1182,-8.574679,-3.583252,4.478765,0.034667,-0.0759,0.186619,30.98,64.2688840193826
1192,-8.562716,-3.554538,4.490132,0.009621,-0.039401,0.128587,30.98,64.1586036820857
1202,-8.510672,-3.535994,4.488935,-0.01741,0.034819,0.00901,30.98,64.0302022628182
1212,-8.480762,-3.528217,4.472186,-0.07086,0.072082,-0.0478,30.95,64.039492229722
1222,-8.452048,-3.529413,4.44048,-0.096211,0.107207,-0.102931,31,64.1357791248456
1232,-8.407781,-3.517449,4.408776,-0.12034,0.14111,-0.153022,31,64.1850043924255
1242,-8.385648,-3.518646,4.370491,-0.143248,0.173333,-0.198226,30.97,64.3313795432823
1252,-8.36471,-3.501896,4.331009,-0.163865,0.201586,-0.237474,30.97,64.4705887622483
1262,-8.335996,-3.516253,4.275974,-0.181885,0.226631,-0.271377,30.95,64.7033384549959
1272,-8.310272,-3.526422,4.228117,-0.198531,0.246637,-0.297186,30.95,64.9035726742459
1282,-8.299506,-3.519842,4.170092,-0.211665,0.260839,-0.314901,30.96,65.1761478717482
1292,-8.277372,-3.52702,4.111467,-0.222508,0.270766,-0.327118,30.96,65.4416231146411
1302,-8.253444,-3.535396,4.03729,-0.22938,0.275806,-0.328493,31,65.7890142508057
1312,-8.2349,-3.546762,3.981657,-0.233656,0.275348,-0.321315,31,66.0552806968624
1322,-8.233703,-3.540181,3.925426,-0.23442,0.271377,-0.305738,30.97,66.3474250643264
1332,-8.230114,-3.562315,3.888337,-0.23274,0.265421,-0.285274,30.97,66.559434274811
1342,-8.224131,-3.564708,3.836293,-0.229991,0.256105,-0.258396,30.98,66.8294237318276
1352,-8.225328,-3.569493,3.796213,-0.225562,0.245568,-0.224798,30.98,67.0531962205001
1362,-8.261818,-3.573681,3.722634,-0.218995,0.233503,-0.187688,30.95,67.5323415594873
1372,-8.278568,-3.591029,3.690331,-0.21029,0.220064,-0.104763,30.95,67.7577809561997
1382,-8.300702,-3.616153,3.659224,-0.190437,0.186314,-0.062919,30.98,67.9940329338908
1392,-8.3348,-3.615555,3.643072,-0.178525,0.166766,-0.019395,30.98,68.1497533518033
1402,-8.374879,-3.64068,3.623332,-0.165239,0.144928,0.022297,30.98,68.3581209982059
1412,-8.422137,-3.65384,3.601796,-0.150884,0.120035,0.060476,30.97,68.5785337449263
1422,-8.458031,-3.669394,3.598805,-0.136681,0.093768,0.095448,30.97,68.6773635216353
1432,-8.498111,-3.685545,3.595216,-0.120951,0.065363,0.126449,30.98,68.7872169898407
1442,-8.539386,-3.701099,3.591627,-0.104153,0.034514,0.151036,30.98,68.8979887173408
1452,-8.576474,-3.707081,3.589832,-0.086285,0.00168,0.169515,30.96,68.9826181519412
1462,-8.623135,-3.728616,3.588037,-0.069639,-0.034056,0.182343,30.96,69.0971429893337
1472,-8.641679,-3.739383,3.597011,-0.053145,-0.07086,0.186925,30.99,69.0926761342326
1482,-8.663813,-3.759125,3.61077,-0.036346,-0.106901,0.185092,30.99,69.0767836442199
1492,-8.687741,-3.772285,3.626323,-0.020617,-0.143095,0.177915,30.96,69.0495664702152
1502,-8.715857,-3.781856,3.644269,-0.006261,-0.177456,0.164323,30.96,69.0147974866802
1512,-8.712865,-3.784847,3.662215,0.007178,-0.210901,0.14508,31,68.9173695443624
1522,-8.71107,-3.795017,3.675974,0.017562,-0.243277,0.121104,31,68.8500485705841
1532,-8.702696,-3.808177,3.729214,0.025962,-0.272293,0.09499,30.99,68.56639411485
1542,-8.663215,-3.805784,3.767499,0.030696,-0.299629,0.065973,30.99,68.2896033984816
1552,-8.636295,-3.806981,3.805186,0.032987,-0.344528,0.005192,30.99,68.0421517005395
1562,-8.602198,-3.80399,3.84048,0.029322,-0.360105,-0.02474,31,67.7892220138918
1572,-8.570493,-3.815954,3.876971,0.022297,-0.373239,-0.053145,31,67.5470598701518
1582,-8.520243,-3.817749,3.921238,0.011759,-0.381485,-0.078343,30.96,67.2180174005451
1592,-8.497512,-3.811168,3.96072,0.000153,-0.385303,-0.100487,30.96,66.9605541618325
1602,-8.44427,-3.82074,4.007978,-0.013897,-0.386525,-0.117744,30.98,66.6147304428539
1612,-8.391031,-3.813561,4.04387,-0.030085,-0.383471,-0.130572,30.98,66.3109442853778
1622,-8.343773,-3.820141,4.085745,-0.046884,-0.377667,-0.139277,31.02,65.999947802731
1632,-8.31147,-3.832105,4.12403,-0.063988,-0.366672,-0.141415,31.02,65.7437778042107
1642,-8.263015,-3.832105,4.157529,-0.081092,-0.351247,-0.139583,30.95,65.4656081350253
1652,-8.223534,-3.826722,4.195216,-0.09728,-0.331547,-0.132863,30.95,65.178402319039
1662,-8.200203,-3.838686,4.215555,-0.112246,-0.306349,-0.121257,31,65.0337722318229
1672,-8.154141,-3.847061,4.253242,-0.124769,-0.276722,-0.104611,31,64.7449186496952
1682,-8.113463,-3.854837,4.278367,-0.135612,-0.24511,-0.087201,31,64.531906358802
1692,-8.085348,-3.848257,4.30409,-0.143553,-0.21029,-0.064294,31,64.3280054185201
1702,-8.083553,-3.849453,4.313661,-0.148288,-0.173486,-0.040623,31.02,64.2755100637937
1712,-8.070992,-3.853043,4.348357,-0.150273,-0.135765,-0.014508,31.02,64.0709306301977
1722,-8.079964,-3.856034,4.362714,-0.149051,-0.057421,0.036194,30.95,64.020258636612
1732,-8.085946,-3.851846,4.366303,-0.13943,-0.017562,0.059559,30.98,64.0107675674579
1742,-8.105088,-3.859025,4.371687,-0.131489,0.021686,0.082772,30.98,64.03421529747
1752,-8.112864,-3.85065,4.365705,-0.122173,0.060323,0.103084,30.99,64.0736854106555
1762,-8.143971,-3.853641,4.358526,-0.111025,0.096822,0.119882,30.99,64.184209788111
1772,-8.179864,-3.85065,4.332206,-0.098502,0.131947,0.13439,31,64.3972291174767
1782,-8.202596,-3.839882,4.312464,-0.085827,0.163712,0.144775,31,64.5384147231826
1792,-8.233105,-3.838088,4.278367,-0.073151,0.191964,0.15012,30.97,64.7800301855656
1802,-8.27139,-3.82074,4.248456,-0.060476,0.215941,0.151495,30.97,65.0008567022034
1812,-8.305488,-3.823731,4.201797,-0.047953,0.236099,0.149357,30.98,65.3191622823381
1822,-8.332406,-3.812963,4.160521,-0.034819,0.249997,0.14508,30.98,65.5801736309824
1832,-8.37129,-3.811767,4.102495,-0.022144,0.257938,0.134696,30.99,65.9627691623137
1842,-8.38804,-3.786642,4.055834,-0.012065,0.260229,0.124617,30.99,66.2168700836924
1852,-8.410173,-3.786044,4.017549,-0.002596,0.257022,0.110567,30.99,66.4621792733311
1862,-8.420342,-3.777071,3.976273,0.005956,0.249538,0.094684,30.99,66.6906888868428
1872,-8.433504,-3.76391,3.930809,0.013134,0.237016,0.078191,30.95,66.9440319640311
1882,-8.441879,-3.741776,3.872783,0.018326,0.221439,0.061697,30.95,67.2465285334081
1892,-8.448458,-3.721437,3.852444,0.022297,0.179747,0.029932,30.99,67.3490782429055
1902,-8.440681,-3.707081,3.829713,0.022907,0.156382,0.016341,30.98,67.4409689577445
1912,-8.4347,-3.698107,3.822534,0.020769,0.133474,0.004734,30.98,67.459040883218
1922,-8.429317,-3.689733,3.820141,0.01741,0.110414,-0.004276,30.97,67.4534737614988
1932,-8.414959,-3.668795,3.818347,0.010996,0.088728,-0.010232,30.97,67.4154279786783
1942,-8.408379,-3.656233,3.815954,0.003054,0.067806,-0.013134,30.98,67.4036969492673
1952,-8.386844,-3.644269,3.817749,-0.00336,0.050396,-0.012065,30.98,67.3396417831616
1962,-8.383254,-3.6341,3.829713,-0.011606,0.034208,-0.007636,30.97,67.2594338545534
1972,-8.380861,-3.629912,3.841079,-0.020311,0.021228,0,30.97,67.190185826828
1982,-8.365907,-3.607778,3.85065,-0.027794,0.008705,0.010232,31,67.0885339527274
1992,-8.369495,-3.605984,3.862614,-0.033598,-0.000458,0.023824,31,67.0305678405167
2002,-8.38804,-3.600002,3.861418,-0.040317,-0.00901,0.039401,30.98,67.0700366366698
2012,-8.391629,-3.6006,3.876971,-0.04383,-0.016646,0.056352,30.98,66.9952596642314
2022,-8.39462,-3.580859,3.88714,-0.047647,-0.02306,0.073457,30.99,66.9298755141265
2032,-8.434101,-3.588636,3.911667,-0.048411,-0.02978,0.090713,30.99,66.8888369813718
2042,-8.438289,-3.576073,3.905087,-0.049327,-0.035736,0.108276,30.97,66.9212610886812
2052,-8.468798,-3.573082,3.928416,-0.048869,-0.041692,0.124311,30.97,66.8587639922446
2062,-8.523833,-3.573082,3.942175,-0.046426,-0.049022,0.146913,30.96,66.9003068934642
2072,-8.540583,-3.573681,3.953541,-0.040928,-0.064446,0.154243,30.95,66.8758193137541
2082,-8.577072,-3.573082,3.955934,-0.037568,-0.071777,0.157756,30.95,66.9378461410212
2092,-8.590831,-3.589832,3.960122,-0.034972,-0.08094,0.158214,30.95,66.9585009751897
2102,-8.606983,-3.577868,3.972086,-0.031918,-0.090103,0.15348,30.95,66.9190543649835
2112,-8.623135,-3.588636,3.971487,-0.02978,-0.098655,0.145844,31.01,66.9643222929939
2122,-8.62134,-3.597609,3.979264,-0.028558,-0.108887,0.132558,31.01,66.9279012361916
2132,-8.629116,-3.595814,3.97388,-0.028558,-0.118966,0.117592,30.97,66.9701779409042
2142,-8.624331,-3.601198,3.968496,-0.02978,-0.128587,0.099418,30.97,66.9929645737852
2152,-8.62134,-3.598207,3.970889,-0.031918,-0.139277,0.078343,31,66.9719010206504
2162,-8.599206,-3.61077,3.979862,-0.035583,-0.149051,0.056352,31,66.8908347643458
2172,-8.573483,-3.618546,3.981059,-0.04047,-0.158978,0.032834,30.96,66.8386328940818
2182,-8.550752,-3.621537,3.987041,-0.045662,-0.168446,0.009316,30.96,66.7633602597317
2192,-8.502296,-3.629314,3.97747,-0.051771,-0.177304,-0.013592,31.02,66.7201042467387
2202,-8.460423,-3.637689,3.981059,-0.059559,-0.184176,-0.03543,31.02,66.621848872466
2212,-8.404789,-3.642474,3.993621,-0.066279,-0.189063,-0.053909,30.98,66.4438409548118
2222,-8.358727,-3.647858,4.0008,-0.073609,-0.192117,-0.071013,30.98,66.3137967858301
2232,-8.274979,-3.682554,4.017549,-0.080023,-0.193339,-0.085216,31.01,66.0795821776239
2242,-8.235497,-3.693322,4.0337,-0.093157,-0.18723,-0.105374,31.01,65.9196274131755
2252,-8.210971,-3.705884,4.054638,-0.097586,-0.180053,-0.111483,31.02,65.7680272556006
2262,-8.195418,-3.714857,4.078567,-0.100182,-0.16921,-0.113621,31,65.6165467645339
2272,-8.176275,-3.720241,4.101298,-0.101251,-0.155465,-0.113621,31,65.4600025867674
2282,-8.158329,-3.72383,4.122235,-0.100945,-0.138208,-0.112552,31,65.3136579563464
2292,-8.15773,-3.735196,4.15394,-0.100335,-0.118508,-0.109956,31,65.1568382423112
2302,-8.162517,-3.735196,4.182654,-0.097433,-0.095448,-0.105985,31.01,65.0166639864406
2312,-8.166105,-3.750151,4.196413,-0.09499,-0.06918,-0.10064,31.01,64.9677780835441
2322,-8.181659,-3.745964,4.235296,-0.091019,-0.04047,-0.094837,31.01,64.795021773095
2332,-8.20798,-3.746562,4.265805,-0.085979,-0.009163,-0.088117,31.01,64.6956801049993
2342,-8.237292,-3.745365,4.286144,-0.081551,0.022449,-0.083536,30.96,64.6544889083854
2352,-8.267202,-3.750151,4.311268,-0.076816,0.055894,-0.079107,30.96,64.5963329268845
2362,-8.292327,-3.748357,4.308277,-0.072235,0.089339,-0.075442,30.99,64.6657756724718
2372,-8.327023,-3.751348,4.318447,-0.06918,0.121868,-0.073304,30.99,64.6933773913078
2382,-8.362915,-3.753142,4.318447,-0.066126,0.153174,-0.07086,30.98,64.7742790497059
2392,-8.407183,-3.758526,4.30409,-0.064752,0.182343,-0.071319,30.98,64.9498196614346
2402,-8.425129,-3.747759,4.251448,-0.063377,0.208458,-0.071319,30.99,65.2476048732401
2412,-8.483154,-3.753741,4.23051,-0.06353,0.24908,-0.075136,30.99,65.4849643236566
2422,-8.504689,-3.75075,4.21077,-0.068417,0.262977,-0.077274,30.96,65.6288872907919
2432,-8.517851,-3.76391,4.155735,-0.071319,0.272446,-0.079107,30.98,65.9507910281934
2442,-8.536395,-3.771089,4.10728,-0.075595,0.275348,-0.08094,30.98,66.2449308406843
2452,-8.535797,-3.781856,4.044468,-0.08094,0.273057,-0.082161,30.99,66.5773204862792
2462,-8.523234,-3.790231,3.994219,-0.085827,0.264657,-0.082467,30.99,66.8195241254757
2472,-8.526226,-3.796811,3.941577,-0.091172,0.250913,-0.080787,30.98,67.1052320919177
2482,-8.508279,-3.795615,3.869792,-0.096517,0.230449,-0.077427,30.98,67.4435200843714
2492,-8.497512,-3.8004,3.81715,-0.10064,0.206014,-0.072693,30.96,67.7031659771921
2502,-8.458031,-3.807579,3.768696,-0.104305,0.177304,-0.066279,30.96,67.8878942288112
2512,-8.425727,-3.809972,3.709473,-0.106596,0.146455,-0.055131,30.94,68.1418062683391
2522,-8.390432,-3.808775,3.669992,-0.107665,0.113163,-0.041386,30.94,68.2832732652366
2532,-8.37129,-3.82074,3.622135,-0.106901,0.078496,-0.02474,30.96,68.5141437529151
2542,-8.335398,-3.814159,3.605386,-0.104,0.043219,-0.005498,30.96,68.5294206875041
2552,-8.303694,-3.809972,3.559324,-0.09896,0.007178,0.015577,30.99,68.714531259575
2562,-8.274979,-3.815356,3.541976,-0.091477,-0.0281,0.039554,30.99,68.758550564734
2572,-8.25464,-3.814159,3.525824,-0.081703,-0.062919,0.064294,30.98,68.8066203908055
2582,-8.240881,-3.822534,3.515056,-0.06918,-0.098197,0.116523,30.98,68.8466064164956
2592,-8.240283,-3.809972,3.543172,-0.037721,-0.163254,0.142942,31.01,68.6800914878405
2602,-8.255239,-3.788436,3.562315,-0.019853,-0.193797,0.16753,31,68.5851328353761
2612,-8.268398,-3.795017,3.597609,-0.000611,-0.22205,0.190743,31,68.4241457416746
2622,-8.305488,-3.785445,3.648456,0.018937,-0.246484,0.210138,30.95,68.2122955496833
2632,-8.318049,-3.77408,3.693322,0.039554,-0.267559,0.227089,30.95,67.9845500205036
2642,-8.35813,-3.760321,3.759723,0.057727,-0.284205,0.239306,30.97,67.6954120374635
2652,-8.39821,-3.741179,3.826123,0.074373,-0.29627,0.246484,30.97,67.4047565692761
2662,-8.422137,-3.722036,3.90389,0.088423,-0.304211,0.247859,30.94,67.0244880020834
2672,-8.460423,-3.710072,3.979264,0.100487,-0.304669,0.245873,30.94,66.6963975007588
2682,-8.482555,-3.696313,4.049254,0.108276,-0.299629,0.238696,30.96,66.3648903119002
2692,-8.507681,-3.671786,4.12044,0.11301,-0.28955,0.227547,30.96,66.0265427348917
2702,-8.534599,-3.66401,4.193422,0.112857,-0.274278,0.214261,31,65.7010645007126
2712,-8.548957,-3.658028,4.255635,0.110108,-0.254731,0.196699,31,65.4083677097442
2722,-8.557332,-3.644269,4.290331,0.103389,-0.233198,0.176235,30.97,65.2372462848076
2732,-8.562716,-3.633501,4.332206,0.094226,-0.209527,0.155007,30.97,65.0266608498556
2742,-8.562119,-3.616153,4.382454,0.083383,-0.184329,0.132405,30.96,64.7554674717866
2752,-8.550752,-3.613162,4.430311,0.068722,-0.15852,0.109803,30.96,64.4867042149952
2762,-8.530412,-3.604787,4.432704,0.034972,-0.104,0.064904,31,64.4217815042593
2772,-8.508279,-3.602993,4.432704,0.014966,-0.077122,0.043066,30.96,64.3708901958034
2782,-8.490333,-3.607778,4.418945,-0.004581,-0.049786,0.024435,30.96,64.4048766061558
2792,-8.455039,-3.61077,4.415954,-0.025809,-0.022144,0.005651,30.97,64.3440742977443
2802,-8.412566,-3.601796,4.397409,-0.04612,0.00504,-0.01069,30.97,64.3343712788374
2812,-8.38804,-3.602993,4.377071,-0.065821,0.032376,-0.023824,30.98,64.3840197100137
2822,-8.348558,-3.613162,4.353741,-0.084299,0.057269,-0.037263,30.98,64.4243734732227
2832,-8.321639,-3.61376,4.308876,-0.102014,0.082314,-0.047037,30.95,64.5949972817806
2842,-8.29472,-3.615555,4.28734,-0.118661,0.104763,-0.057574,30.95,64.6474753898053
2852,-8.283354,-3.622135,4.256832,-0.133321,0.125686,-0.064752,30.96,64.7864437125556
2862,-8.253444,-3.620341,4.219743,-0.145844,0.14508,-0.07254,30.96,64.9106768264179
2872,-8.240881,-3.622734,4.179663,-0.156076,0.162185,-0.078038,30.98,65.0944205598133
2882,-8.248059,-3.620341,4.143771,-0.163865,0.176693,-0.082925,30.98,65.2961915377463
2892,-8.239684,-3.626323,4.10728,-0.168904,0.189674,-0.087354,31,65.4754201236375
2902,-8.236693,-3.629314,4.076771,-0.17318,0.200211,-0.091935,31,65.6326811981932
2912,-8.236095,-3.621537,4.04746,-0.174707,0.207847,-0.096211,31,65.7789255002517
2922,-8.265409,-3.629314,3.972684,-0.173944,0.213345,-0.101251,31,66.246512426148
2932,-8.296515,-3.625725,3.949354,-0.171806,0.216399,-0.110719,31,66.4335749640994
2942,-8.317451,-3.63051,3.918247,-0.161879,0.21365,-0.114995,30.93,66.6477408347955
2952,-8.360522,-3.63051,3.902096,-0.155465,0.208305,-0.117592,30.93,66.8238857981213
2962,-8.369495,-3.638885,3.859025,-0.145997,0.198989,-0.120646,30.96,67.0791645671347
2972,-8.382057,-3.644867,3.839882,-0.135918,0.186772,-0.120646,30.96,67.2123596860104
2982,-8.412566,-3.645465,3.824927,-0.124922,0.171348,-0.120646,31,67.3549278325029
2992,-8.428718,-3.636492,3.798008,-0.114385,0.15348,-0.118355,31,67.5232255312274
3002,-8.444869,-3.649653,3.771089,-0.101098,0.133779,-0.112705,31.02,67.7107267282673
3012,-8.464012,-3.659224,3.754339,-0.088881,0.111483,-0.103084,31.02,67.8465604355744
3022,-8.467003,-3.658028,3.736392,-0.0759,0.087201,-0.091172,30.99,67.9471932291416
3032,-8.473583,-3.669992,3.728616,-0.062919,0.06017,-0.077122,30.99,68.0119651508056
3042,-8.487941,-3.671188,3.708875,-0.050549,0.032223,-0.060323,30.98,68.1466185551194
3052,-8.489137,-3.664608,3.708277,-0.038179,0.002443,-0.041539,30.98,68.146573560293
3062,-8.504092,-3.691527,3.709473,-0.026114,-0.026878,-0.020922,30.99,68.1923581239327
3072,-8.492128,-3.696911,3.71067,-0.015119,-0.056505,0.001833,30.99,68.1671487933039
3082,-8.491529,-3.707081,3.720241,-0.005498,-0.085827,0.024893,30.95,68.1236666915541
3092,-8.499905,-3.705884,3.756732,0.003207,-0.114843,0.048106,30.95,67.9450967196703
3102,-8.487342,-3.726821,3.78724,0.011606,-0.141415,0.093004,31,67.7766089604237
3112,-8.49452,-3.734598,3.814159,0.023824,-0.188146,0.110872,30.96,67.6552466794631
3122,-8.492128,-3.739982,3.845864,0.027489,-0.207694,0.12706,30.96,67.4879310858673
3132,-8.468199,-3.746562,3.878766,0.030085,-0.222813,0.140346,30.98,67.2724384867388
3142,-8.461619,-3.75733,3.913461,0.030238,-0.23274,0.147829,30.98,67.0863857535076
3152,-8.456833,-3.754937,3.953541,0.02978,-0.237779,0.152869,31.02,66.8643213536575
3162,-8.457432,-3.752544,3.985844,0.027031,-0.240681,0.153022,31.02,66.6944370618757
3172,-8.472386,-3.766901,4.021737,0.022907,-0.240834,0.148898,30.95,66.5512822597038
3182,-8.461619,-3.765106,4.04746,0.016035,-0.239459,0.139277,30.95,66.3936692719899
3192,-8.446067,-3.765705,4.077968,0.008705,-0.235947,0.127518,30.98,66.2034920674196
3202,-8.456833,-3.768098,4.109673,0.000305,-0.230449,0.112246,30.98,66.0640697243732
3212,-8.449057,-3.774678,4.129414,-0.009774,-0.224035,0.094226,30.99,65.9519108965393
3222,-8.436494,-3.776472,4.149154,-0.021228,-0.216246,0.073304,30.99,65.8252274764871
3232,-8.430512,-3.773481,4.171288,-0.033292,-0.207389,0.05116,30.98,65.6955985733626
3242,-8.417951,-3.768098,4.192824,-0.045968,-0.197462,0.027947,30.98,65.5527924576839
3252,-8.402995,-3.767499,4.210171,-0.058643,-0.18555,0.004581,30.97,65.4308994829689
3262,-8.387442,-3.771089,4.226922,-0.072693,-0.173944,-0.018173,30.97,65.3147217399496
3272,-8.355738,-3.768098,4.241877,-0.084452,-0.159436,-0.040012,31,65.1662386247544
3282,-8.3348,-3.778865,4.240082,-0.106596,-0.129351,-0.075442,30.97,65.1405588076939
3292,-8.310272,-3.772285,4.243671,-0.115759,-0.111941,-0.088881,30.97,65.0620588363581
3302,-8.283952,-3.766901,4.244269,-0.123853,-0.091935,-0.097738,30.97,64.9959554368895
3312,-8.263015,-3.773481,4.243073,-0.129503,-0.072846,-0.102167,30.97,64.9627199063706
3322,-8.239684,-3.77049,4.235895,-0.133474,-0.052534,-0.104153,30.97,64.9455194914977
3332,-8.216953,-3.763312,4.226922,-0.134085,-0.03146,-0.100487,30.97,64.9346708966232
3342,-8.206783,-3.767499,4.208377,-0.132558,-0.010385,-0.093768,31,65.0130080002157
3352,-8.179267,-3.756732,4.205984,-0.126144,0.010079,-0.082009,31,64.9536554085861
3362,-8.183454,-3.759125,4.191029,-0.119271,0.02978,-0.067959,30.97,65.0435378800491
3372,-8.172088,-3.728018,4.170092,-0.110719,0.050091,-0.050702,30.97,65.0965261405228
3382,-8.531011,-2.938386,4.48415,-0.114079,0.071624,-0.044135,30.98,63.5737364869718
3392,-8.246264,-3.778865,4.186841,-0.139125,0.094684,-0.064294,30.98,65.2233732564104
3402,-8.046464,-3.772285,4.055236,-0.124158,0.110719,-0.041692,30.94,65.4718454543685
3412,-8.195418,-3.757928,4.121039,-0.104153,0.125227,-0.011759,30.94,65.4355967858673
3422,-8.257033,-3.783053,4.12403,-0.086285,0.137445,0.011454,30.98,65.5787188468636
3432,-8.142776,-3.762714,4.053442,-0.071471,0.147677,0.029322,30.98,65.6825813116361
3442,-8.322237,-3.766901,4.089334,-0.053909,0.156382,0.053756,30.96,65.8841774900392
3452,-8.230114,-3.789633,4.02413,-0.028711,0.169515,0.077427,30.96,66.0525258751209
3462,-8.333005,-3.759723,4.04387,-0.016493,0.172722,0.089339,30.98,66.1380762046346
3472,-8.389835,-3.768098,4.049254,-0.008247,0.174249,0.093462,30.95,66.2374575551936
3482,-8.335398,-3.759125,4.003192,-0.002443,0.17318,0.092852,30.95,66.3561063788838
3492,-8.396414,-3.767499,3.994219,0.003207,0.171042,0.092852,30.99,66.5383715386286
3502,-8.457432,-3.755535,4.006183,0.005651,0.167072,0.087965,30.99,66.5910279395996
3512,-8.416754,-3.753142,3.961916,0.004581,0.160199,0.078496,30.96,66.7365170253534
3522,-8.447262,-3.732804,3.945765,0.003512,0.150884,0.071013,30.96,66.8654071284418
3532,-8.486743,-3.74058,3.953541,-0.000305,0.140957,0.06017,30.94,66.912428330312
3542,-8.459227,-3.734,3.92064,-0.006109,0.12874,0.047953,30.94,67.022827522371
3552,-8.471789,-3.720241,3.909274,-0.011912,0.114385,0.038332,30.98,67.0957722447779
3562,-8.501699,-3.721437,3.92064,-0.018784,0.097891,0.027642,30.98,67.097922722986
3572,-8.478369,-3.71067,3.890131,-0.028253,0.081092,0.017257,31.01,67.2012617427894
3582,-8.496913,-3.712464,3.885346,-0.038637,0.062614,0.009316,31.01,67.2655090723878
3592,-8.510075,-3.71067,3.881158,-0.048411,0.042455,0.002902,30.96,67.3124682953669
3602,-8.483753,-3.695116,3.865605,-0.05849,0.021533,-0.001833,30.96,67.3275837515127
3612,-8.48136,-3.681956,3.854239,-0.068111,-0.000305,-0.004581,30.97,67.3711619581906
3623,-8.484949,-3.693322,3.842275,-0.085827,-0.042913,-0.004123,31,67.4515189443743
3632,-8.474181,-3.681956,3.839882,-0.092546,-0.062919,0.000153,31,67.432537916953
3642,-8.492128,-3.682554,3.847061,-0.097586,-0.082925,0.007025,31,67.4312809447101
3652,-8.484351,-3.681358,3.845266,-0.100487,-0.103542,0.01405,31,67.4240541024945
3662,-8.459825,-3.678965,3.851248,-0.102167,-0.121868,0.022907,31.01,67.3408007702044
3672,-8.475977,-3.675974,3.856034,-0.101862,-0.139277,0.033903,31.01,67.3455622528212
3682,-8.461619,-3.681358,3.867399,-0.097738,-0.155771,0.044593,30.96,67.2611863245455
3692,-8.447262,-3.67418,3.877569,-0.09331,-0.170737,0.0562,30.96,67.1718990383733
3702,-8.454441,-3.676572,3.890131,-0.086437,-0.184634,0.069639,30.98,67.1223479833104
3712,-8.436494,-3.668197,3.890131,-0.076816,-0.19563,0.081703,30.98,67.0781964562668
3722,-8.423933,-3.667001,3.91406,-0.066279,-0.205556,0.09331,30.97,66.9249439494864
3732,-8.417352,-3.681358,3.931407,-0.052993,-0.214108,0.105222,30.97,66.8327888662158
3742,-8.413164,-3.67059,3.944568,-0.039554,-0.219606,0.114537,30.98,66.7450140660077
3752,-8.392226,-3.686144,3.957131,-0.025351,-0.22434,0.121715,30.98,66.6494465409532
3762,-8.386245,-3.68375,3.996014,-0.010996,-0.225715,0.129045,30.97,66.4301416369104
3772,-8.368897,-3.68375,4.025924,0.00336,-0.224798,0.131794,30.97,66.2365054281235
3782,-8.350951,-3.682554,4.072584,0.01741,-0.22098,0.133016,30.96,65.9526355407984
3792,-8.328817,-3.689135,4.095316,0.029932,-0.213956,0.127365,30.96,65.7924387371354
3802,-8.319246,-3.693322,4.127021,0.047647,-0.192881,0.121104,30.99,65.6100811173755
3812,-8.328817,-3.678366,4.149753,0.052687,-0.179136,0.112399,30.98,65.4979059749081
3822,-8.328219,-3.669992,4.177869,0.053603,-0.163559,0.099113,30.98,65.3422083415996
3832,-8.325229,-3.678366,4.208975,0.052382,-0.145233,0.085063,30.99,65.1822205737768
3842,-8.327621,-3.675375,4.232305,0.0478,-0.127213,0.069333,30.99,65.063706349629
3852,-8.312068,-3.671786,4.259224,0.04047,-0.106596,0.052076,30.98,64.8866091544667
3862,-8.310272,-3.672385,4.273581,0.031154,-0.085979,0.03543,30.98,64.8090332313457
3872,-8.317451,-3.672983,4.286742,0.018021,-0.064294,0.017562,30.98,64.7576699193956
3882,-8.312068,-3.667599,4.301099,0.002749,-0.041844,-0.000916,30.98,64.666394203912
3892,-8.310871,-3.659822,4.308876,-0.013439,-0.018631,-0.018784,31,64.6160038898121
3902,-8.31147,-3.67059,4.322036,-0.032223,0.005345,-0.034972,31,64.560243196565
3912,-8.306684,-3.667001,4.325625,-0.050244,0.030543,-0.049327,30.96,64.5275190944792
3922,-8.303095,-3.669394,4.328018,-0.070708,0.056505,-0.062919,30.96,64.5095356227018
3932,-8.312068,-3.663411,4.326822,-0.088423,0.081703,-0.074984,30.98,64.5298814230503
3942,-8.310871,-3.665804,4.322036,-0.107207,0.107818,-0.085063,30.98,64.5541741728044
3952,-8.310871,-3.661617,4.307679,-0.123395,0.132863,-0.094073,31,64.6239363562715
3962,-8.339585,-3.667599,4.260421,-0.138666,0.157909,-0.099266,31,64.9372314907414
3972,-8.339585,-3.661617,4.234099,-0.16081,0.203571,-0.105069,30.97,65.0674305965947
3982,-8.359925,-3.67418,4.204788,-0.167988,0.222813,-0.105374,30.98,65.2757923940512
3992,-8.365907,-3.662215,4.176672,-0.172264,0.24007,-0.103847,30.98,65.42310773243
4002,-8.368299,-3.66042,4.132405,-0.174097,0.253662,-0.101404,30.98,65.6566811965182
4012,-8.380263,-3.672385,4.088138,-0.172417,0.264047,-0.096059,30.98,65.9244083613667
4022,-8.406584,-3.683152,4.036094,-0.168904,0.270461,-0.090255,30.96,66.2622214923195
4032,-8.42453,-3.684947,4.008576,-0.162796,0.271835,-0.083841,30.96,66.4455593835229
4042,-8.429914,-3.687938,3.970291,-0.153633,0.268933,-0.076664,30.98,66.6602205572813
4052,-8.432307,-3.689733,3.926622,-0.142484,0.262061,-0.067042,30.98,66.8964011765704
4062,-8.438888,-3.685545,3.882953,-0.129962,0.250302,-0.059254,30.98,67.1364747336008
4072,-8.456833,-3.701099,3.829713,-0.11637,0.234267,-0.049175,30.98,67.4682208612862
4082,-8.478369,-3.702295,3.790231,-0.102473,0.215025,-0.039401,30.98,67.7216017349772
4092,-8.478369,-3.709473,3.754339,-0.087659,0.191659,-0.031001,30.98,67.9183997580623
4102,-8.486743,-3.713661,3.721437,-0.072693,0.165239,-0.021228,30.95,68.1135542024627
4112,-8.484351,-3.711268,3.704688,-0.058338,0.135918,-0.011454,30.95,68.1960869887068
4122,-8.490333,-3.712464,3.684349,-0.04444,0.103694,-0.003054,31,68.3173062645188
4132,-8.490931,-3.733402,3.637689,-0.031154,0.07086,0.005956,31,68.5856769494295
4142,-8.483154,-3.735196,3.635296,-0.01909,-0.000611,0.022144,30.95,68.5850588858657
4152,-8.484949,-3.735795,3.6341,0.000764,-0.036652,0.02978,30.96,68.5954238181216
4162,-8.483753,-3.737589,3.634698,0.009468,-0.072998,0.038026,30.96,68.5914402647733
4172,-8.47119,-3.748357,3.637689,0.016799,-0.110719,0.04383,30.96,68.5603971402724
4182,-8.472985,-3.739982,3.659224,0.021686,-0.146608,0.050396,30.96,68.4414014373586
4192,-8.462815,-3.736991,3.67418,0.026573,-0.180969,0.056658,30.94,68.3391043034664
4202,-8.444869,-3.745365,3.698706,0.028863,-0.214108,0.06185,30.94,68.1801864858944
4212,-8.443673,-3.728018,3.722036,0.029627,-0.245568,0.068264,30.96,68.0381351328791
4222,-8.436494,-3.721437,3.765106,0.031001,-0.272293,0.073457,30.96,67.7885007383654
4232,-8.423933,-3.735196,3.798606,0.030085,-0.296117,0.079565,30.97,67.5973462544442
4242,-8.41436,-3.735795,3.836293,0.027794,-0.316428,0.084758,30.97,67.378559439969
4252,-8.399406,-3.726821,3.899703,0.024893,-0.332616,0.088575,31,67.0043884995813
4262,-8.38445,-3.732804,3.934398,0.021075,-0.342848,0.093004,31,66.7959450782636
4272,-8.373683,-3.718446,3.987041,0.017257,-0.348346,0.09499,30.98,66.483094097946
4282,-8.35813,-3.713661,4.034299,0.01237,-0.347735,0.098197,30.98,66.1977703963951
4292,-8.34796,-3.726223,4.095914,0.007636,-0.341626,0.101251,30.97,65.8656825224403
4302,-8.340183,-3.717848,4.191627,0.00168,-0.328645,0.103389,30.97,65.3430627157177
4312,-8.336594,-3.716652,4.232903,-0.003512,-0.311999,0.104305,30.95,65.1204960692876
4322,-8.328817,-3.707679,4.280162,-0.012065,-0.26313,0.101556,30.97,64.8508533229237
4332,-8.330013,-3.70409,4.308876,-0.016952,-0.233351,0.098349,30.97,64.7022778035634
4342,-8.325827,-3.698107,4.34417,-0.020769,-0.200211,0.093768,31,64.5059602609367
4352,-8.315658,-3.689135,4.377071,-0.025198,-0.164323,0.088117,31,64.3058188625063
4362,-8.316854,-3.698107,4.394419,-0.029322,-0.127365,0.080023,30.95,64.2288383089827
4372,-8.322835,-3.69392,4.399803,-0.032681,-0.088117,0.071166,30.95,64.210645697626
4382,-8.327023,-3.690331,4.415356,-0.035888,-0.048564,0.060018,30.95,64.137220416108
4392,-8.337193,-3.686741,4.408178,-0.039706,-0.009316,0.049022,30.95,64.1931349679041
4402,-8.347363,-3.684349,4.412365,-0.042913,0.029169,0.036957,30.94,64.1923410106219
4412,-8.346166,-3.690331,4.395615,-0.04612,0.067042,0.023671,30.94,64.2808947996057
4422,-8.349755,-3.68375,4.376472,-0.049633,0.10232,0.010232,30.96,64.3800588528343
4432,-8.36471,-3.678366,4.362116,-0.05452,0.135459,-0.004123,30.96,64.4814826563004
4442,-8.368897,-3.686741,4.328018,-0.058032,0.166003,-0.019242,30.96,64.673325509561
4452,-8.371889,-3.677171,4.299304,-0.063072,0.193033,-0.032529,30.96,64.8177951079095
4462,-8.364112,-3.681358,4.262814,-0.067348,0.216399,-0.044746,30.99,64.992287961338
4472,-8.374281,-3.683152,4.214957,-0.07086,0.234725,-0.0562,30.99,65.2631083101992
4482,-8.382057,-3.685545,4.125825,-0.075442,0.249538,-0.067501,30.96,65.7442417063943
4492,-8.376076,-3.673581,4.089932,-0.084147,0.264199,-0.083841,30.96,65.9072159000234
4502,-8.370093,-3.681358,4.025924,-0.087048,0.264352,-0.088881,30.96,66.2368090161427
4512,-8.365907,-3.67418,3.982255,-0.089186,0.260687,-0.091477,30.98,66.4509871440687
4522,-8.363514,-3.677768,3.939782,-0.090713,0.25244,-0.093768,30.98,66.6734822946716
4532,-8.359326,-3.67059,3.894917,-0.091783,0.240834,-0.092852,31,66.8959292795913
4542,-8.350353,-3.672983,3.860221,-0.090561,0.226326,-0.090103,31,67.0640615260945
4552,-8.352745,-3.672983,3.833302,-0.088728,0.20861,-0.085674,30.95,67.2125186341466
4562,-8.35454,-3.669992,3.802195,-0.086132,0.189368,-0.078343,30.95,67.3797275523616
4572,-8.35454,-3.675974,3.78066,-0.08262,0.167835,-0.070708,30.95,67.500381905152
4582,-8.36112,-3.668795,3.758526,-0.077885,0.145844,-0.060781,30.95,67.626007168501
4592,-8.359925,-3.667599,3.751946,-0.072082,0.124006,-0.049938,30.99,67.6578489573084
4602,-8.360522,-3.676572,3.741179,-0.065057,0.100182,-0.038637,30.99,67.7248305912067
4612,-8.377871,-3.667599,3.736991,-0.057727,0.076816,-0.025962,31.01,67.7743053183906
4622,-8.383853,-3.658028,3.739383,-0.049175,0.053756,-0.012217,31.01,67.7650822435242
4632,-8.400601,-3.663411,3.744768,-0.040775,0.030391,0.000458,30.95,67.7745664043363
4642,-8.413164,-3.651447,3.760321,-0.031612,0.007483,0.013134,30.95,67.7060974466401
4652,-8.437692,-3.649055,3.78724,-0.022755,-0.012981,0.02642,30.99,67.6096900924315
4662,-8.454441,-3.644269,3.812365,-0.014813,-0.052076,0.049938,30.99,67.5056377686949
4672,-8.467602,-3.649653,3.839284,0,-0.06918,0.060018,30.96,67.3941695946605
4682,-8.490333,-3.646064,3.851846,0.005803,-0.08491,0.069944,30.97,67.3706131384241
4692,-8.499905,-3.643671,3.882953,0.010537,-0.098807,0.076358,30.97,67.2238578620443
4702,-8.503493,-3.636492,3.906283,0.014203,-0.111025,0.082467,30.99,67.1021397331217
4712,-8.511868,-3.655635,3.926622,0.016952,-0.121562,0.08659,30.99,67.0292087826033
4722,-8.526823,-3.64726,3.95055,0.018326,-0.130267,0.089339,30.97,66.9271623026176
4732,-8.550752,-3.65384,3.969693,0.017715,-0.138056,0.090561,30.97,66.8819677958537
4762,-8.544769,-3.662215,4.020541,0.010232,-0.153022,0.080787,30.96,66.6125293440074
4772,-8.545966,-3.678965,4.036094,0.006109,-0.155465,0.074831,30.96,66.5491741072003
4782,-8.534599,-3.677171,4.035496,0.001374,-0.157603,0.067806,30.93,66.5271836979154
4792,-8.538787,-3.686144,4.042674,-0.004123,-0.160199,0.05849,30.93,66.5066358810621
4802,-8.52443,-3.697509,4.053442,-0.009927,-0.162796,0.048564,30.96,66.4313030628876
4812,-8.512466,-3.699902,4.054638,-0.01741,-0.165086,0.037874,30.96,66.402435829377
4822,-8.496913,-3.692126,4.057629,-0.023518,-0.16753,0.0281,31,66.3475326209048
4832,-8.439486,-3.725027,4.054638,-0.029627,-0.169515,0.007483,31,66.2732227410443
4842,-8.419147,-3.732804,4.065406,-0.040928,-0.17089,-0.001985,30.99,66.1817256459767
4852,-8.395219,-3.726821,4.077968,-0.04612,-0.170737,-0.011759,30.98,66.0602635450759
4862,-8.369495,-3.728616,4.070191,-0.050702,-0.168904,-0.020311,30.98,66.0480701593603
4872,-8.337791,-3.742973,4.07737,-0.053603,-0.164475,-0.0281,30.95,65.9568632443664
4882,-8.312068,-3.742374,4.085146,-0.056505,-0.158978,-0.035277,30.95,65.8607315200694
4892,-8.288139,-3.753142,4.101298,-0.058796,-0.151189,-0.040928,30.99,65.7353106673212
4902,-8.268997,-3.744169,4.106682,-0.059559,-0.140194,-0.045509,30.99,65.6571246056328
4912,-8.23789,-3.737589,4.132405,-0.060018,-0.127213,-0.048411,31,65.4483748599207
4922,-8.234302,-3.745365,4.139583,-0.059407,-0.111636,-0.049633,31,65.4106507401629
4932,-8.219944,-3.74716,4.149154,-0.058185,-0.093615,-0.051313,30.98,65.3309356829778
4942,-8.209177,-3.729812,4.165306,-0.056047,-0.073151,-0.050396,30.98,65.2053685858361
4952,-8.203793,-3.736991,4.183851,-0.053451,-0.052076,-0.050244,31,65.1036495541139
4962,-8.199007,-3.741179,4.190431,-0.05116,-0.028558,-0.050549,31,65.0628895871376
4972,-8.204989,-3.738187,4.20718,-0.049022,-0.004581,-0.0478,30.98,64.985632909234
4982,-8.207382,-3.727419,4.224528,-0.046426,0.020464,-0.045509,30.98,64.8896024382966
4992,-8.218747,-3.725625,4.231109,-0.042761,0.04612,-0.041081,31,64.8787850530998
5002,-8.248658,-3.712464,4.217948,-0.039706,0.071166,-0.037721,31,65.0004222624962
5012,-8.266006,-3.701099,4.234698,-0.034514,0.120799,-0.030391,30.99,64.9404824652951
5022,-8.307282,-3.552743,4.280162,-0.032223,0.143706,-0.025962,30.96,64.6518517800881
5032,-8.614759,-3.001796,4.609773,-0.061087,0.1715,-0.040164,30.96,63.1923322144687
5042,-8.337791,-3.735795,4.195815,-0.104,0.197004,-0.07086,31,65.3335896322623
5052,-8.182258,-3.713063,4.054638,-0.096211,0.212734,-0.057421,31,65.7126856798955
5062,-8.335996,-3.72383,4.12044,-0.088728,0.224493,-0.042302,30.98,65.7098236892796
5072,-8.397612,-3.718446,4.099504,-0.084147,0.233809,-0.031612,30.98,65.9453409858363
5082,-8.261818,-3.719643,3.991228,-0.079412,0.24007,-0.022144,30.99,66.2261896707854
5092,-8.399406,-3.719045,4.018147,-0.070402,0.242514,-0.004887,30.99,66.3742741822183
5102,-8.423334,-3.732205,4.010371,-0.067959,0.240834,0.002902,31,66.4770718945114
5112,-8.362915,-3.729214,3.917649,-0.064599,0.235489,0.012828,31,66.8366062602243
5122,-8.44427,-3.731009,3.931407,-0.061392,0.22602,0.023366,30.96,66.9330329488383
5132,-8.489736,-3.739982,3.91406,-0.060018,0.212887,0.030849,30.96,67.1246697566133
5142,-8.417352,-3.735795,3.848257,-0.05849,0.197004,0.036346,30.96,67.3212012916784
5152,-8.478967,-3.741179,3.841079,-0.057269,0.178067,0.044135,30.96,67.4878985789051
5162,-8.508877,-3.727419,3.84048,-0.058643,0.156687,0.047342,31,67.5387215888689
5172,-8.498111,-3.73041,3.778865,-0.058948,0.134085,0.049938,31,67.8453822084791
5182,-8.525029,-3.732804,3.765705,-0.061087,0.082009,0.054367,30.98,67.9700682470641
5192,-8.501101,-3.731009,3.744169,-0.06185,0.054825,0.053909,30.98,68.0357369783083
5202,-8.515458,-3.739383,3.734598,-0.06017,0.025962,0.055741,30.98,68.1217899374424
5212,-8.523833,-3.735795,3.744169,-0.061545,-0.004581,0.054672,31.02,68.0843166320751
5222,-8.510075,-3.726821,3.725625,-0.060934,-0.034819,0.053451,31.02,68.1481768352658
5232,-8.53161,-3.731607,3.734,-0.060018,-0.064141,0.052382,30.95,68.1497987168426
5242,-8.522038,-3.724428,3.74058,-0.058643,-0.093768,0.050244,30.95,68.0901170809078
5252,-8.514859,-3.721437,3.735196,-0.056963,-0.123089,0.048258,30.99,68.1020939481222
5262,-8.528618,-3.711268,3.749553,-0.053909,-0.151189,0.046273,30.99,68.0441977403843
5272,-8.525627,-3.71067,3.778267,-0.050549,-0.177304,0.04444,31,67.8858018448294
5282,-8.512466,-3.716054,3.790829,-0.046273,-0.200975,0.042913,31,67.7980204927802
5292,-8.493923,-3.711268,3.82074,-0.040928,-0.22266,0.041233,30.96,67.5989262743729
5302,-8.496913,-3.705286,3.842873,-0.036652,-0.241292,0.039859,30.96,67.4828432950327
5312,-8.473583,-3.696911,3.872185,-0.031001,-0.257632,0.038332,30.95,67.2739150690384
5322,-8.460423,-3.7005,3.907479,-0.025351,-0.270002,0.037874,30.95,67.0644469204472
5332,-8.449656,-3.692126,3.943372,-0.019548,-0.278707,0.037415,30.95,66.8461662984814
5342,-8.428718,-3.682554,4.009174,-0.013744,-0.284816,0.037721,30.95,66.4489984495731
5352,-8.390432,-3.686144,4.042076,-0.007789,-0.283747,0.040317,30.97,66.1996062101569
5362,-8.363514,-3.680161,4.082156,0.002443,-0.277638,0.043219,31,65.9271621802297
5372,-8.345568,-3.683152,4.110271,0.007178,-0.26817,0.045815,31,65.7446228378007
5382,-8.329416,-3.676572,4.136592,0.011148,-0.254884,0.048717,30.98,65.5660999109914
5392,-8.297112,-3.689135,4.159923,0.01573,-0.238696,0.054672,30.98,65.3862369606689
5402,-8.282157,-3.687938,4.185047,0.018326,-0.218995,0.059712,30.96,65.2213599077998
5412,-8.265409,-3.678965,4.213162,0.0197,-0.196546,0.06353,30.96,65.0292162013904
5422,-8.247462,-3.680759,4.229912,0.020769,-0.172569,0.067959,31.01,64.9039951988667
5432,-8.233105,-3.672983,4.255037,0.020769,-0.144775,0.07254,31.01,64.7335384807128
5442,-8.228917,-3.682554,4.259823,0.019395,-0.116064,0.076969,30.97,64.7088663333555
5452,-8.238488,-3.679563,4.283153,0.016341,-0.087354,0.079565,30.97,64.6062826560458
5462,-8.225926,-3.669394,4.290929,0.012523,-0.056963,0.083841,31.03,64.5274843158612
5472,-8.220542,-3.671188,4.286144,0.006872,-0.026114,0.084452,31.03,64.5419635810022
5482,-8.235497,-3.672983,4.289733,0.001069,0.004581,0.084299,30.96,64.5588569949621
5492,-8.248059,-3.668197,4.3005,-0.007025,0.034208,0.082467,30.96,64.5265979577511
5502,-8.252247,-3.667001,4.286144,-0.014966,0.063072,0.078954,31,64.6091227362658
5512,-8.2678,-3.662215,4.267001,-0.025962,0.090561,0.07254,31,64.7383841090758
5522,-8.317451,-3.661019,4.259224,-0.036805,0.116828,0.054672,30.98,64.8880175530574
5532,-8.346166,-3.653242,4.245465,-0.061697,0.162337,0.042455,30.95,65.0150818911467
5542,-8.373683,-3.648456,4.23051,-0.072693,0.180663,0.028253,30.95,65.1482602736439
5552,-8.402995,-3.653242,4.20718,-0.085063,0.197004,0.012675,30.95,65.3373115967497
5562,-8.419745,-3.647858,4.177869,-0.09728,0.210596,-0.005345,30.95,65.5200384217795
5572,-8.445468,-3.651447,4.152744,-0.108429,0.220217,-0.02306,31.01,65.7086976207057
5582,-8.462815,-3.644269,4.124628,-0.118661,0.228464,-0.039859,31.01,65.8846920705889
5592,-8.489137,-3.64726,4.092325,-0.128434,0.232434,-0.058338,30.98,66.1106165713563
5602,-8.501101,-3.63051,4.058227,-0.135459,0.232892,-0.076205,30.98,66.2976755465221
5612,-8.513663,-3.638885,4.027719,-0.14111,0.230602,-0.093462,31,66.4900505658032
5624,-8.52144,-3.638287,3.991228,-0.144622,0.225409,-0.107665,31,66.695757903136
5632,-8.535198,-3.638287,3.964907,-0.145386,0.218232,-0.117897,30.96,66.8614564758584
5642,-8.532208,-3.6341,3.917649,-0.14508,0.206625,-0.128282,30.96,67.0989542512526
5652,-8.526226,-3.637091,3.89073,-0.141415,0.192575,-0.134848,31.01,67.2306792698323
5662,-8.522038,-3.652644,3.862614,-0.135612,0.177151,-0.137139,31.01,67.3835625745519
5672,-8.523833,-3.653242,3.829713,-0.127365,0.158367,-0.136834,30.98,67.5611369955618
5682,-8.513064,-3.649653,3.807579,-0.117897,0.137292,-0.132863,30.98,67.6534810865521
5692,-8.478967,-3.664608,3.74716,-0.106138,0.114843,-0.125686,30.99,67.9191623614524
5702,-8.461619,-3.659224,3.73041,-0.079107,0.067042,-0.099113,30.99,67.9694715611169
5712,-8.446067,-3.667599,3.725625,-0.063377,0.041539,-0.082772,30.95,67.9713872315774
5722,-8.429317,-3.675974,3.709473,-0.048258,0.015424,-0.064904,30.99,68.0318591718585
5732,-8.417951,-3.680161,3.696911,-0.032987,-0.011454,-0.045662,30.99,68.0803425880272
5742,-8.399406,-3.682554,3.7005,-0.017257,-0.037568,-0.023518,31,68.0263870525196
5752,-8.408379,-3.698706,3.704688,-0.003207,-0.063225,-0.001833,31,68.035761089918
5762,-8.382057,-3.703491,3.709473,0.009468,-0.088117,0.019853,31.03,67.9620162593103
5772,-8.386844,-3.702893,3.736991,0.020464,-0.111636,0.038179,31.03,67.823381696754
5782,-8.383254,-3.702893,3.74058,0.031307,-0.134238,0.057269,31.01,67.7969692198216
5792,-8.371889,-3.702893,3.776472,0.039095,-0.153785,0.074526,31.01,67.5819709178415
5802,-8.389236,-3.705884,3.804588,0.04444,-0.172264,0.08995,30.96,67.4695662069594
5812,-8.376076,-3.705884,3.831507,0.047189,-0.188299,0.101862,30.96,67.2994601660915
5822,-8.391031,-3.707679,3.865007,0.047495,-0.200822,0.111788,30.97,67.1535740935156
5832,-8.39462,-3.713063,3.900301,0.046578,-0.211818,0.11973,30.97,66.9788990135193
5842,-8.38804,-3.712464,3.934398,0.042761,-0.219759,0.12202,30.95,66.7847014983021
5852,-8.398808,-3.720839,3.97388,0.036957,-0.22602,0.124464,30.95,66.6068551029653
5862,-8.417951,-3.722036,4.048058,0.029474,-0.229074,0.123089,31,66.2596114036278
5872,-8.412566,-3.718446,4.076173,0.020464,-0.227395,0.113774,31,66.0984212005766
5882,-8.42453,-3.717848,4.114459,-0.000458,-0.221744,0.106291,31,65.9242105959022
5892,-8.42453,-3.719045,4.144369,-0.01237,-0.213803,0.096669,31.01,65.7703918681675
5902,-8.433504,-3.717848,4.167699,-0.024435,-0.203418,0.08659,31.01,65.6678469741965
5912,-8.43111,-3.719643,4.193422,-0.036346,-0.191201,0.076053,31,65.5317883810662
5922,-8.429317,-3.725625,4.211967,-0.047342,-0.175624,0.063072,31,65.4381617331482
5932,-8.418548,-3.711866,4.224528,-0.057727,-0.158672,0.050702,30.98,65.3372593687721
5942,-8.413763,-3.726223,4.243671,-0.067195,-0.140194,0.038943,30.98,65.2422598744647
5952,-8.410173,-3.714857,4.249653,-0.074526,-0.119577,0.027794,30.98,65.192862334262
5962,-8.391629,-3.713063,4.252644,-0.080634,-0.098044,0.016188,30.98,65.1354448857609
5972,-8.389236,-3.716054,4.259224,-0.084605,-0.075595,0.004581,30.99,65.0993028841874
5982,-8.378469,-3.712464,4.262215,-0.086132,-0.052534,-0.004276,30.99,65.0569547894054
5992,-8.368897,-3.71725,4.250251,-0.08827,-0.028558,-0.013744,31.01,65.1022251333681
6002,-8.356335,-3.728018,4.25085,-0.087506,-0.00504,-0.021838,31.01,65.0821718922756
6012,-8.357532,-3.722634,4.23051,-0.085216,0.017257,-0.028253,31.02,65.1843943534887
6022,-8.345568,-3.718446,4.223332,-0.08094,0.039554,-0.033445,31.02,65.1913003880111
6032,-8.335996,-3.708277,4.190431,-0.075747,0.060628,-0.038179,31,65.3308898942429
6042,-8.306684,-3.713661,4.182056,-0.07086,0.079871,-0.043677,31,65.3157419725289
6052,-8.316854,-3.709473,4.149154,-0.056658,0.115301,-0.045357,30.98,65.5050269869677
6062,-8.315059,-3.702893,4.132405,-0.049938,0.129962,-0.04612,30.95,65.5821243873575
6072,-8.309675,-3.696313,4.105485,-0.044288,0.143095,-0.045815,30.95,65.7048462076729
6082,-8.303694,-3.689135,4.081557,-0.038332,0.153022,-0.044135,31,65.8104572597433
6092,-8.30788,-3.696313,4.071388,-0.032529,0.161574,-0.042761,31,65.879688455415
6102,-8.323434,-3.690929,4.039683,-0.029016,0.168446,-0.039706,31.01,66.0744095095552
6112,-8.323434,-3.681358,4.014558,-0.025045,0.172875,-0.037263,31.01,66.1976396342532
6122,-8.325229,-3.686741,3.994817,-0.022449,0.174097,-0.034208,30.98,66.3106055259822
6132,-8.333005,-3.684349,3.97388,-0.02138,0.173028,-0.030238,30.98,66.4353464779881
6142,-8.346166,-3.677171,3.955336,-0.020617,0.168904,-0.026725,31.01,66.554377963215
6152,-8.346166,-3.665206,3.926622,-0.020922,0.162948,-0.021686,31.01,66.6953858259116
6162,-8.367702,-3.659822,3.909274,-0.022297,0.153785,-0.016646,31.01,66.8273493076788
6172,-8.378469,-3.66042,3.892524,-0.023824,0.142179,-0.011148,31.01,66.9390611851967
6182,-8.389835,-3.650849,3.875176,-0.026114,0.129045,-0.005192,30.96,67.0459912911782
6192,-8.403594,-3.64726,3.865007,-0.029627,0.11301,0.000153,30.96,67.1250940740262
6202,-8.418548,-3.645465,3.850052,-0.032223,0.095448,0.005498,30.99,67.2335610832908
6212,-8.434101,-3.639483,3.84048,-0.034972,0.078954,0.012523,30.99,67.3108597465737
6222,-8.445468,-3.633501,3.8339,-0.042302,0.038179,0.025198,30.97,67.3636872540953
6232,-8.460423,-3.639483,3.838686,-0.044746,0.018937,0.032223,30.96,67.3739078560111
6242,-8.463414,-3.631108,3.847061,-0.046884,-0.000764,0.037874,30.96,67.3282984977247
6252,-8.472985,-3.623332,3.845864,-0.048564,-0.020769,0.043677,30.97,67.3473226211699
6262,-8.478369,-3.639483,3.856034,-0.049938,-0.040012,0.049786,30.97,67.3185045532774
6272,-8.501101,-3.62393,3.855436,-0.050396,-0.057727,0.054978,31.01,67.3542794310468
6282,-8.503493,-3.633501,3.865605,-0.050244,-0.076205,0.059865,31.01,67.3137408714941
6292,-8.510672,-3.624528,3.878167,-0.048717,-0.092546,0.063988,30.98,67.2543268694477
6302,-8.502895,-3.628117,3.898506,-0.046578,-0.108734,0.066737,30.98,67.1345202965823
6312,-8.513663,-3.629314,3.916452,-0.044593,-0.122937,0.069486,30.99,67.0632270783021
6322,-8.512466,-3.629314,3.930212,-0.041692,-0.134848,0.07086,30.99,66.9885650594463
6332,-8.518449,-3.639483,3.952943,-0.038026,-0.145386,0.07025,31.01,66.8906554150379
6342,-8.502296,-3.6341,3.9673,-0.034972,-0.153938,0.06857,31.01,66.7775336078975
6352,-8.501101,-3.644867,3.982255,-0.03146,-0.160505,0.06521,31,66.7063815275554
6362,-8.502296,-3.643072,4.00379,-0.0281,-0.165086,0.060628,31,66.5948226904306
6372,-8.490931,-3.650849,4.023531,-0.024282,-0.166919,0.056505,30.97,66.4751949603981
6382,-8.469995,-3.656831,4.051647,-0.020159,-0.167835,0.049633,30.97,66.2903401779771
6392,-8.461619,-3.675375,4.068995,-0.016952,-0.162796,0.032987,30.99,66.1993563740465
6402,-8.450253,-3.671786,4.082156,-0.010996,-0.158367,0.023824,30.97,66.1036914864712
6412,-8.4347,-3.679563,4.095316,-0.008705,-0.152869,0.014508,30.97,66.0095443721642
6422,-8.421539,-3.691527,4.104887,-0.007636,-0.145539,0.00504,30.98,65.9429838538298
6432,-8.394022,-3.696313,4.098905,-0.00672,-0.137445,-0.003971,30.98,65.9200419367679
6442,-8.390432,-3.69392,4.10728,-0.006567,-0.128129,-0.01237,30.96,65.8665413341425
6452,-8.373683,-3.702893,4.114459,-0.007025,-0.118966,-0.021991,30.96,65.8018369128497
6462,-8.353942,-3.705884,4.11386,-0.007483,-0.108734,-0.029322,30.98,65.7655025222173
6472,-8.336594,-3.719045,4.127619,-0.009774,-0.099113,-0.036805,30.98,65.6690968259826
6482,-8.315059,-3.709473,4.130012,-0.010996,-0.08827,-0.041692,31,65.6009577281536
6492,-8.309077,-3.715455,4.134798,-0.014508,-0.07758,-0.046578,31,65.5688220142234
6502,-8.303095,-3.717848,4.143172,-0.017562,-0.065973,-0.049786,31,65.5144961854186
6512,-8.291729,-3.724428,4.156333,-0.021533,-0.053756,-0.050244,31,65.4275934435946
6522,-8.277372,-3.728616,4.151547,-0.025351,-0.040012,-0.050702,31.01,65.4254251048368
6532,-8.26481,-3.72383,4.163511,-0.030849,-0.026114,-0.050396,31.01,65.3308776448992
6542,-8.254042,-3.726223,4.155136,-0.035583,-0.011148,-0.048106,31,65.353443936102
6552,-8.252846,-3.717848,4.168896,-0.04047,0.004581,-0.04383,31,65.2706705209207
6562,-8.258827,-3.723232,4.179065,-0.044746,0.019853,-0.034667,30.99,65.2360408794596
6572,-8.267202,-3.715455,4.1671,-0.055436,0.053603,-0.031307,31.01,65.3091360217046
6582,-8.260622,-3.719045,4.18086,-0.059712,0.07086,-0.025351,31.01,65.2264806461784
6592,-8.267202,-3.711268,4.170092,-0.063988,0.087659,-0.019242,31,65.2894060425976
6602,-8.283354,-3.716652,4.161119,-0.067653,0.104153,-0.014355,31,65.3767977182978
6612,-8.285748,-3.708875,4.158128,-0.07086,0.11973,-0.010079,31,65.390019087708
6622,-8.306085,-3.697509,4.153342,-0.072998,0.135918,-0.004581,31,65.4482311135261
6632,-8.325229,-3.701697,4.142574,-0.074526,0.15012,0.000305,31,65.5499554805901
6642,-8.333005,-3.696313,4.123432,-0.075289,0.163254,0.003818,31,65.6614085812275
6652,-8.345568,-3.683152,4.106084,-0.074526,0.174555,0.00733,31.01,65.7664867580364
6662,-8.371889,-3.69392,4.092923,-0.073915,0.184481,0.009621,31.01,65.9017759900129
6672,-8.38804,-3.687938,4.069593,-0.072693,0.192423,0.012828,31,66.0523425191308
6682,-8.395219,-3.686741,4.04387,-0.069944,0.197462,0.015424,31,66.2008878229155
6692,-8.430512,-3.675375,4.015755,-0.06689,0.201127,0.016799,31,66.4117546656065
6702,-8.437692,-3.678965,3.99721,-0.063683,0.20128,0.017868,31,66.5271041814106
6712,-8.460423,-3.678965,3.964309,-0.059254,0.198837,0.017562,31,66.7466685091975
6722,-8.465807,-3.676572,3.907479,-0.054825,0.193644,0.019242,31,67.0541446911253
6732,-8.513064,-3.672385,3.879364,-0.049022,0.184939,0.019242,30.97,67.2944377413051
6742,-8.513663,-3.673581,3.854837,-0.038943,0.15684,0.018631,30.97,67.4257916146521
6752,-8.53161,-3.671188,3.84048,-0.033903,0.137292,0.018937,30.97,67.535362717204
6762,-8.53819,-3.663411,3.811168,-0.029016,0.114232,0.017257,30.98,67.6963979241445
6772,-8.557332,-3.67059,3.786044,-0.025351,0.088117,0.01573,30.98,67.873072930039
6782,-8.563912,-3.667001,3.775874,-0.020464,0.060476,0.015882,30.98,67.9367207952098
6792,-8.566306,-3.669394,3.745964,-0.017562,0.029322,0.014813,30.98,68.1015845316314
6802,-8.569296,-3.661617,3.743571,-0.013286,-0.003054,0.012981,30.96,68.1135924731412
6812,-8.554939,-3.658028,3.736991,-0.009774,-0.036805,0.011606,30.96,68.1173570724061
6822,-8.563912,-3.672385,3.732205,-0.007789,-0.069944,0.010537,31,68.1722785780461
6832,-8.546564,-3.664608,3.732804,-0.005192,-0.104611,0.009927,31,68.1286855232222
6842,-8.535797,-3.67418,3.744169,-0.002902,-0.137292,0.010232,30.96,68.0553437998176
6852,-8.517851,-3.663411,3.762115,-0.000458,-0.168904,0.009774,30.96,67.9156489666606
6862,-8.502296,-3.677171,3.777669,0.001374,-0.197309,0.010385,30.97,67.8140812468478
6872,-8.478967,-3.665804,3.795017,0.002749,-0.224646,0.010537,30.97,67.6657563020823
6882,-8.458031,-3.669992,3.823731,0.004276,-0.247706,0.012828,30.99,67.4750188016823
6892,-8.438289,-3.66401,3.863212,0.005498,-0.267559,0.014661,30.99,67.2205203065069
6902,-8.4012,-3.67418,3.931407,0.007178,-0.282525,0.01741,31.03,66.7928550820603
6912,-8.374879,-3.655036,3.985844,0.00901,-0.298866,0.022602,31.03,66.4333203903538
6922,-8.355738,-3.664608,4.011567,0.009163,-0.299477,0.025962,31,66.266296218018
6932,-8.325827,-3.662813,4.060022,0.010232,-0.295812,0.029322,30.96,65.9460777089316
6942,-8.30788,-3.668795,4.108477,0.010079,-0.287259,0.031765,30.96,65.6589208019747
6952,-8.298308,-3.66042,4.136592,0.010232,-0.273668,0.034208,30.96,65.4829333283704
6962,-8.274381,-3.661617,4.180261,0.010079,-0.255494,0.037415,30.96,65.2034874449745
6972,-8.2678,-3.667001,4.217948,0.009163,-0.232587,0.040317,30.98,64.9978290405446
6982,-8.255239,-3.657429,4.255635,0.007483,-0.208458,0.041081,30.98,64.7645055181701
6992,-8.25165,-3.661019,4.272983,0.00504,-0.180205,0.042302,30.99,64.6700169425336
7002,-8.245069,-3.656233,4.309474,0.002596,-0.149051,0.043677,30.99,64.4614535979852
7012,-8.25464,-3.665206,4.32742,-0.001069,-0.115301,0.044593,31.03,64.3993691402363
7022,-8.243275,-3.667001,4.341179,-0.004581,-0.080481,0.044593,31.03,64.3044840318181
7032,-8.248658,-3.668197,4.350152,-0.009163,-0.045204,0.044135,30.98,64.2716516694348
7042,-8.264212,-3.669992,4.349553,-0.013439,-0.010079,0.041386,30.98,64.3117722533535
7052,-8.266603,-3.681358,4.353143,-0.018326,0.024282,0.038943,30.99,64.3101392876112
7062,-8.276175,-3.675974,4.341179,-0.023366,0.058948,0.036499,30.99,64.387870020694
7072,-8.294122,-3.672385,4.312464,-0.0281,0.091783,0.033139,30.98,64.5724527448884
7082,-8.32463,-3.678965,4.296313,-0.034361,0.149357,0.023213,30.98,64.7301967515478
7092,-8.335996,-3.677171,4.25743,-0.04444,0.174097,0.018326,30.96,64.954052490892
7102,-8.358727,-3.68734,4.234099,-0.050396,0.194561,0.012217,31,65.1343101882673
7112,-8.376674,-3.683152,4.2006,-0.055436,0.21197,0.005192,31,65.3425257823192
7122,-8.38804,-3.690331,4.1671,-0.06017,0.225257,-0.002443,30.98,65.5473732967149
7132,-8.399406,-3.698706,4.127021,-0.064752,0.233809,-0.010079,30.98,65.7875750145044
7142,-8.414959,-3.68375,4.099504,-0.068722,0.238696,-0.017715,30.99,65.9497418216009
7152,-8.428718,-3.681358,4.059424,-0.071624,0.240375,-0.026573,30.99,66.1853844224175
7162,-8.447262,-3.684349,4.021138,-0.07422,0.23839,-0.035277,30.97,66.4268331294795
7172,-8.453843,-3.687938,4.000201,-0.076511,0.231518,-0.04383,30.97,66.5532182142668
7182,-8.453843,-3.67418,3.970291,-0.077885,0.223271,-0.052382,31,66.6973926168239
7192,-8.465208,-3.680161,3.940979,-0.078649,0.21197,-0.059254,31,66.8799973487349
7202,-8.483753,-3.686741,3.905685,-0.079107,0.198226,-0.067348,30.96,67.1092026826821
7212,-8.478967,-3.686144,3.894917,-0.078802,0.182343,-0.074678,30.96,67.1555767170451
7222,-8.476574,-3.671786,3.86381,-0.077274,0.165392,-0.079718,31.02,67.302037140353
7232,-8.477771,-3.675974,3.869792,-0.075136,0.146608,-0.08491,31.02,67.2765732768444
7242,-8.483154,-3.676572,3.838088,-0.07254,0.12706,-0.087659,30.98,67.4553923691248
7252,-8.488539,-3.677768,3.829713,-0.069028,0.106749,-0.090103,30.98,67.5115398424998
7262,-8.472985,-3.662215,3.811168,-0.060323,0.066432,-0.089034,30.98,67.5649667842342
7272,-8.478369,-3.672983,3.812963,-0.055436,0.046426,-0.087354,31,67.5756204978987
7282,-8.460423,-3.661019,3.820141,-0.048717,0.027031,-0.082772,31,67.4910397011111
7292,-8.459227,-3.658028,3.808177,-0.042761,0.006567,-0.075747,31,67.5495172892768
7302,-8.449057,-3.661617,3.816552,-0.036499,-0.012981,-0.068722,31,67.4876694268317
7312,-8.454441,-3.658028,3.823731,-0.028863,-0.03146,-0.060628,30.97,67.457302079505
7322,-8.446664,-3.665804,3.828516,-0.021686,-0.049327,-0.050396,30.97,67.4230019897542
7332,-8.436494,-3.662215,3.830311,-0.014966,-0.066584,-0.038485,31,67.3897168825986
7342,-8.430512,-3.672983,3.847659,-0.008399,-0.082925,-0.026267,31,67.2950359807463
7352,-8.425727,-3.676572,3.85065,-0.001833,-0.097586,-0.013439,30.99,67.2726245642258
7362,-8.417951,-3.66401,3.860819,0.005192,-0.112399,0.001833,30.99,67.1916680139228
7372,-8.422735,-3.672983,3.876971,0.009316,-0.12538,0.015272,31,67.1238796832401
7382,-8.400601,-3.675974,3.888337,0.01405,-0.137139,0.031154,31,67.020957513538
7392,-8.393424,-3.677171,3.906881,0.017715,-0.147524,0.045815,31.03,66.9090786598365
7402,-8.389835,-3.689135,3.924827,0.02138,-0.157451,0.060018,31.03,66.8176401758852
7412,-8.395219,-3.68734,3.934398,0.024435,-0.165239,0.07254,30.98,66.7766274851562
7422,-8.374281,-3.692126,3.975077,0.02642,-0.171653,0.085521,30.98,66.522938820863
7432,-8.376674,-3.68734,3.994219,0.027184,-0.180816,0.106291,31,66.4227957711526
7442,-8.362316,-3.695715,4.01396,0.02642,-0.181427,0.11469,30.98,66.2965788945367
7452,-8.366504,-3.699902,4.0337,0.025351,-0.182038,0.119271,30.98,66.2057214738438
7462,-8.368299,-3.702893,4.051647,0.023671,-0.180511,0.123089,30.97,66.1182928962141
7472,-8.365308,-3.709473,4.066004,0.020464,-0.177762,0.124158,30.97,66.0430162019736
7482,-8.362316,-3.698107,4.092923,0.017715,-0.172111,0.123395,30.94,65.8852777608644
7492,-8.369495,-3.711268,4.109075,0.013439,-0.165544,0.119424,30.94,65.8288497133879
7502,-8.365308,-3.702893,4.123432,0.009163,-0.158061,0.113316,30.99,65.7371791891237
7512,-8.377273,-3.702893,4.144369,0.004429,-0.148135,0.10568,30.99,65.6540198289617
7522,-8.383254,-3.709473,4.159324,-0.000458,-0.136987,0.095448,31,65.5955500883084
7532,-8.386245,-3.708875,4.173083,-0.005803,-0.124006,0.083841,31,65.5301515763439
7542,-8.38146,-3.705286,4.188636,-0.011454,-0.110108,0.07025,31,65.4359275258435
7552,-8.388638,-3.70409,4.206582,-0.016952,-0.095448,0.054367,31,65.3575935521324
7562,-8.395817,-3.699304,4.217948,-0.022755,-0.078802,0.038026,31,65.3099454884523
7572,-8.391031,-3.699304,4.226922,-0.027336,-0.062003,0.022144,31,65.2533000581217
7582,-8.38804,-3.694518,4.23051,-0.032223,-0.04444,0.004123,31.01,65.223717332323
7592,-8.378469,-3.701099,4.244868,-0.036346,-0.025962,-0.012523,31.01,65.1352188561756
7602,-8.393424,-3.686741,4.242475,-0.040928,0.013286,-0.043371,30.97,65.1663705371771
7612,-8.373085,-3.681956,4.235895,-0.047342,0.03207,-0.058185,31.01,65.1512670314308
7625,-8.382057,-3.676572,4.231707,-0.049786,0.051618,-0.07025,31.01,65.1873049161159
7632,-8.373085,-3.676572,4.226922,-0.051924,0.069944,-0.081703,30.97,65.1923981298535
7642,-8.359326,-3.67418,4.216154,-0.052534,0.087506,-0.091019,30.97,65.2156714179446
7652,-8.35454,-3.668795,4.2006,-0.053451,0.105069,-0.096822,31,65.2805615432548
7662,-8.345568,-3.671786,4.189234,-0.053145,0.121409,-0.100945,31,65.3227774765725
7672,-8.335996,-3.663411,4.169494,-0.052993,0.136681,-0.103542,31,65.3964172676084
7682,-8.326425,-3.671188,4.149154,-0.052382,0.149509,-0.102778,31,65.4889438783644
7692,-8.322237,-3.658028,4.126423,-0.051313,0.162032,-0.099876,31.01,65.5858920015311
7702,-8.328817,-3.663411,4.106084,-0.049175,0.172722,-0.094379,31.01,65.7116220378678
7712,-8.328219,-3.665804,4.073781,-0.047037,0.181274,-0.087354,31.01,65.8818212577122
7722,-8.306085,-3.658028,4.051647,-0.045968,0.187536,-0.077733,31.01,65.9431788821358
7732,-8.325827,-3.659224,4.017549,-0.04383,0.191354,-0.068417,30.97,66.1661939769733
7742,-8.327621,-3.661019,3.994817,-0.041081,0.191812,-0.056047,30.97,66.2916175293443
7752,-8.333005,-3.652644,3.955934,-0.038332,0.191506,-0.042608,31.02,66.5008498871096
7762,-8.328817,-3.656233,3.923631,-0.036652,0.187688,-0.030085,31.02,66.6666708694634
7772,-8.34138,-3.662813,3.885944,-0.034361,0.180511,-0.002138,31.01,66.8992760758625
7782,-8.362316,-3.649055,3.866203,-0.030849,0.159589,0.011148,30.96,67.0352617508113
7792,-8.382656,-3.651447,3.852444,-0.029932,0.144011,0.022907,30.96,67.152581478678
7802,-8.395817,-3.652644,3.835695,-0.029627,0.126907,0.033903,30.96,67.2697817244173
7812,-8.426923,-3.651447,3.825525,-0.029474,0.107207,0.043677,30.96,67.3862331498082
7822,-8.437093,-3.644867,3.822534,-0.029169,0.086896,0.052687,30.95,67.4170016788487
7832,-8.453843,-3.647858,3.814758,-0.030085,0.064752,0.059712,30.95,67.4948455833001
7842,-8.487342,-3.651447,3.806383,-0.02978,0.041081,0.064752,30.98,67.6098437213124
7852,-8.498708,-3.654438,3.808177,-0.030085,0.016341,0.067195,30.98,67.6256996857373
7862,-8.511271,-3.647858,3.806383,-0.031307,-0.007483,0.068111,30.97,67.6546870341764
7872,-8.52443,-3.646064,3.822534,-0.031612,-0.032376,0.066584,30.97,67.5940829215436
7882,-8.535198,-3.655635,3.834498,-0.03146,-0.057421,0.064141,30.98,67.5607059616082
7892,-8.553144,-3.658028,3.842873,-0.03207,-0.082161,0.06017,30.98,67.5545354929834
7902,-8.562716,-3.662215,3.862614,-0.032223,-0.104153,0.054062,30.94,67.4735172034944
7912,-8.563314,-3.651447,3.881757,-0.03207,-0.126907,0.047037,30.94,67.3650634077397
7922,-8.574679,-3.663411,3.897908,-0.031001,-0.146608,0.039248,31.04,67.3136054962068
7932,-8.563314,-3.667599,3.922434,-0.029169,-0.164781,0.031765,31.04,67.1660929422937
7942,-8.542974,-3.667599,3.954139,-0.027336,-0.180053,0.023824,31,66.9592364313066
7952,-8.525029,-3.67059,3.979862,-0.02306,-0.202807,0.00504,30.97,66.7909564436786
7962,-8.516056,-3.682554,4.003192,-0.0197,-0.209832,-0.002902,30.97,66.6615607689314
7972,-8.489137,-3.682554,4.02413,-0.016188,-0.213956,-0.009927,31,66.4968337686557
7982,-8.471789,-3.685545,4.042076,-0.011912,-0.215483,-0.016493,31,66.3699764100215
7992,-8.439486,-3.696911,4.062415,-0.008247,-0.214414,-0.022297,30.99,66.2068006865229
8002,-8.423334,-3.690929,4.092325,-0.004123,-0.210443,-0.027642,30.99,66.0115344940188
8012,-8.383254,-3.697509,4.102495,0.000305,-0.203876,-0.031307,30.95,65.8795132760705
8022,-8.353344,-3.684349,4.107878,0.003512,-0.194255,-0.033598,30.95,65.7749714421104
8032,-8.340183,-3.705286,4.138985,0.007483,-0.18326,-0.035125,30.98,65.604424031133
8042,-8.325827,-3.709473,4.14736,0.009927,-0.169821,-0.035888,30.98,65.5338094995535
8052,-8.297112,-3.711866,4.156931,0.013439,-0.153938,-0.034514,30.99,65.4239360473514
8062,-8.273782,-3.720839,4.172484,0.014813,-0.136223,-0.033903,30.99,65.3007433884635
8072,-8.24148,-3.726223,4.190431,0.016188,-0.117592,-0.030849,30.99,65.1416161694327
8082,-8.228318,-3.718446,4.198207,0.016188,-0.096822,-0.027489,30.99,65.0642610173821
8092,-8.225328,-3.713063,4.202993,0.016799,-0.076205,-0.02306,30.95,65.0272954386746
8102,-8.199007,-3.714857,4.212564,0.014661,-0.053451,-0.017257,30.95,64.9207025164831
8112,-8.205587,-3.731607,4.214359,0.012675,-0.030391,-0.011148,30.99,64.9428620838243
8122,-8.199606,-3.725027,4.21077,0.00901,0.015424,0.001833,30.99,64.9416635585749
8132,-8.196614,-3.715455,4.224528,-0.000305,0.038179,0.007025,30.96,64.8535303199598
8142,-8.218747,-3.696313,4.211967,-0.006261,0.060018,0.013439,31,64.949115613738
8152,-8.208578,-3.719643,4.188636,-0.012828,0.081245,0.01909,31,65.0717828589812
8162,-8.232506,-3.714857,4.199404,-0.01909,0.101251,0.02474,30.96,65.0636917763472
8172,-8.251051,-3.702295,4.185047,-0.026267,0.119882,0.028863,30.96,65.1670453448169
8182,-8.285748,-3.705286,4.167699,-0.033139,0.136223,0.031765,30.96,65.3365991562706
8192,-8.294122,-3.694518,4.167699,-0.040164,0.152258,0.035125,30.96,65.3443967274445
8202,-8.312666,-3.695116,4.140181,-0.048106,0.164323,0.035888,30.97,65.5288620786266
8212,-8.353942,-3.694518,4.132405,-0.054672,0.174707,0.035888,30.97,65.6580619260143
8222,-8.380861,-3.690929,4.115057,-0.060323,0.182343,0.035125,30.98,65.8027865088249
8232,-8.404191,-3.681358,4.096512,-0.065057,0.187536,0.031918,30.98,65.9401701035737
8242,-8.422735,-3.675974,4.073781,-0.06918,0.189063,0.027794,30.97,66.0929440394907
8252,-8.455039,-3.677171,4.043272,-0.073151,0.189521,0.024435,30.97,66.3210829807971
8262,-8.483154,-3.664608,4.031308,-0.074984,0.187688,0.019242,30.98,66.4308234175282
8272,-8.490333,-3.665804,4.009174,-0.074831,0.182954,0.012217,30.98,66.5622029751313
8282,-8.501101,-3.659224,3.968496,-0.073915,0.176082,0.005498,30.96,66.7910351215189
8292,-8.53819,-3.649653,3.951149,-0.072693,0.166766,-0.008094,30.96,66.9493830892226
8302,-8.540583,-3.644269,3.930212,-0.06521,0.142942,-0.01405,31,67.059047523911
8312,-8.540583,-3.646064,3.925426,-0.060476,0.128434,-0.0197,30.97,67.0856561663618
8322,-8.546564,-3.656233,3.911069,-0.052993,0.113774,-0.026267,30.97,67.1817908551367
8332,-8.534599,-3.650849,3.891328,-0.045662,0.098655,-0.029627,30.98,67.2564107782556
8342,-8.529815,-3.644867,3.869194,-0.038179,0.081398,-0.033445,30.98,67.3579025055391
8352,-8.52144,-3.642474,3.851248,-0.02978,0.064141,-0.035888,31,67.4334700997083
8362,-8.500502,-3.650849,3.846462,-0.021075,0.046273,-0.036499,31,67.423746381698
8372,-8.502895,-3.652046,3.835097,-0.014203,0.027184,-0.036652,31.01,67.4896353146146
8382,-8.495717,-3.648456,3.828516,-0.005956,0.008399,-0.034972,31.01,67.5068810162112
8392,-8.480165,-3.645465,3.827918,0.000764,-0.011912,-0.033903,30.96,67.4761153133913
8402,-8.469396,-3.646064,3.824927,0.007636,-0.03146,-0.031001,30.96,67.470743311081
8412,-8.470592,-3.659822,3.824329,0.013439,-0.052076,-0.026725,30.97,67.4883002457242
8422,-8.455637,-3.650849,3.827918,0.017715,-0.072082,-0.021991,30.97,67.4312324860285
8432,-8.456235,-3.653242,3.837489,0.021075,-0.091935,-0.017715,30.99,67.3837881487462
8442,-8.436494,-3.645465,3.844668,0.024435,-0.110261,-0.012828,30.99,67.2987720376813
8452,-8.42812,-3.646064,3.865605,0.026267,-0.127671,-0.007178,31,67.1711680625909
8462,-8.41436,-3.654438,3.893123,0.027489,-0.145386,0.002902,31,67.0046168003129
8472,-8.408379,-3.66042,3.916452,0.026267,-0.173333,0.007789,30.98,66.8742684088685
8482,-8.380263,-3.658626,3.939184,0.024435,-0.18387,0.013134,30.96,66.6940942646122
8492,-8.374879,-3.661019,3.969095,0.02138,-0.192728,0.017868,30.96,66.5270981906629
8502,-8.373085,-3.665206,3.993023,0.018631,-0.198684,0.022602,30.97,66.4011003812318
8512,-8.36112,-3.665206,4.024727,0.014813,-0.201127,0.027031,30.97,66.2090607273683
8522,-8.34796,-3.663411,4.040879,0.010079,-0.201586,0.02978,30.99,66.0945363284645
8532,-8.34138,-3.677171,4.073183,0.00672,-0.200058,0.034208,30.99,65.9239399427225
8542,-8.345568,-3.665804,4.100101,0.003054,-0.193644,0.036499,30.98,65.7813136389507
8552,-8.333005,-3.673581,4.119842,-0.001527,-0.185398,0.04047,30.98,65.6584394179551
8562,-8.31446,-3.673581,4.148556,-0.005192,-0.174097,0.042608,31,65.468321900149
8572,-8.313862,-3.675375,4.176672,-0.008705,-0.160199,0.04383,31,65.3222479865262
8582,-8.318647,-3.684349,4.188636,-0.012217,-0.143706,0.045357,30.98,65.2791827674986
8592,-8.310871,-3.684349,4.217948,-0.014813,-0.125533,0.045815,30.98,65.1099622615806
8602,-8.306085,-3.696911,4.219743,-0.018173,-0.104153,0.045509,31,65.1024004005677
8612,-8.303694,-3.69392,4.243073,-0.020769,-0.081703,0.044746,31,64.9733366755487
8622,-8.303694,-3.695116,4.249055,-0.023671,-0.057879,0.04383,31.02,64.9435568086223
8632,-8.306684,-3.702893,4.265805,-0.025504,-0.032834,0.039706,31.02,64.8712516616079
8642,-8.310871,-3.693322,4.256832,-0.029932,0.017715,0.031765,30.99,64.9174435985706
8652,-8.317451,-3.697509,4.264608,-0.031765,0.043677,0.026878,30.98,64.8959383601444
8662,-8.322835,-3.693322,4.252644,-0.033445,0.069333,0.020159,30.98,64.9654961799337
8672,-8.343175,-3.694518,4.235895,-0.034208,0.092393,0.012828,31,65.097912159902
8682,-8.339585,-3.699304,4.23051,-0.03543,0.114079,0.005956,31,65.1225189794185
8692,-8.360522,-3.697509,4.202394,-0.035888,0.134696,-0.00168,31,65.311892355834
8702,-8.37129,-3.698107,4.177869,-0.036805,0.151953,-0.010232,31,65.462804730609
8712,-8.38804,-3.7005,4.162315,-0.037721,0.167377,-0.017104,31.01,65.5818172564307
8722,-8.400601,-3.706482,4.131807,-0.037721,0.180816,-0.026114,31.01,65.772607829961
8732,-8.405388,-3.71067,4.108477,-0.037415,0.189521,-0.034208,30.98,65.9079024306757
8742,-8.416155,-3.699304,4.072584,-0.037874,0.194866,-0.041539,30.98,66.1068755983647
8752,-8.441879,-3.7005,4.052245,-0.037568,0.197004,-0.04948,31,66.2680927076209
8762,-8.443074,-3.7005,4.016951,-0.037263,0.195477,-0.05681,31,66.4546990207819
8772,-8.462815,-3.702295,3.988835,-0.036805,0.191506,-0.062919,31.01,66.6442488922518
8782,-8.471789,-3.696313,3.966104,-0.036805,0.18387,-0.067501,31.01,66.7762892703551
8792,-8.473583,-3.698107,3.938586,-0.036346,0.17318,-0.071929,31,66.9257783639696
8802,-8.479566,-3.685545,3.899105,-0.03543,0.158978,-0.074984,31,67.1342276302763
8812,-8.480762,-3.680161,3.87398,-0.036041,0.124158,-0.079565,31,67.2642303483002
8822,-8.487342,-3.675974,3.866203,-0.035277,0.105069,-0.079107,30.97,67.3148821905287
8832,-8.47119,-3.673581,3.859025,-0.034514,0.084299,-0.077885,30.97,67.317974449235
8842,-8.459825,-3.681358,3.845266,-0.03375,0.063835,-0.074067,31,67.3745523070055
8852,-8.456833,-3.661019,3.846462,-0.032834,0.042608,-0.070097,31,67.3442850398519
8862,-8.455039,-3.672385,3.837489,-0.03207,0.021838,-0.064599,31.04,67.3981571582555
8872,-8.442476,-3.665804,3.84048,-0.030391,0.001222,-0.057727,31.04,67.3510625127421
8882,-8.444869,-3.671188,3.849453,-0.028711,-0.01741,-0.04948,30.98,67.313118186338
8892,-8.428718,-3.661617,3.854837,-0.026725,-0.036652,-0.040775,30.98,67.243251571525
8902,-8.42453,-3.664608,3.868596,-0.024435,-0.053298,-0.031307,31.01,67.1644359716378
8912,-8.408379,-3.666403,3.876373,-0.023366,-0.06857,-0.021228,31.01,67.0917347583729
8922,-8.410771,-3.657429,3.89073,-0.020159,-0.082009,-0.010996,31.01,67.0125685365132
8932,-8.391629,-3.661617,3.897908,-0.016646,-0.092852,0.001069,31.01,66.9388199122039
8942,-8.38804,-3.652644,3.916452,-0.012981,-0.102778,0.011606,30.97,66.8250826597816
8952,-8.375478,-3.649653,3.921238,-0.008247,-0.110108,0.022907,30.97,66.7708981893804
8962,-8.377871,-3.657429,3.945765,-0.004887,-0.116523,0.033445,30.96,66.6532323049014
8972,-8.374281,-3.661019,3.970889,-0.00168,-0.121409,0.042913,30.96,66.5163818481133
8982,-8.367103,-3.667001,3.987639,0.002596,-0.124158,0.062308,30.96,66.4185081961016
8992,-8.380263,-3.667001,4.002594,0.010079,-0.126144,0.070097,30.99,66.367531539595
9002,-8.368897,-3.66042,4.019344,0.014355,-0.125227,0.076358,30.99,66.2493932362484
9012,-8.380861,-3.669394,4.028317,0.017715,-0.123853,0.081092,30.97,66.2359260103835
9022,-8.388638,-3.667001,4.037888,0.020006,-0.120646,0.084299,30.97,66.1999955490057
9032,-8.380263,-3.668795,4.052843,0.021991,-0.117744,0.086743,30.99,66.1055719998193
9042,-8.386844,-3.677768,4.064209,0.023976,-0.11301,0.087965,30.99,66.068448466872
9052,-8.400003,-3.677171,4.077968,0.025045,-0.108581,0.087506,31,66.0240064500871
9062,-8.386844,-3.686144,4.093522,0.026114,-0.102778,0.085521,31,65.923256870181
9072,-8.386245,-3.689135,4.100101,0.025656,-0.097433,0.081703,30.97,65.8904964056455
9082,-8.386245,-3.689733,4.110271,0.025198,-0.091477,0.076969,30.97,65.8380922723476
9092,-8.39462,-3.681358,4.118646,0.024435,-0.084758,0.070097,30.98,65.804559444242
9102,-8.391629,-3.692126,4.115057,0.02306,-0.077274,0.063377,30.98,65.8269451620396
9112,-8.397612,-3.699902,4.135994,0.020159,-0.069486,0.053909,30.98,65.7382842480109
9122,-8.397612,-3.694518,4.136592,0.017257,-0.061087,0.044746,30.98,65.7301052063037
9132,-8.395219,-3.698706,4.136592,0.014203,-0.05284,0.034361,31.01,65.7289289332792
9142,-8.399406,-3.701099,4.141976,0.010843,-0.043066,0.022907,31.01,65.7122208059668
9152,-8.389835,-3.698107,4.163511,0.00733,-0.032987,0.012217,30.96,65.5772129392267
9162,-8.388638,-3.690331,4.171288,-0.000611,-0.011606,-0.009927,30.96,65.5269693871339
9172,-8.385049,-3.695116,4.155136,-0.00504,0,-0.020464,30.98,65.6074864183761
9182,-8.376674,-3.690929,4.171886,-0.009468,0.011454,-0.031612,31,65.4986021385547
9192,-8.378469,-3.701099,4.173083,-0.014508,0.024282,-0.04215,31,65.5059697244727
9202,-8.371889,-3.689135,4.178466,-0.018937,0.037263,-0.051007,31,65.4524394525111
9212,-8.355738,-3.696313,4.168896,-0.022907,0.050549,-0.059865,31,65.4739546492146
9222,-8.350951,-3.686741,4.174878,-0.026878,0.063835,-0.067195,30.97,65.4233487266012
9232,-8.356335,-3.690331,4.160521,-0.031001,0.077733,-0.073762,30.97,65.5130097730663
9242,-8.35813,-3.671188,4.157529,-0.034972,0.091477,-0.078496,30.98,65.5141843438742
9252,-8.344969,-3.67418,4.150949,-0.039401,0.104611,-0.082009,30.98,65.522729248831
9262,-8.339585,-3.666403,4.141976,-0.042455,0.116981,-0.084299,31.01,65.5503658270395
9272,-8.348558,-3.665804,4.130012,-0.045204,0.129198,-0.084147,31.01,65.6315989063142
9282,-8.344969,-3.665804,4.116851,-0.0478,0.141263,-0.082161,30.99,65.692512011947
9292,-8.348558,-3.666403,4.094718,-0.050244,0.151189,-0.080329,30.99,65.8164582063327
9302,-8.34796,-3.661019,4.086343,-0.051771,0.15913,-0.077733,31.03,65.8539078026022
9312,-8.352745,-3.659822,4.061218,-0.052687,0.166308,-0.072693,31.03,65.9946555192157
9322,-8.341978,-3.652644,4.012764,-0.052993,0.171653,-0.067195,30.99,66.2196545352916
9332,-8.36471,-3.650251,3.982853,-0.052229,0.175166,-0.05116,30.99,66.4232509757415
9342,-8.382057,-3.653242,3.968496,-0.049327,0.1715,-0.041844,30.99,66.5381955060211
9352,-8.389236,-3.655036,3.934398,-0.047342,0.166461,-0.032529,30.99,66.7348292983053
9362,-8.397013,-3.650849,3.907479,-0.044135,0.15852,-0.022602,30.99,66.8895717275624
9372,-8.420941,-3.655635,3.882355,-0.040317,0.147219,-0.011912,30.94,67.0762225148465
9382,-8.426923,-3.653242,3.865605,-0.03711,0.133016,-0.002138,30.94,67.1750810501238
9392,-8.436494,-3.650251,3.838088,-0.033139,0.116217,0.006414,31.01,67.3379030698172
9402,-8.456833,-3.662215,3.823731,-0.028558,0.096975,0.014661,31.01,67.4657964425514
9412,-8.483753,-3.661617,3.805186,-0.023366,0.075595,0.022602,30.98,67.6177806860582
9422,-8.483753,-3.666403,3.792624,-0.018479,0.052382,0.02978,30.98,67.6885440009841
9432,-8.49452,-3.662813,3.785445,-0.014355,0.027184,0.036346,30.99,67.7450320637467
9442,-8.508279,-3.666403,3.790231,-0.009468,0.001222,0.041081,30.99,67.7501492714457
9452,-8.514261,-3.673581,3.795017,-0.005651,-0.025809,0.043524,30.99,67.7428666400282
9462,-8.513064,-3.669992,3.785445,-0.001222,-0.052534,0.04444,30.99,67.7880930071563
9472,-8.529217,-3.679563,3.796213,0.003207,-0.078802,0.045204,30.97,67.7713695497581
9482,-8.52443,-3.678965,3.808177,0.007178,-0.103694,0.044899,30.97,67.6981318397348
9492,-8.522038,-3.684349,3.854239,0.009621,-0.127518,0.041692,30.97,67.4551027235923
9502,-8.504689,-3.68375,3.872185,0.011912,-0.149967,0.033139,30.97,67.3252166998769
9512,-8.513663,-3.678366,3.897908,0.014355,-0.187688,0.027642,30.99,67.203429125631
9522,-8.496315,-3.680759,3.931407,0.015577,-0.202655,0.020922,30.99,66.9944903976499
9532,-8.476574,-3.686741,3.95055,0.016341,-0.214414,0.013897,30.99,66.8590267469609
9542,-8.474181,-3.684349,3.985246,0.017104,-0.222355,0.007483,30.95,66.6703314647699
9552,-8.458031,-3.689135,4.019344,0.016952,-0.226631,0,30.95,66.4630214866023
9562,-8.450253,-3.689135,4.04746,0.017104,-0.228158,-0.006414,30.99,66.3001546547803
9572,-8.41436,-3.683152,4.083352,0.017104,-0.226326,-0.012981,30.99,66.0319839562153
9582,-8.395219,-3.685545,4.1007,0.015577,-0.220522,-0.019395,31.02,65.9031561671409
9592,-8.378469,-3.702893,4.129414,0.014355,-0.210596,-0.023824,31.02,65.7342844700722
9602,-8.346764,-3.695116,4.161717,0.014508,-0.199142,-0.028253,30.98,65.490652491995
9612,-8.339585,-3.696911,4.173083,0.014203,-0.182191,-0.031612,30.98,65.4177543191982
9626,-8.3013,-3.698107,4.225725,0.012675,-0.142637,-0.033139,31.04,65.062030573577
9632,-8.3013,-3.698107,4.225725,0.012675,-0.142637,-0.033139,31.04,65.062030573577
9642,-8.279764,-3.690331,4.233501,0.011759,-0.119577,-0.032223,31.01,64.9665087116975
9652,-8.263614,-3.702295,4.243073,0.010843,-0.09499,-0.029932,31.01,64.8929022701397
9662,-8.251051,-3.699304,4.256832,0.009774,-0.069486,-0.027642,31,64.7906137624695
9672,-8.240881,-3.696313,4.253242,0.00901,-0.042608,-0.023518,31,64.7835794746048
9682,-8.218149,-3.707679,4.251448,0.006261,0.012065,-0.013897,31,64.7535598629456
9692,-8.228318,-3.70409,4.243671,0.004734,0.039095,-0.007941,30.96,64.8130836770976
9702,-8.219944,-3.706482,4.250251,0.002749,0.065515,-0.001985,30.96,64.7625874752835
9712,-8.227122,-3.704688,4.237091,0.001222,0.091019,0.003818,30.96,64.845241891619
9722,-8.243872,-3.703491,4.216752,-0.000611,0.115148,0.010843,30.96,64.9871169889428
9732,-8.243872,-3.692724,4.19402,-0.003665,0.136834,0.016952,30.98,65.0949093204986
9742,-8.265409,-3.701099,4.175476,-0.005803,0.157909,0.022907,30.98,65.2473837688944
9752,-8.263614,-3.698107,4.157529,-0.009163,0.175013,0.027489,30.98,65.3342290247221
9762,-8.287541,-3.692724,4.126423,-0.012217,0.189215,0.03146,30.98,65.5438695734577
9772,-8.306684,-3.685545,4.11745,-0.015119,0.200364,0.034667,31,65.6254299303468
9782,-8.332406,-3.696911,4.089932,-0.018784,0.209221,0.036957,31,65.8357245791366
9792,-8.358727,-3.694518,4.055236,-0.022755,0.21533,0.037568,30.98,66.0713176966549
9802,-8.380263,-3.699902,4.044468,-0.026267,0.217163,0.036346,30.98,66.1783993004789
9812,-8.400003,-3.689733,4.012166,-0.029169,0.216552,0.034667,30.98,66.3797583536111
9822,-8.429914,-3.678366,3.992425,-0.032223,0.21197,0.030696,30.98,66.5354124538275
9832,-8.450253,-3.679563,3.969693,-0.035125,0.205556,0.026725,31,66.6979431253803
9842,-8.498111,-3.668795,3.932604,-0.036805,0.196088,0.02138,31,66.9813098845888
9852,-8.526823,-3.667599,3.909872,-0.039095,0.168141,0.006261,30.98,67.1579285716563
9862,-8.543573,-3.669992,3.896712,-0.040317,0.151189,-0.002443,31,67.2628854301437
9872,-8.547761,-3.665206,3.889533,-0.04047,0.133779,-0.012065,31,67.3048245108481
9882,-8.557931,-3.661019,3.878167,-0.041233,0.114079,-0.021533,31.02,67.3812867486502
9892,-8.566903,-3.652644,3.869194,-0.039554,0.094226,-0.030543,31.02,67.4391860192327
9902,-8.572288,-3.647858,3.872185,-0.037568,0.074526,-0.039095,30.98,67.4302078266079
9912,-8.711669,-3.065804,4.347759,-0.0562,0.05284,-0.051924,30.98,64.790264750929
9922,-8.624928,-3.668197,3.877569,-0.108429,0.031154,-0.079107,30.98,67.524404452859
9932,-8.448458,-3.66401,3.786642,-0.105527,0.009468,-0.083841,30.98,67.6475537073943
9942,-8.539386,-3.669394,3.841079,-0.095295,-0.012217,-0.080481,30.96,67.5462176520507
9952,-8.569895,-3.667001,3.861418,-0.087201,-0.032681,-0.081398,30.96,67.4982455901958
9962,-8.446664,-3.665804,3.80399,-0.080023,-0.051618,-0.08262,30.99,67.5532429422807
9972,-8.492725,-3.677171,3.829713,-0.069486,-0.07086,-0.077885,30.99,67.5194255927268
9982,-8.516056,-3.672983,3.870989,-0.062003,-0.087354,-0.073915,30.99,67.3450518177604
9992,-8.429317,-3.675974,3.845864,-0.054672,-0.103389,-0.069333,30.99,67.3047753735065
10002,-8.444869,-3.679563,3.879962,-0.046731,-0.117592,-0.060628,31.04,67.1591552273908
10012,-8.452645,-3.68734,3.888337,-0.039859,-0.130725,-0.053145,31.04,67.1377158265497
10022,-8.39462,-3.68375,3.908676,-0.034361,-0.152105,-0.035583,30.96,66.9080121879648
10032,-8.420342,-3.69392,3.932006,-0.023976,-0.159894,-0.025198,30.98,66.84716753214
10042,-8.344371,-3.689135,3.909274,-0.020617,-0.166613,-0.015424,30.98,66.8056394321538
10052,-8.342576,-3.709473,3.942175,-0.016799,-0.172417,-0.003512,30.95,66.6463873463229
10062,-8.347363,-3.704688,3.966702,-0.014508,-0.176235,0.007178,30.95,66.5223589002138
10072,-8.308478,-3.705884,3.981657,-0.013439,-0.178831,0.018784,31.04,66.3626738553497
10082,-8.30788,-3.716054,3.992425,-0.012675,-0.179442,0.030849,31.04,66.3141281614699
10092,-8.322237,-3.708875,4.015755,-0.011606,-0.17822,0.042302,31,66.2147277591944
10102,-8.295916,-3.736392,4.018147,-0.011606,-0.175776,0.052687,31,66.1724511670943
10112,-8.285149,-3.736991,4.041477,-0.012523,-0.172264,0.063072,31,66.0272523643281
10122,-8.286943,-3.732804,4.061218,-0.013134,-0.166308,0.072998,31,65.9232348050268
10132,-8.274979,-3.739982,4.066602,-0.015577,-0.159741,0.080329,30.98,65.8762449372231
10142,-8.283952,-3.745964,4.088138,-0.016646,-0.151036,0.088575,30.98,65.7882683982032
10152,-8.289336,-3.742374,4.11386,-0.018784,-0.141263,0.094226,30.99,65.6616847619255
10162,-8.292327,-3.744768,4.119842,-0.021228,-0.130267,0.099266,30.99,65.6391925475687
10172,-8.300103,-3.742973,4.136592,-0.023213,-0.11805,0.102473,30.98,65.5667771826764
10182,-8.304291,-3.729812,4.166502,-0.025198,-0.103847,0.104153,30.98,65.4071882643571
10192,-8.315059,-3.732804,4.171288,-0.027642,-0.088575,0.101404,30.99,65.4085959222291
10202,-8.325229,-3.725027,4.192824,-0.032376,-0.056047,0.09896,30.99,65.3113111355319
10212,-8.347363,-3.729214,4.193422,-0.03543,-0.039248,0.094531,30.99,65.3603590921277
10222,-8.347363,-3.726821,4.196413,-0.038179,-0.021533,0.08827,30.97,65.3425558097003
10232,-8.358727,-3.722036,4.211368,-0.039859,-0.003207,0.079718,30.97,65.2852505948458
10242,-8.376674,-3.723232,4.210171,-0.041844,0.014355,0.071624,30.95,65.3315215478528
10252,-8.383254,-3.711268,4.206582,-0.042608,0.03207,0.062156,30.95,65.3528056437099
10262,-8.396414,-3.711268,4.194618,-0.04383,0.050549,0.051924,30.98,65.4430269397296
10272,-8.401799,-3.705286,4.198207,-0.045051,0.066432,0.041692,30.98,65.4304225505753
10282,-8.41137,-3.696313,4.174878,-0.046273,0.082161,0.030849,31,65.5630246576893
10292,-8.413763,-3.703491,4.170092,-0.046578,0.097128,0.020311,31,65.5996855451986
10302,-8.430512,-3.695715,4.159324,-0.047647,0.110719,0.009774,30.98,65.6839138419626
10312,-8.426325,-3.689733,4.151547,-0.047647,0.122631,-0.00168,30.98,65.7095717082305
10322,-8.429914,-3.682554,4.129414,-0.047037,0.133627,-0.011148,31,65.8251629796725
10332,-8.431709,-3.671188,4.104887,-0.047037,0.141721,-0.0197,31,65.9457136473975
10342,-8.432307,-3.675974,4.08754,-0.047495,0.148593,-0.027642,30.97,66.0415852913138
10352,-8.416754,-3.669992,4.068995,-0.046426,0.154091,-0.034208,30.97,66.0997010717811
10362,-8.428718,-3.654438,4.034299,-0.047037,0.156687,-0.040012,30.99,66.2918744646106
10372,-8.425129,-3.637689,4.00379,-0.046273,0.155771,-0.046884,30.99,66.4288472794929
10382,-8.429914,-3.643072,3.981059,-0.047647,0.152411,-0.048106,30.99,66.5630515591741
10392,-8.422735,-3.638885,3.956532,-0.0478,0.146302,-0.047953,31.01,66.673273573434
10402,-8.422137,-3.638287,3.937988,-0.047037,0.13943,-0.04612,31.01,66.7692096918732
10412,-8.427522,-3.636492,3.910471,-0.048106,0.12874,-0.043371,30.99,66.9240103279806
10422,-8.428718,-3.62393,3.899703,-0.049327,0.117286,-0.039401,30.99,66.9722255385644
10432,-8.430512,-3.636492,3.872185,-0.049022,0.103236,-0.034667,31,67.1327274557983
10442,-8.428718,-3.627519,3.869792,-0.049786,0.088575,-0.028711,31,67.1337914458813
10452,-8.437093,-3.623332,3.847659,-0.050091,0.071777,-0.022449,31.01,67.2646657667248
10462,-8.437093,-3.628117,3.831507,-0.04948,0.053909,-0.01573,31.01,67.3546409003264
10472,-8.451449,-3.6341,3.832704,-0.050396,0.03543,-0.009468,30.97,67.3827144695206
10482,-8.445468,-3.618546,3.836891,-0.050396,0.015577,-0.001527,30.97,67.3347348866473
10492,-8.443074,-3.623332,3.832704,-0.050091,-0.00336,0.005498,30.98,67.3562752426276
10502,-8.451449,-3.620341,3.829713,-0.049022,-0.023671,0.012981,30.98,67.3865922915091
10512,-8.458031,-3.620939,3.838686,-0.047953,-0.043219,0.0197,30.95,67.3528779611427
10522,-8.459825,-3.621537,3.841677,-0.047342,-0.061392,0.025962,30.95,67.341187293833
10532,-8.471789,-3.624528,3.871587,-0.045204,-0.079871,0.030849,30.96,67.209851065952
10542,-8.463414,-3.632903,3.879364,-0.042608,-0.113163,0.039248,30.96,67.1589763049509
10552,-8.469396,-3.632305,3.904488,-0.039248,-0.128434,0.042913,30.96,67.0381184900246
10562,-8.464012,-3.6341,3.923033,-0.036346,-0.140804,0.044899,30.99,66.9309321785858
10572,-8.460423,-3.641876,3.932006,-0.034514,-0.151036,0.045204,30.99,66.8831966388311
10582,-8.458628,-3.646064,3.959523,-0.031612,-0.159436,0.045968,30.99,66.7385889137901
10592,-8.456235,-3.646064,3.974478,-0.029169,-0.166155,0.04444,30.99,66.6551450187785
10602,-8.451449,-3.643072,3.99063,-0.026267,-0.170584,0.043371,30.96,66.5578122712383
10612,-8.440681,-3.658028,4.016353,-0.024435,-0.171959,0.041081,30.96,66.4141332062298
10622,-8.437692,-3.654438,4.038486,-0.021533,-0.171959,0.038179,30.98,66.2888913526401
10632,-8.42812,-3.666403,4.061816,-0.018937,-0.170737,0.034972,30.98,66.1578868007343
10642,-8.418548,-3.679563,4.073183,-0.017562,-0.166003,0.029932,30.98,66.0905146715639
10652,-8.405388,-3.676572,4.085146,-0.015882,-0.160047,0.024435,30.98,65.9974684472663
10662,-8.38146,-3.682554,4.112065,-0.014355,-0.151647,0.020159,31.01,65.8117592987921
10672,-8.389236,-3.690929,4.11386,-0.013439,-0.141873,0.015577,31.01,65.8269320270415
10682,-8.372486,-3.687938,4.127619,-0.01237,-0.130572,0.009621,30.98,65.7166211492211
10692,-8.365907,-3.693322,4.141378,-0.012828,-0.119119,0.004429,30.98,65.6360112411839
10702,-8.359326,-3.707081,4.15394,-0.012828,-0.105832,-0.000458,30.98,65.5696703154519
10712,-8.34138,-3.72383,4.166502,-0.013286,-0.091477,-0.010232,30.98,65.481773818318
10722,-8.336594,-3.722036,4.176074,-0.015577,-0.06185,-0.014203,30.98,65.4199897840661
10732,-8.328817,-3.726821,4.1671,-0.016799,-0.04612,-0.018173,30.98,65.4543727080644
10742,-8.30788,-3.727419,4.174878,-0.018173,-0.029932,-0.021075,30.98,65.3690866393214
10752,-8.31446,-3.731607,4.172484,-0.020464,-0.014508,-0.02474,31,65.3999133248171
10762,-8.315658,-3.733402,4.165905,-0.022297,0.001833,-0.027794,31,65.4384615862093
10772,-8.31147,-3.733402,4.159324,-0.025198,0.016952,-0.030696,30.96,65.4636171821926
10782,-8.322835,-3.728616,4.162315,-0.0281,0.032529,-0.032529,30.96,65.4680280477951
10792,-8.319845,-3.73041,4.154539,-0.031001,0.047495,-0.032223,31.03,65.5037433682799
10802,-8.319246,-3.727419,4.154539,-0.033903,0.06017,-0.032223,31.03,65.4995461751755
10812,-8.327023,-3.734598,4.134798,-0.037263,0.072998,-0.032223,31.01,65.6260667517129
10822,-8.333005,-3.722036,4.141378,-0.041997,0.083994,-0.033292,31.01,65.5925764976349
10832,-8.333604,-3.721437,4.125226,-0.044746,0.094684,-0.032376,30.97,65.677432833551
10842,-8.344969,-3.716652,4.119244,-0.047647,0.103847,-0.031307,30.97,65.7284531461276
10852,-8.360522,-3.714259,4.095914,-0.05116,0.112399,-0.029627,30.98,65.8811282595361
10862,-8.362316,-3.710072,4.083352,-0.054214,0.11973,-0.027489,30.98,65.9465610964073
10872,-8.367103,-3.716652,4.072584,-0.056505,0.124311,-0.025504,31.04,66.019204296702
10882,-8.383254,-3.707081,4.040281,-0.06017,0.128434,-0.02306,31.04,66.2133303899505
10892,-8.396414,-3.687938,4.034299,-0.063683,0.132252,-0.017104,30.98,66.2546041536618
10902,-8.406584,-3.681956,4.008576,-0.064752,0.13271,-0.013897,30.98,66.4052307260364
10912,-8.405388,-3.697509,4.001398,-0.064599,0.13042,-0.010537,30.98,66.4546616401098
10922,-8.423334,-3.696911,3.982853,-0.064446,0.126602,-0.007178,31.01,66.5888015469112
10932,-8.419147,-3.675375,3.966104,-0.063835,0.12202,-0.002749,31.01,66.6484391143091
10942,-8.425727,-3.681956,3.949354,-0.062156,0.115606,0.00168,31,66.7561458733792
10952,-8.440084,-3.680759,3.928416,-0.060018,0.107665,0.004887,31,66.8948943785399
10962,-8.442476,-3.671188,3.907479,-0.055894,0.098655,0.009621,30.98,67.0015598272883
10972,-8.448458,-3.674777,3.896712,-0.051465,0.086896,0.014355,30.98,67.0738077238579
10982,-8.462815,-3.67059,3.88714,-0.045968,0.075442,0.018937,30.99,67.1499101754007
10992,-8.455637,-3.668795,3.870391,-0.040623,0.061697,0.021838,30.99,67.2221258001137
11002,-8.465807,-3.672983,3.869792,-0.034972,0.047037,0.026878,30.99,67.2496648369332
11012,-8.468199,-3.665804,3.853641,-0.028405,0.031001,0.031154,30.99,67.3335419117929
11022,-8.47119,-3.669992,3.847061,-0.022297,0.014203,0.033903,31.02,67.378059019997
11032,-8.479566,-3.672385,3.844668,-0.01405,-0.003054,0.036805,31.02,67.4097230418858
11042,-8.482555,-3.669992,3.839284,-0.007789,-0.02138,0.038943,30.95,67.44212297953
11052,-8.480762,-3.659822,3.849453,-0.001374,-0.040317,0.040775,30.95,67.3758773909154
11062,-8.474181,-3.662215,3.860221,0.004581,-0.075595,0.042608,30.97,67.3077461514336
11072,-8.489137,-3.659224,3.875176,0.014661,-0.092546,0.042302,31.03,67.2565460383983
11082,-8.485548,-3.66401,3.881158,0.0197,-0.108734,0.041997,31.03,67.2219218378157
11092,-8.478967,-3.657429,3.897908,0.022907,-0.123395,0.041233,31.02,67.1144964082809
11102,-8.460423,-3.657429,3.921238,0.025351,-0.137292,0.038026,31.02,66.9536800058617
11112,-8.451449,-3.651447,3.933203,0.02642,-0.14844,0.036499,30.98,66.8668970110372
11122,-8.449656,-3.666403,3.975077,0.02642,-0.158214,0.034056,30.98,66.6566121178445
11132,-8.440084,-3.656233,3.985844,0.026573,-0.16417,0.030391,31,66.5710583627623
11142,-8.435298,-3.655036,4.004987,0.026114,-0.168599,0.027794,31,66.4596390076492
11152,-8.419147,-3.655036,4.036692,0.023824,-0.1715,0.023671,31,66.2597276834062
11162,-8.400003,-3.656233,4.061218,0.02138,-0.170737,0.0197,31,66.0920505932566
11172,-8.404191,-3.655635,4.081557,0.018479,-0.167072,0.016188,30.98,65.9941976189629
11182,-8.383254,-3.652046,4.106682,0.01405,-0.161727,0.012523,30.98,65.8150372819926
11192,-8.35813,-3.655036,4.124628,0.010079,-0.152869,0.009774,30.96,65.6701635003668
11202,-8.359925,-3.661019,4.152744,0.005498,-0.140804,0.005803,30.96,65.5332879265521
11212,-8.346764,-3.656233,4.161717,0.000916,-0.127213,0.00336,30.98,65.4534714523328
11222,-8.330612,-3.661019,4.191029,-0.00336,-0.112857,-0.000305,30.98,65.2704103198804
11232,-8.324032,-3.664608,4.197609,-0.007941,-0.094684,-0.00336,30.98,65.2252704113995
11242,-8.307282,-3.664608,4.217948,-0.016493,-0.055283,-0.005192,30.99,65.0828250811017
11252,-8.304291,-3.658028,4.21735,-0.020006,-0.032834,-0.006261,30.99,65.0729253426459
11262,-8.295916,-3.66401,4.220341,-0.023366,-0.011759,-0.007483,30.98,65.0447185248193
11272,-8.293524,-3.655036,4.219144,-0.026878,0.010079,-0.008094,30.98,65.0368873962318
11282,-8.288139,-3.669394,4.209573,-0.030391,0.03207,-0.008552,30.99,65.088751047486
11292,-8.288737,-3.668795,4.200002,-0.032223,0.05452,-0.00733,30.99,65.1392710477913
11302,-8.290532,-3.673581,4.188636,-0.033903,0.074984,-0.007178,31.03,65.2070574598234
11312,-8.297112,-3.672385,4.178466,-0.035277,0.094379,-0.006414,31.03,65.2733184797519
11322,-8.307282,-3.692724,4.161119,-0.036805,0.112246,-0.005803,30.98,65.4056665373771
11332,-8.308478,-3.671786,4.145566,-0.038179,0.128282,-0.006567,30.98,65.4691658726347
11342,-8.325229,-3.685545,4.125825,-0.038943,0.141873,-0.005192,30.97,65.6218108732841
11352,-8.344371,-3.684349,4.100101,-0.039248,0.153633,-0.00504,30.97,65.7963055509671
11362,-8.362915,-3.672983,4.073781,-0.040317,0.161727,-0.006414,31.01,65.9629368429831
11372,-8.367103,-3.703491,4.049254,-0.039095,0.167224,-0.00672,31.01,66.128847968403
11382,-8.388638,-3.684349,4.03071,-0.039401,0.170279,-0.006872,30.98,66.2536719956408
11392,-8.413164,-3.681358,4.01396,-0.038179,0.170126,-0.008399,30.98,66.3902685458303
11402,-8.451449,-3.678366,3.966104,-0.038332,0.166461,-0.009927,30.96,66.7181624203515
11412,-8.477771,-3.690929,3.944568,-0.037721,0.150578,-0.014661,30.99,66.8965799085816
11422,-8.476574,-3.681358,3.930809,-0.036805,0.13943,-0.017562,30.99,66.9577807434068
11432,-8.483753,-3.681358,3.911667,-0.036652,0.125686,-0.021838,30.96,67.0729984915433
11442,-8.511868,-3.685545,3.90389,-0.036346,0.109345,-0.026267,30.96,67.1746841774312
11452,-8.511868,-3.674777,3.891328,-0.035736,0.092699,-0.030696,30.95,67.2312153242303
11462,-8.517851,-3.678366,3.882953,-0.035125,0.075289,-0.034361,30.95,67.2904529307986
11472,-8.52443,-3.675375,3.877569,-0.034972,0.0562,-0.038179,31.04,67.3294149241568
11482,-8.534002,-3.689733,3.885944,-0.034667,0.036957,-0.042761,31.04,67.3172065591306
11492,-8.526226,-3.686144,3.877569,-0.033903,0.018173,-0.046731,30.98,67.3423975040805
11502,-8.516654,-3.68734,3.879364,-0.033598,-0.000458,-0.050396,30.98,67.3147274311741
11512,-8.515458,-3.689135,3.887738,-0.033292,-0.018326,-0.053451,31.02,67.2698875013397
11522,-8.510672,-3.689135,3.888935,-0.032529,-0.035583,-0.056047,31.02,67.2539326016365
11532,-8.506484,-3.68375,3.901497,-0.031765,-0.051313,-0.05849,30.97,67.1747543071866
11542,-8.481958,-3.681358,3.905685,-0.02978,-0.064904,-0.059559,30.97,67.1007858861382
11552,-8.474779,-3.685545,3.919443,-0.028711,-0.077733,-0.060323,30.98,67.0175293758432
11562,-8.476574,-3.68375,3.929613,-0.027031,-0.088728,-0.059407,30.98,66.9661878233117
11572,-8.425129,-3.685545,3.949354,-0.025656,-0.098502,-0.058185,31,66.7581562986909
11582,-8.422137,-3.680161,3.956532,-0.023213,-0.112705,-0.051771,31,66.7093239747564
11592,-8.416155,-3.686741,3.978666,-0.017715,-0.11637,-0.046731,30.98,66.5865545764399
11602,-8.397013,-3.685545,3.978666,-0.014966,-0.11973,-0.041844,30.99,66.5455326024689
11612,-8.374879,-3.683152,3.989433,-0.01069,-0.121409,-0.035888,30.99,66.4403311316543
11622,-8.362915,-3.689135,4.00379,-0.006872,-0.121868,-0.0281,30.96,66.3451759805122
11632,-8.340781,-3.691527,4.007978,-0.002443,-0.121257,-0.018631,30.96,66.2786304501589
11642,-8.335398,-3.692724,4.010969,0.001374,-0.119424,-0.009927,31.03,66.2526092809008
11652,-8.319246,-3.695715,4.017549,0.005803,-0.11637,-0.000153,31.03,66.1865046439798
11662,-8.313264,-3.690929,4.030112,0.009927,-0.111636,0.010537,30.94,66.1030821020002
11672,-8.310871,-3.699304,4.031308,0.014966,-0.106291,0.020769,30.94,66.0996206984566
11682,-8.315059,-3.708875,4.045067,0.018631,-0.100335,0.031765,30.95,66.0452680399608
11692,-8.291729,-3.698706,4.053442,0.02306,-0.094226,0.041692,30.95,65.9416235252371
11702,-8.29472,-3.70409,4.055834,0.025962,-0.086743,0.051313,31.02,65.94060882482
11712,-8.28455,-3.708277,4.073183,0.029169,-0.078496,0.060781,31.02,65.8315873453217
11722,-8.291131,-3.716054,4.074379,0.031307,-0.069944,0.068417,30.98,65.8469470802836
11732,-8.287541,-3.709473,4.076771,0.032834,-0.061087,0.075595,30.98,65.820329003043
11742,-8.30788,-3.699902,4.101896,0.034514,-0.051007,0.080329,30.96,65.7232056471614
11752,-8.30788,-3.708277,4.111467,0.034208,-0.030696,0.088423,30.96,65.6811829499162
11762,-8.316256,-3.709473,4.113262,0.033139,-0.019548,0.089034,30.99,65.6910168912058
11772,-8.333005,-3.703491,4.119244,0.031001,-0.007941,0.088423,30.96,65.6901320119137
11782,-8.343773,-3.695116,4.13061,0.0281,0.002443,0.085063,30.96,65.6460629079782
11792,-8.34138,-3.701099,4.133003,0.026114,0.014508,0.082314,30.98,65.6341531812071
11802,-8.353344,-3.699902,4.133601,0.022755,0.025656,0.076664,30.98,65.655679705748
11812,-8.367103,-3.695715,4.13719,0.018784,0.036805,0.069028,31.03,65.6626365338729
11822,-8.377871,-3.681956,4.135396,0.013744,0.048258,0.061087,31.03,65.6820882060952
11832,-8.419745,-3.576672,4.265805,0.008247,0.059254,0.050702,31,64.9997246434732
11842,-8.558528,-3.35713,4.469792,-0.031765,0.083078,0.025962,31,64.0711920928414
11852,-8.413763,-3.722036,4.122235,-0.074373,0.106901,-0.005192,30.97,65.8649532764962
11862,-8.340781,-3.688536,4.054638,-0.073151,0.114843,-0.008552,30.97,66.0306062388062
11872,-8.43111,-3.696911,4.109075,-0.072082,0.120799,-0.013897,30.96,65.9465658631512
11882,-8.436494,-3.695116,4.093522,-0.071471,0.126296,-0.020769,30.96,66.0370590375209
11892,-8.374879,-3.696313,4.034299,-0.071166,0.13042,-0.029322,30.95,66.21693280957
11902,-8.462217,-3.684349,4.063612,-0.068875,0.133627,-0.032529,30.95,66.2368023072231
11912,-8.450253,-3.692126,4.023531,-0.069944,0.136376,-0.041233,30.99,66.4276718310755
11922,-8.468199,-3.680161,4.038486,-0.06857,0.13775,-0.050702,30.99,66.3762804816402
11932,-8.490333,-3.579663,4.104289,-0.069639,0.137139,-0.057574,31.01,65.9901152555875
11942,-8.456235,-3.669992,4.000201,-0.080176,0.133169,-0.063683,30.96,66.5419498438259
11952,-8.459227,-3.671786,3.978068,-0.081245,0.128434,-0.066126,30.96,66.6656368183398
11962,-8.474181,-3.675375,3.970291,-0.080329,0.122784,-0.068264,30.99,66.7405220737478
11972,-8.463414,-3.678366,3.945765,-0.078802,0.116675,-0.068875,30.99,66.8495772580125
11982,-8.469396,-3.676572,3.926622,-0.077885,0.108276,-0.06918,31.03,66.9608060521725
11992,-8.471789,-3.687938,3.915854,-0.0759,0.097891,-0.067042,31.03,67.0324104860829
12002,-8.458031,-3.67418,3.895515,-0.074678,0.086896,-0.064141,30.99,67.0991611783686
12012,-8.458628,-3.686741,3.875774,-0.072846,0.072693,-0.060018,30.99,67.2156540086056
12022,-8.466404,-3.678366,3.872783,-0.070708,0.057727,-0.05452,30.97,67.2398345839023
12032,-8.44427,-3.671188,3.845864,-0.068875,0.041844,-0.049327,30.97,67.3309145665921
12042,-8.452645,-3.690929,3.834498,-0.065668,0.025198,-0.041081,30.98,67.4254802206176
12052,-8.458628,-3.677768,3.824329,-0.062308,0.006567,-0.032529,30.98,67.4798627154984
12062,-8.438289,-3.685545,3.808177,-0.058948,-0.01237,-0.023671,30.95,67.5314341515371
12072,-8.435298,-3.679563,3.809972,-0.055283,-0.031001,-0.013286,30.95,67.5106051702884
12082,-8.435298,-3.68734,3.802195,-0.051313,-0.051771,-0.003818,31.02,67.5587875610019
12092,-8.439486,-3.686741,3.80399,-0.047037,-0.072846,0.005956,31.02,67.5571448369254
12102,-8.44427,-3.698706,3.820141,-0.037874,-0.11301,0.025656,30.97,67.4915528698684
12112,-8.438888,-3.692126,3.817749,-0.032987,-0.131489,0.034667,30.95,67.4876007506198
12122,-8.43111,-3.684349,3.832704,-0.028253,-0.15012,0.042761,30.95,67.3856423470969
12132,-8.435897,-3.695715,3.845266,-0.023213,-0.16753,0.050702,30.99,67.3388096114264
12142,-8.443673,-3.699304,3.858427,-0.018937,-0.182801,0.056658,30.99,67.2880926618625
12152,-8.422735,-3.690331,3.895515,-0.013592,-0.195324,0.06185,30.91,67.0413539639945
12162,-8.413763,-3.695116,3.913461,-0.00901,-0.206778,0.065668,30.91,66.9324785916657
12172,-8.425129,-3.690929,3.941577,-0.005803,-0.215177,0.068264,30.97,66.8039483828866
12182,-8.418548,-3.707081,3.967898,-0.002596,-0.221591,0.069486,30.97,66.6666374045993
12192,-8.402397,-3.695116,3.99063,0.000611,-0.224798,0.070402,30.96,66.5027064714705
12202,-8.405388,-3.699304,4.027121,0.002902,-0.224798,0.070097,30.96,66.3215721694081
12212,-8.393424,-3.696313,4.050451,0.006109,-0.22205,0.067348,31.04,66.1715737006844
12222,-8.391629,-3.692724,4.086343,0.007636,-0.217315,0.063072,31.04,65.9770386141974
12232,-8.377273,-3.686741,4.106084,0.009316,-0.208916,0.058796,30.98,65.837895683625
12242,-8.374281,-3.7005,4.13719,0.01069,-0.197309,0.054367,30.98,65.6826120031396
12252,-8.356933,-3.699304,4.156931,0.011454,-0.184023,0.050244,30.98,65.5415304794234
12262,-8.340781,-3.693322,4.201199,0.011759,-0.167683,0.044135,30.98,65.2710322123812
12272,-8.340781,-3.699304,4.224528,0.011454,-0.127518,0.032529,31,65.1560641185851
12282,-8.324032,-3.696911,4.229912,0.010996,-0.105527,0.027031,30.99,65.0891645106946
12292,-8.303095,-3.693322,4.242475,0.009774,-0.081856,0.022144,30.99,64.9745221726113
12302,-8.299506,-3.686144,4.246662,0.008705,-0.056963,0.017104,31.02,64.9378615932484
12312,-8.300103,-3.69392,4.260421,0.006261,-0.031154,0.012981,31.02,64.8756552495584
12322,-8.285748,-3.680759,4.256233,0.004276,-0.004581,0.008705,31,64.8525001371602
12332,-8.285149,-3.689135,4.252644,0.00168,0.02138,0.005498,31,64.8780262156644
12342,-8.293524,-3.695116,4.244868,-0.001069,0.047495,0.002291,30.98,64.9427467033171
12352,-8.292925,-3.680759,4.237689,-0.004734,0.072082,0.000764,30.98,64.9644937314896
12362,-8.294122,-3.681358,4.228117,-0.008858,0.095906,-0.001069,31.03,65.0173677995194
12372,-8.292925,-3.679563,4.204788,-0.011454,0.118661,-0.001985,31.03,65.1341221099225
12382,-8.306684,-3.684947,4.192824,-0.015577,0.138819,-0.003665,30.99,65.231799314363
12392,-8.296515,-3.684349,4.173681,-0.019242,0.157298,-0.004123,30.99,65.3085647458195
12402,-8.310871,-3.675974,4.158726,-0.022602,0.173944,-0.00336,31,65.4097691944629
12412,-8.318049,-3.67059,4.134798,-0.027031,0.187994,-0.004276,31,65.5450623674848
12422,-8.345568,-3.661617,4.108477,-0.031612,0.198989,-0.005192,30.97,65.733575314771
12432,-8.356933,-3.667001,4.058825,-0.034361,0.207236,-0.004429,30.97,66.0228744431762
12442,-8.383853,-3.66401,4.030112,-0.038637,0.212734,-0.005192,30.98,66.2278588322441
12452,-8.41137,-3.652644,4.006183,-0.043982,0.214719,-0.005651,30.98,66.4009866341943
12462,-8.425129,-3.64726,3.983452,-0.046426,0.210901,-0.006261,30.98,66.544266703295
12472,-8.445468,-3.655036,3.961916,-0.048869,0.205251,-0.00901,30.96,66.7067659327194
12482,-8.458628,-3.662215,3.932006,-0.050702,0.19624,-0.01069,30.96,66.8975931086482
12492,-8.473583,-3.655036,3.919443,-0.051771,0.184939,-0.013134,31.02,66.9880252886869
12502,-8.487342,-3.646064,3.908078,-0.053298,0.1715,-0.014355,31.02,67.0680805747968
12512,-8.511868,-3.637091,3.888337,-0.05452,0.156229,-0.017868,30.98,67.2141063121913
12522,-8.520842,-3.644269,3.878167,-0.053756,0.140041,-0.020006,30.98,67.2920401789421
12532,-8.528618,-3.648456,3.869194,-0.052687,0.122326,-0.022449,30.99,67.3585834904948
12542,-8.517851,-3.648456,3.85723,-0.05116,0.104305,-0.025198,30.99,67.3998638077345
12552,-8.526823,-3.649055,3.853043,-0.048411,0.084147,-0.027794,30.99,67.4405150191953
12562,-8.53819,-3.555136,3.911667,-0.046273,0.063835,-0.030238,30.99,67.0745869303111
12572,-8.606983,-3.439084,4.024727,-0.063225,0.040164,-0.036499,30.98,66.5280114573334
12582,-8.532805,-3.663411,3.823133,-0.080329,0.016341,-0.04383,30.98,67.6225238122414
12592,-8.491529,-3.646662,3.799803,-0.072846,-0.004429,-0.041539,30.96,67.6490042681619
12602,-8.52443,-3.67059,3.835097,-0.065668,-0.025504,-0.041539,30.96,67.5488512629234
12612,-8.472386,-3.666403,3.814159,-0.057879,-0.045357,-0.040775,30.96,67.5515442740209
12622,-8.511868,-3.663411,3.849453,-0.043371,-0.083536,-0.036805,30.97,67.4417429544766
12632,-8.490333,-3.689733,3.851846,-0.036499,-0.099876,-0.035583,30.97,67.4086905355109
12642,-8.452048,-3.666403,3.854239,-0.029932,-0.115454,-0.033445,30.97,67.2981381349149
12652,-8.471789,-3.677768,3.884149,-0.023518,-0.129809,-0.030391,30.97,67.1902986676586
12662,-8.461619,-3.684947,3.900899,-0.018021,-0.141873,-0.028711,30.95,67.0876779994798
12672,-8.42453,-3.688536,3.897908,-0.013134,-0.152564,-0.026725,30.95,67.0307823101098
12682,-8.438289,-3.686741,3.929613,-0.008399,-0.162643,-0.02306,31,66.8902735519342
12692,-8.426923,-3.689135,3.945167,-0.005345,-0.170584,-0.020922,31,66.787142149281
12702,-8.399406,-3.702893,3.948158,-0.00168,-0.175318,-0.017104,30.97,66.7269499377521
12712,-8.39821,-3.701697,3.981657,0.000611,-0.179594,-0.01405,30.97,66.5471395705926
12722,-8.380263,-3.707081,3.995416,0.002596,-0.180969,-0.011301,30.99,66.4423059546296
12732,-8.361719,-3.713661,4.018147,0.004123,-0.181885,-0.00733,30.99,66.2900944062176
12742,-8.35813,-3.72383,4.0337,0.005803,-0.180358,-0.003665,30.96,66.2104694330734
12752,-8.343773,-3.719045,4.052843,0.006109,-0.176693,0.000458,30.96,66.0752129767705
12762,-8.328817,-3.723232,4.058227,0.005345,-0.171348,0.004734,31.02,66.0191639352055
12772,-8.321639,-3.734598,4.072584,0.005803,-0.16417,0.008705,31.02,65.9394827285765
12782,-8.31446,-3.735196,4.100101,0.005345,-0.155618,0.014355,30.98,65.7807086428248
12792,-8.301898,-3.736392,4.119244,0.005651,-0.133474,0.022602,30.98,65.6548105759752
12802,-8.303095,-3.734,4.146762,0.004123,-0.120951,0.026878,31,65.5114813614933
12812,-8.286943,-3.737589,4.134199,0.002902,-0.106596,0.031001,31,65.5455554324266
12822,-8.276175,-3.741179,4.157529,0.002596,-0.091477,0.034819,31,65.4039442074424
12832,-8.278568,-3.739383,4.170092,0.001527,-0.074831,0.038637,30.98,65.3419027171429
12842,-8.287541,-3.734598,4.173083,0.000764,-0.057421,0.040775,30.98,65.3411758698515
12852,-8.298308,-3.732205,4.176074,-0.000458,-0.039706,0.043066,30.98,65.3467162463112
12862,-8.292925,-3.735795,4.178466,-0.001374,-0.020922,0.044746,30.98,65.3260699616502
12872,-8.309077,-3.722634,4.177869,-0.002291,-0.002291,0.045815,30.97,65.3514735321082
12882,-8.298907,-3.722036,4.183851,-0.00336,0.016035,0.04612,30.97,65.2976240998452
12892,-8.310272,-3.712464,4.183851,-0.00504,0.034361,0.044593,30.96,65.3130713457489
12902,-8.320443,-3.720839,4.181458,-0.006414,0.052076,0.043371,30.96,65.3558086563983
12912,-8.335398,-3.707081,4.17727,-0.007025,0.069333,0.04215,31,65.3967252712655
12922,-8.343773,-3.716054,4.159324,-0.008552,0.085979,0.039554,31,65.5167324077918
12932,-8.356335,-3.714857,4.152145,-0.009468,0.101404,0.036041,30.95,65.5799891381785
12942,-8.362316,-3.701099,4.14736,-0.01069,0.114385,0.032223,30.95,65.6045875112279
12952,-8.38146,-3.684349,4.112065,-0.010843,0.126907,0.028863,30.96,65.8134485575841
12962,-8.386844,-3.681956,4.100101,-0.012675,0.136528,0.018021,30.96,65.8850392870765
12972,-8.411968,-3.674777,4.072584,-0.013286,0.152411,0.012981,30.99,66.0752654242433
12982,-8.422735,-3.674777,4.06062,-0.013744,0.157298,0.007483,30.98,66.1604549217253
12992,-8.432905,-3.67059,4.039085,-0.014355,0.159589,0.001985,30.98,66.2904465183799
13002,-8.426923,-3.665206,4.027719,-0.013744,0.159894,-0.003054,30.97,66.3323461009745
13012,-8.47119,-3.511467,4.13719,-0.014966,0.158978,-0.00901,30.97,65.7170607959933
13022,-8.535797,-3.445066,4.172484,-0.041692,0.163254,-0.020617,30.99,65.6154766911102
13032,-8.426325,-3.680759,3.949354,-0.063377,0.164781,-0.034667,30.99,66.7563012157412
13042,-8.405987,-3.657429,3.897908,-0.057727,0.156382,-0.032834,30.96,66.964707016295
13052,-8.486146,-3.655635,3.932604,-0.053603,0.145233,-0.031765,30.96,66.9451708788812
13062,-8.479566,-3.656831,3.906881,-0.050244,0.132558,-0.032376,31.03,67.0679549665199
13072,-8.432905,-3.66401,3.853043,-0.048106,0.118508,-0.031765,31.03,67.2634169207243
13082,-8.498111,-3.649653,3.887738,-0.043677,0.104611,-0.027642,30.99,67.2002315968294
13092,-8.472386,-3.658626,3.870989,-0.042302,0.08827,-0.028253,30.99,67.2440858160691
13102,-8.457432,-3.657429,3.854837,-0.038637,0.072388,-0.025045,31.01,67.2980150890508
13112,-8.497512,-3.654438,3.878766,-0.036652,0.056352,-0.023518,31.01,67.2504414530533
13122,-8.469396,-3.640081,3.860221,-0.035888,0.039706,-0.022907,30.96,67.2786526119148
13132,-8.511868,-3.628716,3.90389,-0.03543,0.022449,-0.022449,30.96,67.1250355792433
13142,-8.511271,-3.64068,3.894917,-0.038332,-0.014203,-0.021533,31,67.1814018972263
13152,-8.483154,-3.634698,3.869194,-0.039554,-0.031765,-0.020159,30.96,67.2545303554023
13162,-8.489736,-3.655635,3.88714,-0.038026,-0.047037,-0.01909,30.96,67.1915785349901
13172,-8.496913,-3.645465,3.893123,-0.037263,-0.062461,-0.018631,31.02,67.1657872100465
13182,-8.474779,-3.649055,3.891926,-0.036194,-0.076664,-0.019395,31.02,67.1300962530065
13192,-8.472386,-3.650251,3.910471,-0.033598,-0.088117,-0.017868,30.98,67.0285550411346
13202,-8.458628,-3.661617,3.922434,-0.032987,-0.099724,-0.016952,30.98,66.9474193881205
13212,-8.448458,-3.664608,3.926024,-0.031154,-0.109956,-0.015577,30.95,66.9102655857135
13222,-8.44128,-3.665206,3.943372,-0.028711,-0.118661,-0.013286,30.95,66.804696773514
13232,-8.420941,-3.665206,3.953541,-0.026725,-0.125686,-0.011759,30.98,66.7090377047038
13242,-8.405388,-3.669992,3.961916,-0.023976,-0.130114,-0.009927,30.98,66.6369300772311
13252,-8.408977,-3.686144,3.976273,-0.020159,-0.133932,-0.005803,30.96,66.5836243380564
13262,-8.391031,-3.685545,3.991228,-0.017104,-0.13607,-0.002138,30.96,66.4669831010958
13272,-8.374281,-3.68375,3.994219,-0.013897,-0.137139,0.000764,30.98,66.4144478837282
13282,-8.352745,-3.687938,4.007978,-0.010232,-0.135765,0.004887,30.98,66.3005699986905
13292,-8.345568,-3.690331,4.024727,-0.005803,-0.133932,0.008858,30.98,66.1995370623821
13302,-8.33121,-3.70409,4.042076,-0.002138,-0.131489,0.012217,30.98,66.0908447622759
13312,-8.330612,-3.705884,4.052843,0.00504,-0.119577,0.022755,30.99,66.0347480509356
13322,-8.316256,-3.711866,4.060022,0.008399,-0.112857,0.025504,30.94,65.9721289401759
13332,-8.312666,-3.711268,4.071388,0.012065,-0.104611,0.029322,30.94,65.9042460146726
13342,-8.322835,-3.702893,4.070789,0.013744,-0.096364,0.033139,30.97,65.9211687970762
13352,-8.319845,-3.717848,4.088138,0.015424,-0.087506,0.035888,30.97,65.8381671667899
13362,-8.318647,-3.714857,4.099504,0.017715,-0.076511,0.037721,31.01,65.7732607060438
13372,-8.318049,-3.723232,4.116851,0.01909,-0.065973,0.039095,31.01,65.6893768283801
13382,-8.324032,-3.720839,4.112065,0.019548,-0.05452,0.039401,31,65.7249370564985
13392,-8.317451,-3.725625,4.119244,0.019395,-0.043066,0.039401,31,65.6779027430491
13402,-8.331809,-3.722634,4.126423,0.019242,-0.031612,0.038485,30.96,65.6684812809145
13412,-8.344969,-3.711866,4.132405,0.017562,-0.019395,0.037415,30.96,65.6553081695669
13422,-8.344969,-3.72383,4.137789,0.016188,-0.007636,0.034667,31,65.6387544804501
13432,-8.349156,-3.708875,4.131208,0.014203,0.003512,0.030238,31,65.6676909501711
13442,-8.377273,-3.705286,4.14078,0.011759,0.01573,0.026878,30.98,65.674930460387
13452,-8.386245,-3.702893,4.141976,0.00901,0.027794,0.021686,30.98,65.685706874879
13462,-8.392825,-3.70409,4.141378,0.004581,0.039095,0.01573,30.97,65.7040506151525
13472,-8.398808,-3.690929,4.13061,0.000916,0.049786,0.009163,30.97,65.7603419935103
13482,-8.419745,-3.701099,4.134798,-0.003512,0.068722,-0.005651,31,65.79290185113
13492,-8.413763,-3.695116,4.119842,-0.012675,0.07758,-0.012828,30.99,65.852119310725
13502,-8.416155,-3.681956,4.116253,-0.016493,0.085368,-0.020311,30.99,65.8635590040393
13512,-8.43111,-3.678965,4.111467,-0.021228,0.092241,-0.027642,30.98,65.9174758812519
13522,-8.44128,-3.686144,4.096512,-0.02474,0.098655,-0.034667,30.98,66.0233533576795
13532,-8.427522,-3.668197,4.083352,-0.028253,0.103847,-0.04047,30.98,66.046054973899
13542,-8.438888,-3.669394,4.070789,-0.031918,0.107818,-0.046578,30.98,66.136627245829
13552,-8.438888,-3.663411,4.06062,-0.034667,0.110261,-0.051465,30.96,66.1841180973194
13562,-8.430512,-3.659224,4.042674,-0.03711,0.111788,-0.0562,30.96,66.2562617199404
13572,-8.4347,-3.56411,4.122834,-0.039095,0.112246,-0.06017,30.97,65.7604304813308
13582,-8.486146,-3.510869,4.168297,-0.059865,0.109039,-0.063835,30.97,65.5877237381024
13592,-8.418548,-3.671786,3.973282,-0.077427,0.105374,-0.06857,31,66.6062040458015
13602,-8.389835,-3.650251,3.939782,-0.072998,0.100335,-0.064599,31,66.7032889383989
13612,-8.429914,-3.672385,3.949952,-0.068417,0.094837,-0.06017,31,66.7530229481473
13622,-8.423933,-3.66401,3.929015,-0.063225,0.088423,-0.056505,31,66.8433621945715
13632,-8.39462,-3.671786,3.899703,-0.057727,0.079718,-0.051465,31.01,66.9446700549787
13642,-8.42453,-3.671188,3.889533,-0.050855,0.070402,-0.042761,31.01,67.0594972829069
13652,-8.410173,-3.667599,3.859025,-0.044135,0.060018,-0.029932,30.98,67.1884745862696
13662,-8.432307,-3.666403,3.88056,-0.030238,0.036957,-0.020922,30.99,67.1186192235756
13672,-8.419745,-3.66042,3.870989,-0.023671,0.024282,-0.013592,30.99,67.1382337565432
13682,-8.400003,-3.671786,3.862614,-0.017715,0.010232,-0.006567,30.98,67.1523490701627
13692,-8.426923,-3.680759,3.879962,-0.011148,-0.002902,0.001222,30.98,67.1235668587855
13702,-8.415558,-3.675974,3.87398,-0.004734,-0.016188,0.007789,30.96,67.1276954762448
13712,-8.417951,-3.669992,3.866203,0.000764,-0.029932,0.015272,30.96,67.1684543437224
13722,-8.420342,-3.67418,3.882953,0.005498,-0.042913,0.021075,30.96,67.0883891342445
13732,-8.433504,-3.675974,3.89731,0.010385,-0.055436,0.026114,30.96,67.0410889080714
13742,-8.419745,-3.677768,3.912265,0.012981,-0.066737,0.028863,31,66.9354638647046
13752,-8.423334,-3.678366,3.923631,0.016341,-0.07758,0.033292,31,66.883435231829
13762,-8.425129,-3.676572,3.939184,0.017868,-0.08659,0.035277,31.02,66.8035709403414
13772,-8.419745,-3.685545,3.95055,0.019853,-0.093768,0.036805,31.02,66.740714926203
13782,-8.419147,-3.69392,3.983452,0.020769,-0.100335,0.03711,30.95,66.5742163568836
13792,-8.420941,-3.688536,3.99063,0.021075,-0.104458,0.037721,30.95,66.5353838029796
13802,-8.416155,-3.7005,4.015156,0.020311,-0.107054,0.035277,31.01,66.4078625674816
13812,-8.39462,-3.68734,4.031906,0.0197,-0.106596,0.033598,31.01,66.2627967142137
13822,-8.419745,-3.623332,4.171886,0.018326,-0.105832,0.032223,31,65.5280965490741
13832,-8.404789,-3.692724,4.09053,-0.00168,-0.096211,0.021533,31,65.9831954430182
13842,-8.372486,-3.698107,4.077968,-0.004429,-0.089644,0.017868,31.01,65.9850593524806
13852,-8.382057,-3.704688,4.09711,-0.004887,-0.081398,0.016188,30.97,65.9117745376872
13862,-8.372486,-3.712464,4.115057,-0.00504,-0.072235,0.012675,30.97,65.8052284241976
13872,-8.352745,-3.707081,4.115057,-0.00672,-0.062003,0.009468,31,65.7578341979097
13882,-8.367702,-3.712464,4.118048,-0.007483,-0.050244,0.00672,31,65.7794253302371
13892,-8.342576,-3.703491,4.142574,-0.006109,-0.036652,0.004276,30.97,65.5891842791819
13902,-8.343175,-3.703491,4.138985,-0.007483,-0.022907,0.001527,30.97,65.6091604043056
13912,-8.344371,-3.711866,4.141976,-0.008552,-0.010079,-0.001374,30.98,65.6041994752715
13922,-8.35155,-3.702295,4.135994,-0.007636,0.004887,-0.002443,30.98,65.6416431609092
13932,-8.340183,-3.705884,4.121039,-0.008705,0.018937,-0.004887,30.98,65.6985118186075
13942,-8.348558,-3.706482,4.127021,-0.008858,0.032834,-0.005498,30.98,65.6859239328052
13952,-8.36112,-3.699902,4.127021,-0.009316,0.045968,-0.007178,30.96,65.7066613709856
13962,-8.337791,-3.695715,4.115057,-0.011301,0.057879,-0.009163,30.96,65.7148583805572
13972,-8.361719,-3.70409,4.109673,-0.011301,0.068875,-0.009163,30.97,65.8022921685157
13982,-8.353942,-3.699902,4.080959,-0.011148,0.078954,-0.009316,30.97,65.93158844908
13992,-8.367103,-3.692126,4.051049,-0.011454,0.087048,-0.009927,30.97,66.1087962318566
14002,-8.375478,-3.689733,4.051647,-0.011606,0.098655,-0.010537,30.97,66.1211946038872
14012,-8.410771,-3.571288,4.155735,-0.019242,0.103236,-0.011301,30.96,65.5441223138299
14022,-8.407781,-3.691527,4.015156,-0.032987,0.106901,-0.015577,31,66.3820619052
