t_ms,ax,ay,az,gx,gy,gz,temp,ang_deg
12,-8.203195,-3.425924,4.375875,-0.009621,-0.081092,0.076664,30.99,63.7920699231148
22,-8.216354,-3.422335,4.418347,-0.026878,-0.040928,0.080329,31,63.599762108829
32,-8.239684,-3.418745,4.4339,-0.047037,-0.000305,0.080634,31,63.5712057553349
42,-8.282756,-3.424129,4.466204,-0.068111,0.040012,0.0759,31,63.5122772136868
52,-8.295319,-3.429513,4.477569,-0.089492,0.081092,0.068111,31,63.4889931007195
62,-8.323434,-3.424727,4.482953,-0.11133,0.122326,0.056658,31.05,63.5230069085454
72,-8.341978,-3.436093,4.473382,-0.133474,0.160505,0.041844,31.05,63.6262257604325
82,-8.400601,-3.452843,4.457231,-0.154854,0.198989,0.004429,31,63.8605913137784
92,-8.418548,-3.470191,4.436892,-0.192423,0.269697,-0.01573,31.01,64.021685649795
102,-8.431709,-3.485744,4.396214,-0.20861,0.300698,-0.03711,31.01,64.2734155780577
112,-8.447861,-3.504289,4.360919,-0.221286,0.328035,-0.057421,31.02,64.5072633701361
122,-8.464012,-3.512065,4.31725,-0.230449,0.350942,-0.079565,31.02,64.7737860037095
132,-8.475977,-3.538387,4.267001,-0.238543,0.370948,-0.099724,31.04,65.0819738834686
142,-8.483154,-3.546762,4.219743,-0.242514,0.386067,-0.118661,31.04,65.3482078965333
152,-8.495717,-3.580261,4.158726,-0.243583,0.395382,-0.134238,31.02,65.7203798460785
162,-8.507681,-3.588636,4.096512,-0.242514,0.400117,-0.147982,31.02,66.0753479964772
172,-8.513064,-3.616153,4.045067,-0.239612,0.400117,-0.160352,31,66.3783412867362
182,-8.519646,-3.639483,3.984648,-0.234572,0.394619,-0.16921,31,66.7274385072451
192,-8.514261,-3.655036,3.918845,-0.228311,0.385151,-0.173486,30.98,67.0743505451641
202,-8.519646,-3.675974,3.85065,-0.22037,0.369268,-0.175471,30.98,67.4619444309314
212,-8.515458,-3.690929,3.778267,-0.211665,0.347888,-0.173486,31.01,67.8487967484477
222,-8.511271,-3.713661,3.706482,-0.201433,0.320246,-0.166155,31.01,68.2410871710242
232,-8.513663,-3.73041,3.638287,-0.188605,0.287259,-0.154702,31.04,68.6235844195726
242,-8.493923,-3.75733,3.574877,-0.17486,0.247706,-0.137445,31.04,68.9483840108523
252,-8.480762,-3.793222,3.442674,-0.159283,0.203724,-0.117133,31.02,69.6672177926068
262,-8.469396,-3.805186,3.385246,-0.123395,0.102167,-0.060934,31,69.9683791366965
272,-8.480165,-3.811767,3.341577,-0.103084,0.04612,-0.028863,31,70.2311818050068
282,-8.483154,-3.813561,3.308676,-0.081551,-0.013286,0.006872,31.02,70.4176786750928
292,-8.508279,-3.84048,3.284149,-0.059407,-0.074067,0.043982,31.02,70.6173847544883
302,-8.504092,-3.821338,3.281158,-0.036346,-0.136223,0.080023,30.98,70.6112734195009
312,-8.520842,-3.829713,3.283551,-0.013744,-0.19792,0.116828,30.98,70.6341539486584
322,-8.557332,-3.829713,3.318247,0.008399,-0.257632,0.151342,31.04,70.5091796153499
332,-8.56152,-3.814758,3.354738,0.028405,-0.315359,0.180969,31.04,70.3068293156358
342,-8.589635,-3.833302,3.397808,0.046273,-0.36881,0.208458,31.04,70.1386670512274
352,-8.610572,-3.819543,3.468995,0.060323,-0.416916,0.230449,31.04,69.7827617362576
362,-8.646465,-3.80399,3.539583,0.071319,-0.460134,0.246179,31.07,69.4586430149923
372,-8.675179,-3.796213,3.626921,0.077427,-0.49587,0.254731,31.07,69.0424628226984
382,-8.702696,-3.779463,3.710072,0.079871,-0.523511,0.255494,31.04,68.6430232038433
392,-8.723035,-3.763312,3.79741,0.076816,-0.542907,0.248469,31.04,68.2124797865181
402,-8.738589,-3.760321,3.897908,0.070708,-0.553597,0.234878,31.08,67.7195023589117
412,-8.738589,-3.747759,3.993023,0.059407,-0.557109,0.213497,31.08,67.2200639357305
422,-8.723633,-3.719643,4.15394,0.045509,-0.550542,0.187077,31.01,66.3458218567522
432,-8.685946,-3.699902,4.226922,0.027947,-0.517097,0.122631,31.01,65.8812896052979
442,-8.636893,-3.689135,4.290929,-0.012828,-0.493579,0.086896,31.05,65.4452368786422
452,-8.598608,-3.667599,4.348357,-0.034972,-0.46441,0.052382,31.04,65.0541076427672
462,-8.530412,-3.662215,4.395615,-0.057269,-0.43066,0.0197,31.04,64.6625952660812
472,-8.476574,-3.655635,4.42074,-0.078496,-0.393397,-0.010996,31.05,64.4107725733472
482,-8.405388,-3.644867,4.439284,-0.098349,-0.353233,-0.036652,31.05,64.1474282644159
492,-8.339585,-3.625725,4.447061,-0.114995,-0.311236,-0.057574,31.02,63.940025724024
502,-8.272586,-3.626323,4.448257,-0.129503,-0.267406,-0.073762,31.02,63.78100413248
512,-8.199606,-3.616751,4.465007,-0.140194,-0.221591,-0.085827,31.04,63.5163746182008
522,-8.145168,-3.618546,4.436294,-0.147219,-0.175166,-0.08995,31.04,63.538390166006
532,-8.094919,-3.604189,4.430311,-0.151036,-0.128282,-0.090255,31.03,63.4360098263671
542,-8.050652,-3.6006,4.409374,-0.151342,-0.080787,-0.084605,31.03,63.4359804356666
552,-7.983054,-3.589832,4.399803,-0.149204,-0.033445,-0.075747,31.05,63.3132040008778
562,-7.939385,-3.58385,4.381258,-0.14447,0.013592,-0.060934,31.05,63.2990108943309
572,-7.929814,-3.567699,4.35075,-0.137292,0.059559,-0.043219,31.01,63.4189408978879
582,-7.909475,-3.566502,4.323831,-0.127976,0.102625,-0.021991,31.01,63.510880997505
592,-7.891529,-3.553342,4.259224,-0.115912,0.143248,0.002138,31,63.7966829301624
602,-7.905886,-3.529413,4.245465,-0.101251,0.181122,0.056047,31,63.8787214854322
612,-7.936993,-3.515056,4.22752,-0.069944,0.245415,0.083994,30.99,64.0333556298749
622,-7.958529,-3.501298,4.194618,-0.053603,0.272751,0.111483,31.02,64.2456835129255
632,-8.006385,-3.492325,4.181458,-0.03879,0.296422,0.137903,31.02,64.4192424826223
642,-8.054839,-3.470191,4.164708,-0.02474,0.316275,0.161574,31.02,64.599244603897
652,-8.107481,-3.464807,4.146762,-0.011759,0.333991,0.18326,31.02,64.8112471630274
662,-8.183454,-3.44387,4.13061,-0.001222,0.347277,0.200669,31,65.0505851853862
672,-8.248059,-3.42712,4.12044,0.005956,0.356745,0.212123,31,65.2348683294881
682,-8.309077,-3.423531,4.1007,0.01069,0.362243,0.221439,31.04,65.4724964117856
692,-8.373683,-3.425924,4.084548,0.01237,0.36545,0.226173,31.04,65.7026913989771
702,-8.443673,-3.396612,4.048058,0.011301,0.362549,0.22602,31.03,66.0214160811216
712,-8.517252,-3.401397,4.025326,0.007483,0.35644,0.221744,31.03,66.3031499523979
722,-8.583653,-3.393023,4.006782,0.000611,0.346513,0.214414,30.98,66.5339846038987
732,-8.626723,-3.389433,3.975675,-0.007636,0.330784,0.204182,30.98,66.7837627127616
742,-8.690134,-3.383451,3.948756,-0.018784,0.31093,0.189674,31.04,67.0505772507653
752,-8.749356,-3.384049,3.921238,-0.030543,0.286649,0.173028,31.04,67.3151598746929
762,-8.792427,-3.388835,3.869194,-0.044746,0.257327,0.153785,31,67.6761519107236
772,-8.874979,-3.412763,3.829713,-0.060476,0.223882,0.13271,31,68.0621047266535
782,-8.891729,-3.417549,3.811168,-0.091783,0.146608,0.082161,31.02,68.194370026473
792,-8.915058,-3.424727,3.800999,-0.107207,0.104763,0.055741,31.04,68.2974188522156
802,-8.933005,-3.445665,3.777071,-0.123089,0.060934,0.028558,31.04,68.4711387280687
812,-8.91805,-3.462414,3.765106,-0.139125,0.016646,-0.000305,31.02,68.5170067959221
822,-8.923433,-3.468396,3.756134,-0.153174,-0.028863,-0.0281,31.02,68.5781763181438
832,-8.913264,-3.499503,3.749553,-0.166308,-0.072693,-0.055894,31.04,68.6160683488005
842,-8.88814,-3.511467,3.745365,-0.177456,-0.115606,-0.083536,31.04,68.5991819484415
852,-8.857631,-3.52702,3.742973,-0.187536,-0.157451,-0.108734,31.04,68.5654573081866
862,-8.834302,-3.552743,3.75075,-0.195782,-0.196088,-0.132405,31.04,68.500168045139
872,-8.788837,-3.577868,3.735196,-0.202044,-0.233198,-0.152411,31.03,68.514097249302
882,-8.745767,-3.59402,3.755535,-0.205251,-0.26649,-0.169515,31.03,68.3378998671801
892,-8.691929,-3.61735,3.768098,-0.205709,-0.29627,-0.183107,31.05,68.1867626578323
902,-8.636893,-3.638287,3.771687,-0.204945,-0.322842,-0.19395,31.05,68.0779212910335
912,-8.593225,-3.661019,3.784249,-0.200517,-0.345444,-0.199906,31.04,67.9451440981318
922,-8.532208,-3.680161,3.804588,-0.193644,-0.364228,-0.201127,31.04,67.7335708348593
932,-8.470592,-3.694518,3.815356,-0.184329,-0.379958,-0.198837,30.98,67.5661193785155
942,-8.350951,-3.731009,3.838088,-0.172111,-0.391259,-0.192423,30.98,67.2359676706182
952,-8.302496,-3.745365,3.854837,-0.13943,-0.405462,-0.166766,31.05,67.060588727711
962,-8.25464,-3.751946,3.879962,-0.120799,-0.406989,-0.148288,31.05,66.8336059721944
972,-8.222337,-3.759723,3.900899,-0.099571,-0.406225,-0.12706,31.05,66.6617043218009
982,-8.198408,-3.781856,3.936193,-0.077427,-0.401644,-0.103389,31.04,66.4443647468447
992,-8.148758,-3.776472,3.976871,-0.055894,-0.392786,-0.078802,31.04,66.1165293913283
1002,-8.143971,-3.761517,4.015156,-0.034667,-0.380416,-0.053451,31.03,65.8873742414314
1012,-8.122437,-3.765705,4.074379,-0.014661,-0.364839,-0.030391,31.03,65.530186317918
1022,-8.110473,-3.760321,4.126423,0.002443,-0.345597,-0.00733,31.01,65.2229172263095
1032,-8.122437,-3.762714,4.17069,0.017715,-0.320093,0.014508,31.01,65.0185716905978
1042,-8.116454,-3.754937,4.237689,0.029474,-0.291994,0.032223,31.04,64.6456919883729
1052,-8.133204,-3.735795,4.282554,0.038179,-0.258091,0.048411,31.04,64.4293666215052
1062,-8.140383,-3.720241,4.338786,0.042302,-0.22205,0.060018,31.02,64.1372897456535
1072,-8.151151,-3.71725,4.372883,0.041539,-0.182496,0.067195,31.02,63.9823929832248
1082,-8.160722,-3.703491,4.419543,0.038943,-0.139735,0.073609,31.05,63.7495389221785
1092,-8.173882,-3.689135,4.451249,0.033292,-0.095448,0.077122,31.05,63.6021679854312
1102,-8.197212,-3.678965,4.484748,0.024435,-0.050702,0.076511,31.02,63.4743449378521
1112,-8.210373,-3.650251,4.512266,0.01237,-0.005803,0.075136,31.02,63.3348186291936
1122,-8.233105,-3.646064,4.516453,-0.001833,0.084299,0.065515,31.01,63.3622394141236
1132,-8.23131,-3.619742,4.517649,-0.034819,0.128282,0.061392,31.01,63.3248321182018
1142,-8.242078,-3.628117,4.505087,-0.054214,0.170126,0.055283,31.01,63.4224971135212
1152,-8.263015,-3.612564,4.491328,-0.073457,0.210443,0.050244,31.02,63.5253640565998
1162,-8.258827,-3.598207,4.46381,-0.09331,0.248011,0.045662,31.02,63.6413982206566
1172,-8.268997,-3.595216,4.414758,-0.112857,0.282678,0.041081,31.03,63.9128393326366
1182,-8.26481,-3.591029,4.377071,-0.131031,0.312458,0.039248,31.03,64.0925682006328
1192,-8.268997,-3.585046,4.321437,-0.14676,0.338419,0.039095,31.03,64.3830855624205
1202,-8.286345,-3.588636,4.278965,-0.160352,0.3598,0.039554,31.03,64.6456760469475
1212,-8.283354,-3.585046,4.21077,-0.17089,0.375682,0.043677,31.04,64.989921475616
1222,-8.297112,-3.585046,4.14736,-0.178831,0.386678,0.049633,31.04,65.3517630415487
1232,-8.315059,-3.581457,4.084548,-0.18326,0.392328,0.057879,31.04,65.7173150722443
1242,-8.312666,-3.58744,4.012764,-0.183565,0.392481,0.068264,31.04,66.0962957637315
1252,-8.3348,-3.589832,3.952943,-0.180816,0.386983,0.080176,31.02,66.4627529710712
1262,-8.364112,-3.586841,3.90389,-0.175624,0.375835,0.092699,31.02,66.782450133745
1272,-8.383853,-3.592823,3.850052,-0.165239,0.359952,0.107512,31,67.115559748687
1282,-8.393424,-3.597609,3.757928,-0.152258,0.339488,0.122631,31,67.632114775147
1292,-8.456235,-3.585046,3.708875,-0.137292,0.314596,0.155007,31.06,68.0108506305988
1302,-8.483753,-3.589832,3.681956,-0.100793,0.252287,0.168141,31.04,68.2138428161169
1312,-8.511868,-3.586841,3.655036,-0.080787,0.217621,0.182801,31.04,68.41097881584
1322,-8.554939,-3.584448,3.64068,-0.061087,0.180205,0.195019,31,68.5697846127536
1332,-8.586046,-3.580261,3.628117,-0.040623,0.140499,0.204334,31,68.6936756069722
1342,-8.615956,-3.574877,3.632903,-0.022144,0.098349,0.210443,31.05,68.72128740009
1352,-8.659027,-3.567699,3.631706,-0.004276,0.056505,0.211818,31.05,68.804365772903
1362,-8.69133,-3.56411,3.624528,0.01069,0.013897,0.21029,31.05,68.9011115817755
1372,-8.718847,-3.544369,3.64068,0.023671,-0.028405,0.20464,31.05,68.8523695893775
1382,-8.754739,-3.550949,3.657429,0.034361,-0.070402,0.194255,31.02,68.8369271536361
1392,-8.77807,-3.550351,3.67418,0.042608,-0.111788,0.180511,31.02,68.7923883463821
1402,-8.788239,-3.541378,3.689135,0.047647,-0.152564,0.163101,31.01,68.726198234596
1412,-8.786446,-3.535994,3.71725,0.049786,-0.190895,0.143248,31.01,68.5711566942856
1422,-8.808579,-3.532404,3.745365,0.04948,-0.228311,0.121104,31.03,68.4635764401941
1432,-8.799605,-3.516851,3.773481,0.046578,-0.262672,0.096975,31.03,68.2875698462578
1442,-8.796615,-3.516253,3.809374,0.040775,-0.294437,0.071471,31.01,68.0942240648442
1452,-8.780463,-3.52403,3.845864,0.031612,-0.323759,0.045968,31.01,67.8789623781244
1462,-8.623135,-4.105485,3.997808,0.021075,-0.34972,0.020311,30.99,67.2861323740965
1472,-8.746963,-3.637091,3.964309,0.029627,-0.343001,-0.051007,30.99,67.2914254035875
1482,-8.699705,-3.463012,3.960122,0.022907,-0.348804,-0.078191,31.03,67.0752083909251
1492,-8.673384,-3.494119,4.001398,0.004887,-0.363312,-0.105374,31.03,66.832811517387
1502,-8.671589,-3.541976,4.049254,-0.013592,-0.373697,-0.127213,31.03,66.6218494020945
1512,-8.589037,-3.494718,4.052245,-0.030849,-0.379653,-0.147066,31.04,66.3944836245261
1522,-8.570493,-3.518047,4.103691,-0.050855,-0.381791,-0.165392,31.04,66.1090338403915
1532,-8.523833,-3.524628,4.131208,-0.067653,-0.378584,-0.179747,31.01,65.8731062697523
1542,-8.447861,-3.518646,4.160521,-0.084758,-0.370948,-0.190743,31.01,65.5518112747584
1552,-8.403594,-3.521038,4.175476,-0.100182,-0.357356,-0.197768,31.01,65.3795256339377
1562,-8.362915,-3.548556,4.213761,-0.114537,-0.340405,-0.200975,31.01,65.1165353020485
1572,-8.294122,-3.531208,4.214359,-0.124464,-0.318872,-0.200975,31.05,64.9435844826015
1582,-8.242078,-3.555136,4.239483,-0.133474,-0.294742,-0.198684,31.05,64.7183282960645
1592,-8.206185,-3.561717,4.253242,-0.138972,-0.265574,-0.190285,30.98,64.5714453673421
1602,-8.153543,-3.544369,4.271787,-0.141263,-0.233961,-0.180511,30.98,64.3364879191831
1612,-8.10808,-3.56411,4.279563,-0.141568,-0.199142,-0.167072,31.02,64.2105246159451
1622,-8.085348,-3.582056,4.289733,-0.138208,-0.162185,-0.152258,31.02,64.1227760362028
1632,-8.038688,-3.597609,4.289733,-0.131947,-0.123395,-0.13439,31.03,64.0301175274196
1642,-7.989635,-3.599404,4.290929,-0.123242,-0.041844,-0.093615,31.03,63.9106259940415
1652,-7.959724,-3.595814,4.295715,-0.101098,0.001069,-0.069486,31.02,63.8109210731845
1662,-7.968698,-3.604787,4.293921,-0.08659,0.044135,-0.045509,31.04,63.8512026594304
1672,-7.948359,-3.605984,4.301099,-0.071624,0.087506,-0.020464,31.04,63.766466521573
1682,-7.954939,-3.605386,4.295117,-0.056505,0.130878,0.005345,31.01,63.8130059111141
1692,-7.95793,-3.608377,4.292724,-0.040775,0.174249,0.030085,31.01,63.8359266076021
1702,-7.984849,-3.62393,4.289135,-0.024893,0.217315,0.054214,30.99,63.9349103692321
1712,-8.007581,-3.595814,4.28076,-0.011454,0.259618,0.076511,30.99,64.0026346786496
1722,-8.053044,-3.591627,4.274179,0.000305,0.301157,0.097738,31,64.1391932831623
1732,-8.096116,-3.604189,4.265805,0.010232,0.339336,0.11637,31,64.296053075281
1742,-8.133204,-3.592823,4.246662,0.01909,0.375988,0.130572,30.98,64.4702353346768
1752,-8.202596,-3.591627,4.238885,0.025656,0.408058,0.142484,30.98,64.6679443656828
1762,-8.268997,-3.588037,4.201199,0.02978,0.43631,0.150273,31.05,65.0107027622346
1772,-8.338388,-3.595814,4.173681,0.030696,0.459065,0.153327,31.05,65.3154234496438
1782,-8.417951,-3.583252,4.148556,0.029169,0.475864,0.152258,31.04,65.6080501223997
1792,-8.493923,-3.59402,4.102495,0.026267,0.486707,0.145844,31.04,66.0199566010577
1802,-8.557931,-3.58744,4.039085,0.020464,0.490525,0.134696,31,66.477820601996
1812,-8.697312,-3.58385,3.980461,0.012981,0.487318,0.100335,31,67.064407030265
1822,-8.742178,-3.582056,3.9338,-0.008094,0.45876,0.078802,31.03,67.3940493787109
1832,-8.798409,-3.592225,3.883551,-0.020922,0.434478,0.054672,31.02,67.7728527891689
1842,-8.839685,-3.598805,3.835695,-0.03375,0.403018,0.029322,31.02,68.105385045383
1852,-8.86122,-3.610171,3.777071,-0.045357,0.366061,0.003818,31.05,68.4586857403396
1862,-8.873783,-3.605984,3.723232,-0.057727,0.324369,-0.022144,31.05,68.7584825754785
1872,-8.891729,-3.626921,3.677768,-0.067959,0.276569,-0.044746,31.03,69.0440803055319
1882,-8.877372,-3.621537,3.62393,-0.076816,0.225257,-0.065668,31.03,69.2944863797642
1892,-8.877971,-3.632903,3.593421,-0.083689,0.170431,-0.081856,31.04,69.4637112930147
1902,-8.842677,-3.646064,3.553342,-0.08827,0.114995,-0.095448,31.04,69.6200044642554
1912,-8.81097,-3.643072,3.518047,-0.091172,0.058032,-0.104305,31.04,69.7467537379908
1922,-8.787043,-3.667001,3.480361,-0.091477,-0.000305,-0.10965,31.04,69.9213062688232
1932,-8.760723,-3.676572,3.471986,-0.088728,-0.058032,-0.109956,31.02,69.9258320863611
1942,-8.725428,-3.684947,3.454638,-0.08491,-0.114995,-0.104458,31.02,69.96131695271
1952,-8.689535,-3.684947,3.445066,-0.078038,-0.1715,-0.095142,31.04,69.9480082201361
1962,-8.655437,-3.7005,3.455834,-0.069944,-0.224798,-0.083383,31.04,69.84068670275
1972,-8.610572,-3.712464,3.475575,-0.058948,-0.275653,-0.067806,31,69.6624270860318
1982,-8.557931,-3.711268,3.529413,-0.046731,-0.323606,-0.050244,31,69.2749930998782
1992,-8.511868,-3.717848,3.565904,-0.018784,-0.404698,-0.010843,30.99,68.9977256783079
2002,-8.479566,-3.698706,3.623332,-0.004429,-0.436769,0.009927,31,68.6115302412811
2012,-8.463414,-3.711866,3.678366,0.009774,-0.462272,0.027947,31,68.2963426736617
2022,-8.437093,-3.701697,3.732804,0.023213,-0.481973,0.045357,31.01,67.9447385798791
2032,-8.41436,-3.692126,3.800999,0.036346,-0.493274,0.061697,31.01,67.5271947890166
2042,-8.410173,-3.689135,3.860221,0.046884,-0.498313,0.074984,31.02,67.2013771075095
2052,-8.379066,-3.679563,3.926024,0.055741,-0.496023,0.084605,31.02,66.7802558850423
2062,-8.355139,-3.680759,3.994219,0.065057,-0.486707,0.093004,31.02,66.3713726177726
2072,-8.353344,-3.672983,4.055236,0.070555,-0.470824,0.097433,31.02,66.0396379275989
2082,-8.327023,-3.653242,4.127021,0.074984,-0.448986,0.098807,31.06,65.5885963779308
2092,-8.30788,-3.648456,4.189833,0.078496,-0.420275,0.096822,31.06,65.2146068489508
2102,-8.312666,-3.626921,4.246064,0.079718,-0.386372,0.091783,31.01,64.9123212505102
2112,-8.289934,-3.61376,4.302295,0.078191,-0.349873,0.084605,31.01,64.5576497753814
2122,-8.287541,-3.601198,4.342973,0.074831,-0.309403,0.074678,31.01,64.3300279877499
2132,-8.275578,-3.582654,4.38724,0.070555,-0.26481,0.063377,31.01,64.0566498059973
2142,-8.256434,-3.576073,4.436294,0.064141,-0.218384,0.049938,31.01,63.7542855081466
2152,-8.248658,-3.541378,4.492525,0.054978,-0.16921,0.035125,31.01,63.413716176804
2163,-8.23131,-3.533601,4.499703,0.03207,-0.067042,0.00504,31.02,63.3284021102899
2172,-8.22772,-3.525226,4.525426,0.018784,-0.015577,-0.010079,31.02,63.1801725069288
2182,-8.219346,-3.50728,4.52423,0.003054,0.036041,-0.023824,31.02,63.1481965148734
2192,-8.216953,-3.491727,4.505685,-0.012065,0.085827,-0.036805,31.04,63.2215231897483
2202,-8.22473,-3.487539,4.496712,-0.028711,0.133474,-0.047342,31.04,63.281667607545
2212,-8.230712,-3.492325,4.470989,-0.045051,0.178678,-0.0562,30.97,63.4323664297592
2222,-8.225926,-3.467798,4.429713,-0.060781,0.220217,-0.063835,30.97,63.608716077955
2232,-8.226524,-3.471986,4.384848,-0.075442,0.257785,-0.06857,31.05,63.8457712927923
2242,-8.236693,-3.474977,4.335794,-0.088881,0.28955,-0.07025,31.05,64.1264577668557
2252,-8.257033,-3.474977,4.283153,-0.100182,0.317192,-0.069944,31.05,64.446954398548
2262,-8.262416,-3.47737,4.231707,-0.108887,0.338267,-0.067042,31.05,64.7299061727954
2272,-8.282756,-3.474378,4.164708,-0.115454,0.354455,-0.061239,31.04,65.1240014742577
2282,-8.299506,-3.481557,4.103691,-0.118966,0.363923,-0.05284,31.04,65.4890484593243
2292,-8.320443,-3.485744,4.040281,-0.119424,0.367741,-0.044288,31,65.873810945095
2302,-8.346764,-3.494119,3.97747,-0.117286,0.366672,-0.03375,31,66.2712949896112
2312,-8.36112,-3.49711,3.926024,-0.113163,0.359036,-0.021228,31.05,66.578116476039
2322,-8.385648,-3.497709,3.829713,-0.10568,0.346971,-0.008399,31.05,67.1444796183875
2332,-8.420342,-3.518646,3.796811,-0.09728,0.330325,0.020769,31.02,67.4104721044849
2342,-8.453843,-3.522833,3.760321,-0.07422,0.286954,0.036041,31.03,67.6777615250104
2352,-8.475977,-3.533601,3.736392,-0.061697,0.260992,0.052076,31.03,67.8596286641845
2362,-8.492725,-3.534797,3.716652,-0.048717,0.232282,0.06689,31.05,67.9998700866084
2372,-8.517851,-3.547958,3.699304,-0.036041,0.202349,0.081245,31.05,68.1535777569517
2382,-8.534599,-3.556931,3.692126,-0.023366,0.170279,0.093157,31.05,68.2324172238277
2392,-8.559725,-3.556333,3.696313,-0.012065,0.138666,0.105069,31.05,68.2589957703465
2402,-8.581859,-3.568297,3.695715,-0.000458,0.105832,0.114995,31.07,68.3152899502129
2412,-8.599206,-3.576672,3.71067,0.008552,0.073151,0.122326,31.07,68.2764841657671
2422,-8.636893,-3.58385,3.72383,0.01573,0.041233,0.125838,31.05,68.2860220115724
2432,-8.662616,-3.57727,3.734598,0.02138,0.009468,0.125991,31.05,68.2738583938444
2442,-8.68475,-3.593421,3.765705,0.024129,-0.020922,0.123547,31.05,68.1661071989533
2452,-8.7015,-3.594618,3.789035,0.025504,-0.049938,0.117897,31.05,68.077304232538
2462,-8.714063,-3.60718,3.808775,0.024587,-0.077733,0.108276,31.05,68.0086598458523
2472,-8.726624,-3.602993,3.839882,0.021228,-0.103847,0.093768,31.05,67.8675822373814
2482,-8.743374,-3.605984,3.863212,0.01573,-0.127976,0.077122,31.02,67.7815086389008
2492,-8.761918,-3.61077,3.909274,0.008247,-0.150273,0.055894,31.02,67.5832688808832
2502,-8.763114,-3.625725,3.928416,0.000611,-0.171195,0.007941,31.06,67.4990005944744
2512,-8.768499,-3.625126,3.946362,-0.018479,-0.207083,-0.019242,31.05,67.4166886303462
2522,-8.743973,-3.648456,3.953541,-0.0281,-0.22205,-0.047037,31.05,67.3503303960413
2532,-8.723633,-3.642474,3.976871,-0.039095,-0.234725,-0.075442,31.02,67.1847076883643
2542,-8.704492,-3.650251,3.990032,-0.048564,-0.245873,-0.103236,31.02,67.0851063618309
2552,-8.684152,-3.662813,4.005585,-0.057269,-0.255189,-0.129503,31.07,66.9747220850133
2562,-8.647661,-3.665206,4.000201,-0.065057,-0.262825,-0.153174,31.07,66.9307954021665
2572,-8.60818,-3.674777,4.015755,-0.072235,-0.268475,-0.174707,31.02,66.7784644000114
2582,-8.551949,-3.676572,4.016353,-0.077274,-0.271224,-0.191506,31.02,66.6617582767627
2592,-8.502296,-3.685545,4.027121,-0.080329,-0.272904,-0.205709,31.08,66.5112729429574
2602,-8.443673,-3.683152,4.025924,-0.082161,-0.272293,-0.213803,31.08,66.3932443613993
2612,-8.39462,-3.696911,4.036094,-0.081856,-0.269392,-0.217163,31.01,66.2497462719613
2622,-8.346764,-3.692724,4.051049,-0.080329,-0.26313,-0.216857,31.01,66.0661261301489
2632,-8.289336,-3.697509,4.054638,-0.076816,-0.254578,-0.210443,31.07,65.9290484848052
2642,-8.240881,-3.681358,4.064209,-0.07254,-0.243583,-0.199447,31.07,65.7584637215705
2652,-8.201998,-3.698107,4.073183,-0.066432,-0.229685,-0.183565,31.02,65.6428296888022
2662,-8.161918,-3.68734,4.079165,-0.059254,-0.214719,-0.164781,31.02,65.512751673748
2672,-8.079964,-3.679563,4.109075,-0.051465,-0.195782,-0.14111,30.98,65.1643589426601
2682,-8.066804,-3.665206,4.122834,-0.033903,-0.152564,-0.086285,30.98,65.0470154914085
2692,-8.036894,-3.671188,4.142574,-0.02474,-0.12874,-0.055741,31.05,64.8806580391242
2702,-8.035098,-3.662215,4.154539,-0.015577,-0.101709,-0.023824,31.05,64.8036973001391
2712,-8.016554,-3.641876,4.163511,-0.00504,-0.073304,0.008552,31.05,64.6925726653684
2722,-8.033303,-3.636492,4.171886,0.00504,-0.04444,0.041539,31,64.6808191882176
2732,-8.036295,-3.6341,4.193422,0.014813,-0.013286,0.073304,31,64.5709723645193
2742,-8.054241,-3.613162,4.202394,0.022907,0.018173,0.103084,31.04,64.5430249052326
2752,-8.070992,-3.611966,4.214359,0.030543,0.049175,0.130114,31.04,64.517037643189
2762,-8.09133,-3.59043,4.232903,0.037415,0.081551,0.156382,31.08,64.4439366197744
2772,-8.121839,-3.589832,4.25085,0.042608,0.114232,0.177915,31.08,64.4191351145584
2782,-8.156534,-3.574279,4.25743,0.04612,0.14676,0.195935,31.04,64.4485731995417
2792,-8.2014,-3.557529,4.261617,0.047953,0.178525,0.209221,31.04,64.5126412867792
2802,-8.246264,-3.54736,4.27059,0.0478,0.210443,0.216857,31,64.558102734693
2812,-8.295916,-3.541378,4.276572,0.043677,0.239917,0.22037,31,64.6338180499008
2822,-8.34796,-3.53061,4.268795,0.037874,0.268475,0.219759,31.04,64.7810403043593
2832,-8.389835,-3.521038,4.262215,0.030696,0.295201,0.212276,31.04,64.8997185585228
2842,-8.446067,-3.5007,4.231707,0.020311,0.318414,0.201891,31,65.1631574924859
2852,-8.531011,-3.489932,4.206582,0.008705,0.354913,0.168446,31,65.4689328895472
2862,-8.56451,-3.489334,4.167699,-0.016035,0.36713,0.148746,31.03,65.7409371666916
2872,-8.610572,-3.489334,4.131807,-0.029016,0.374155,0.125227,31.04,66.0241233907309
2882,-8.6345,-3.486941,4.083352,-0.041692,0.375377,0.101251,31.04,66.3223430863024
2892,-8.649456,-3.491128,4.031308,-0.05284,0.37217,0.076511,31.02,66.6260503911434
2902,-8.673983,-3.504887,3.970291,-0.061392,0.362549,0.052076,31.02,67.0042103424118
2912,-8.694919,-3.515056,3.910471,-0.069028,0.347888,0.030085,31.04,67.3658679600496
2922,-8.705688,-3.51386,3.854239,-0.074831,0.327424,0.007025,31.04,67.6796122056769
2932,-8.71466,-3.523431,3.801597,-0.078649,0.301615,-0.011912,31.04,67.980335218778
2942,-8.719445,-3.531208,3.756732,-0.079871,0.270766,-0.0281,31.04,68.2311835326158
2952,-8.717052,-3.535396,3.705884,-0.078496,0.235947,-0.042608,31.06,68.4974374481279
2962,-8.705089,-3.546762,3.664608,-0.074831,0.197462,-0.054825,31.06,68.7013722593506
2972,-8.709875,-3.561118,3.631108,-0.069333,0.155465,-0.063377,31.01,68.8990150875339
2982,-8.706285,-3.5671,3.595216,-0.061697,0.110872,-0.069791,31.01,69.0873332942546
2992,-8.705089,-3.559922,3.571288,-0.052534,0.064904,-0.072846,31.03,69.2068562948391
3002,-8.67817,-3.577868,3.550351,-0.044288,0.016188,-0.075595,31.03,69.281950449831
3012,-8.673983,-3.581457,3.535396,-0.033598,-0.032834,-0.074984,30.99,69.3568137549945
3022,-8.656036,-3.585645,3.549154,-0.023366,-0.081092,-0.068417,30.99,69.2529775010678
3032,-8.638687,-3.602395,3.547958,-0.002138,-0.175166,-0.062766,31.02,69.2399299842051
3042,-8.630314,-3.607778,3.56411,0.007178,-0.219606,-0.056658,31.03,69.1420131969663
3052,-8.614162,-3.608377,3.605386,0.01573,-0.262061,-0.049786,31.03,68.8913712487545
3062,-8.613564,-3.617948,3.646662,0.022755,-0.300698,-0.043982,31.02,68.6778663746081
3072,-8.600404,-3.617948,3.675375,0.027642,-0.335212,-0.037874,31.02,68.499841050835
3082,-8.575877,-3.613162,3.727419,0.031612,-0.366061,-0.033292,31.03,68.1718388035454
3092,-8.560324,-3.614957,3.78724,0.033445,-0.391259,-0.028558,31.03,67.8258107112536
3102,-8.542377,-3.606582,3.831507,0.032987,-0.41157,-0.026573,31.07,67.549050413094
3112,-8.526226,-3.608377,3.898506,0.029627,-0.425773,-0.025198,31.07,67.1649983903699
3122,-8.506484,-3.617948,3.959523,0.024435,-0.433867,-0.025351,31.04,66.8126763761693
3132,-8.480165,-3.61077,4.019344,0.018479,-0.434936,-0.026114,31.04,66.4386993035651
3142,-8.453244,-3.609573,4.085146,0.010843,-0.429896,-0.030391,31.02,66.0376665764774
3152,-8.419745,-3.616153,4.128816,0.001527,-0.41829,-0.033139,31.02,65.7448730792531
3162,-8.397612,-3.615555,4.18086,-0.007789,-0.400269,-0.03711,31.03,65.4262929172536
3172,-8.373683,-3.61735,4.232903,-0.018173,-0.377667,-0.041081,31.03,65.1062423989791
3182,-8.346166,-3.60718,4.272385,-0.0281,-0.350179,-0.046426,31.05,64.8316584985462
3192,-8.289934,-3.603591,4.338188,-0.038637,-0.317803,-0.051313,31.05,64.3624670886318
3202,-8.255239,-3.612564,4.375875,-0.057727,-0.242055,-0.060934,31.06,64.0983076364895
3212,-8.237292,-3.616153,4.396811,-0.065821,-0.199753,-0.064141,31.06,63.953058550826
3222,-8.212168,-3.608975,4.409374,-0.073457,-0.15516,-0.067501,31.06,63.8231926698042
3232,-8.185846,-3.605984,4.432106,-0.080329,-0.10965,-0.070402,31.01,63.6420517658217
3242,-8.172686,-3.602395,4.432704,-0.086285,-0.062766,-0.072846,31.01,63.6045569721313
3252,-8.157133,-3.612564,4.425525,-0.091172,-0.014661,-0.073304,31.07,63.6156787479429
3262,-8.130812,-3.613162,4.409972,-0.094684,0.032834,-0.071471,31.07,63.6350001274477
3272,-8.133802,-3.595814,4.405187,-0.096822,0.079565,-0.069333,31.05,63.64873713225
3282,-8.13141,-3.603591,4.378866,-0.097128,0.125075,-0.065821,31.05,63.7875160726721
3292,-8.12124,-3.609573,4.342973,-0.095906,0.168293,-0.061239,31.03,63.9564658675062
3302,-8.123035,-3.608377,4.311268,-0.091783,0.20861,-0.053909,31.03,64.1246195734537
3312,-8.145766,-3.61735,4.267001,-0.087354,0.245568,-0.044135,31.02,64.4173427605234
3322,-8.138588,-3.613162,4.235895,-0.081398,0.278707,-0.033598,31.02,64.5596402392105
3332,-8.155936,-3.612564,4.174878,-0.074678,0.306654,-0.020617,31.04,64.9192156782965
3342,-8.179864,-3.610171,4.134798,-0.064599,0.32834,-0.006261,31.04,65.1819238162075
3352,-8.204391,-3.614957,4.073781,-0.053145,0.344528,0.010232,31.02,65.5636729076281
3362,-8.230712,-3.589234,3.969693,-0.040623,0.354302,0.026878,31.02,66.149994884596
3372,-8.300103,-3.59043,3.933203,-0.028253,0.354913,0.062614,31.05,66.4945374418042
3382,-8.35155,-3.608975,3.89073,-0.001069,0.345902,0.079107,31.02,66.8461197140869
3392,-8.387442,-3.598805,3.862016,0.012523,0.332616,0.0956,31.02,67.0645514951329
3402,-8.431709,-3.589832,3.822534,0.023824,0.313985,0.110414,31.01,67.3579679623246
3412,-8.46461,-3.585046,3.802794,0.03543,0.291383,0.123547,31.01,67.5258972089676
3422,-8.517252,-3.585645,3.798008,0.044593,0.265421,0.13439,30.98,67.6580788955862
3432,-8.565707,-3.578466,3.786642,0.050702,0.238237,0.141721,30.98,67.8092000454571
3442,-8.599206,-3.580261,3.777669,0.054367,0.207847,0.146302,31.02,67.9246096864931
3452,-8.639885,-3.578466,3.777071,0.055589,0.176693,0.147219,31.02,68.0064988431406
3462,-8.667401,-3.57069,3.777669,0.053756,0.144928,0.145844,31,68.051046367899
3472,-8.69791,-3.570091,3.789035,0.049786,0.11301,0.140652,31,68.0505911833203
3482,-8.71825,-3.5671,3.801597,0.042608,0.080787,0.132405,31.04,68.0221612206059
3492,-8.733204,-3.561717,3.799803,0.03543,0.049022,0.121409,31.04,68.0564359064498
3502,-8.753544,-3.5671,3.82074,0.025045,0.017868,0.108734,31.05,67.9911216181108
3512,-8.760124,-3.5671,3.823133,0.015119,-0.012981,0.095142,31.05,67.9914869174486
3522,-8.756536,-3.573082,3.835695,0.004887,-0.042302,0.079107,31.02,67.9238622135771
3532,-8.757133,-3.571886,3.848855,-0.00672,-0.070402,0.063072,31.02,67.8556441538192
3542,-8.741579,-3.574877,3.86381,-0.017868,-0.098197,0.026878,31.04,67.7497833666764
3552,-8.714063,-3.586243,3.877569,-0.038026,-0.146302,0.010385,31.03,67.6331629864509
3562,-8.71107,-3.586841,3.885944,-0.045968,-0.167835,-0.007025,31.03,67.584183452301
3572,-8.690134,-3.592225,3.890131,-0.052534,-0.18723,-0.022449,31.03,67.5252467352929
3582,-8.663813,-3.600002,3.900899,-0.059712,-0.205556,-0.03711,31.03,67.4231407532738
3592,-8.635697,-3.605984,3.911069,-0.063988,-0.222355,-0.050855,31.04,67.3187932483395
3602,-8.593822,-3.610171,3.930212,-0.065973,-0.23671,-0.062614,31.04,67.1379315608722
3612,-8.580065,-3.614359,3.924827,-0.066279,-0.248775,-0.071929,31,67.1417098051317
3622,-8.553144,-3.626921,3.940381,-0.064752,-0.260076,-0.080481,31,67.0164302123044
3632,-8.511271,-3.622734,3.951149,-0.063377,-0.269086,-0.086743,31.03,66.8706045014593
3642,-8.467003,-3.64068,3.9673,-0.058032,-0.2755,-0.091477,31.03,66.7103372836338
3652,-8.435298,-3.632903,3.976871,-0.052534,-0.279624,-0.093462,31.03,66.5871331456746
3662,-8.400003,-3.635296,4.002594,-0.046273,-0.279165,-0.09331,31.03,66.3800601868911
3672,-8.362316,-3.629314,4.032505,-0.039095,-0.276111,-0.093004,31.06,66.137420603266
3682,-8.32463,-3.63051,4.050451,-0.031307,-0.270155,-0.090255,31.06,65.9634220403716
3692,-8.300702,-3.623332,4.074977,-0.023976,-0.260076,-0.085979,31.02,65.775918078357
3702,-8.263614,-3.619144,4.10728,-0.01741,-0.246637,-0.080481,31.02,65.5210672505985
3712,-8.227122,-3.608975,4.152744,-0.010996,-0.229074,-0.073609,31.02,65.1915647447307
3722,-8.206185,-3.607778,4.167699,-0.000458,-0.185245,-0.058643,31.02,65.0650983615995
3732,-8.2014,-3.60718,4.191029,0.003512,-0.158672,-0.048258,31.02,64.9312714554656
3742,-8.184649,-3.583252,4.211368,0.006872,-0.13042,-0.039706,31.04,64.7630735161364
3752,-8.181061,-3.580261,4.222135,0.009468,-0.100029,-0.030391,31.04,64.6954872593683
3762,-8.176873,-3.586841,4.238885,0.010232,-0.07025,-0.021686,31.02,64.604745953676
3772,-8.177471,-3.572484,4.246662,0.010232,-0.039095,-0.012523,31.02,64.5510619257178
3782,-8.182856,-3.555136,4.255635,0.010385,-0.007636,-0.004581,31,64.4991360194793
3792,-8.186445,-3.544369,4.261019,0.009774,0.02306,0.003971,31,64.4684987721523
3802,-8.200802,-3.547958,4.255635,0.007025,0.053603,0.012065,31.04,64.5330572414545
3812,-8.209177,-3.539583,4.25384,0.004123,0.083078,0.0197,31.04,64.5533053857724
3822,-8.242078,-3.534199,4.26401,0.000916,0.111636,0.025198,31.05,64.5699793044468
3832,-8.251051,-3.52702,4.254438,-0.003818,0.138056,0.029932,31.05,64.6332905822275
3842,-8.269596,-3.519842,4.246064,-0.009316,0.163101,0.034361,30.97,64.7120743548456
3852,-8.274979,-3.501298,4.237689,-0.016188,0.187994,0.036499,30.97,64.7501083331913
3862,-8.315059,-3.504887,4.237689,-0.023518,0.211207,0.036652,31.04,64.8440518042397
3872,-8.335398,-3.508476,4.216752,-0.03207,0.232892,0.038179,31.04,65.0020203167002
3882,-8.380263,-3.497709,4.177869,-0.041539,0.252593,0.037415,31.05,65.2941630527004
3892,-8.399406,-3.499503,4.158128,-0.050549,0.285732,0.033903,31.05,65.4408185506404
3902,-8.432905,-3.514458,4.133601,-0.068417,0.29795,0.031307,31.04,65.6553794836396
3912,-8.452645,-3.514458,4.091727,-0.076053,0.307112,0.030238,31.03,65.9163059435249
3922,-8.466404,-3.514458,4.061218,-0.082925,0.313679,0.026878,31.03,66.1051063583568
3932,-8.486146,-3.512664,4.019344,-0.08827,0.315817,0.024587,31.07,66.3645362929683
3942,-8.507083,-3.536592,3.973282,-0.090713,0.313068,0.023213,31.07,66.67078246487
3952,-8.517851,-3.533002,3.929015,-0.092699,0.307112,0.022144,31.01,66.9225245930073
3962,-8.527422,-3.559922,3.884748,-0.090561,0.296728,0.022602,31.01,67.1982702724529
3972,-8.550154,-3.57069,3.841677,-0.087048,0.28054,0.023976,30.98,67.4806906177573
3982,-8.56451,-3.575475,3.799204,-0.081092,0.259923,0.024435,30.98,67.7378741603363
3992,-8.581859,-3.583252,3.764508,-0.072388,0.236405,0.025962,31.06,67.9623658389816
4002,-8.59801,-3.593421,3.722634,-0.062919,0.208458,0.027336,31.06,68.2243128045392
4012,-8.619546,-3.616751,3.707081,-0.051618,0.177915,0.031001,31.03,68.3676428653631
4022,-8.626723,-3.622734,3.681358,-0.040317,0.143248,0.032223,31.03,68.5226657771195
4032,-8.64467,-3.622135,3.668197,-0.028863,0.106596,0.032376,31,68.6263938461441
4042,-8.64467,-3.635296,3.655036,-0.016341,0.069028,0.03375,31,68.7067289495022
4052,-8.652448,-3.638885,3.651447,-0.005498,0.029627,0.033139,31.01,68.7434379946274
4062,-8.668,-3.644269,3.666403,0.00504,-0.009163,0.028711,31.01,68.6981098535813
4072,-8.680563,-3.651447,3.669992,0.022449,-0.08827,0.026114,31.04,68.7087338413847
4082,-8.685348,-3.655635,3.68734,0.029169,-0.127213,0.02138,31,68.6296182563595
4092,-8.665607,-3.66042,3.709473,0.034819,-0.163406,0.015882,31,68.4791129925137
4102,-8.670394,-3.663411,3.731607,0.038332,-0.197309,0.009927,31,68.3741653416226
4112,-8.656036,-3.666403,3.760919,0.040164,-0.22938,0.003665,31,68.1948206014978
4122,-8.651849,-3.661019,3.792026,0.039554,-0.259007,-0.004734,31.04,68.0189726070182
4132,-8.638687,-3.653242,3.823133,0.038026,-0.283289,-0.013134,31.04,67.8237155863287
4142,-8.609975,-3.655036,3.858427,0.034208,-0.304516,-0.021686,31.03,67.5836316137821
4152,-8.590234,-3.655635,3.901497,0.028405,-0.321315,-0.030849,31.03,67.3194435292724
4164,-8.574679,-3.654438,3.941577,0.022297,-0.334601,-0.040012,31.04,67.077807553762
4172,-8.548957,-3.649055,3.981059,0.013744,-0.342085,-0.048564,31.04,66.8148837866435
4182,-8.526226,-3.65384,4.012166,0.005345,-0.346513,-0.057269,31.01,66.6103292372841
4192,-8.499306,-3.637689,4.050451,-0.003512,-0.345902,-0.063988,31.01,66.3407665259901
4202,-8.46461,-3.64068,4.073183,-0.012828,-0.341626,-0.069791,31.04,66.1522719401496
4212,-8.432307,-3.637091,4.105485,-0.021838,-0.333532,-0.075442,31.04,65.9124001925243
4223,-8.362915,-3.620939,4.162315,-0.037874,-0.30528,-0.081856,31.04,65.4520601491799
4232,-8.338987,-3.625725,4.190431,-0.037874,-0.30528,-0.081856,31.04,65.258047543486
4242,-8.307282,-3.628716,4.204788,-0.050244,-0.264047,-0.08262,31.02,65.1164065781161
4252,-8.28156,-3.621537,4.219743,-0.054978,-0.237932,-0.081092,31,64.9745708407679
4262,-8.254042,-3.620341,4.243073,-0.058948,-0.209374,-0.076511,31,64.7904905946864
4272,-8.23131,-3.615555,4.251448,-0.061697,-0.179136,-0.071471,31.01,64.6910363670466
4282,-8.192427,-3.611966,4.260421,-0.062308,-0.146455,-0.065057,31.01,64.552674605285
4292,-8.184052,-3.606582,4.265805,-0.06185,-0.113316,-0.057879,31.01,64.5001268563081
4302,-8.164909,-3.595814,4.27717,-0.062308,-0.076816,-0.049022,31.01,64.3862257014956
4312,-8.140981,-3.594618,4.276572,-0.060934,-0.039248,-0.03879,31.04,64.3332204476614
4322,-8.157133,-3.574877,4.27059,-0.058338,-0.00168,-0.027794,31.04,64.3816728817183
4332,-8.135597,-3.573681,4.269992,-0.055894,0.035125,-0.015119,31.03,64.3340425341068
4342,-8.124829,-3.579663,4.260421,-0.051313,0.072693,-0.001985,31.03,64.365466205753
4352,-8.118848,-3.57069,4.250251,-0.046731,0.10965,0.012981,31.05,64.3959733642532
4362,-8.133802,-3.563511,4.233501,-0.04215,0.143859,0.027336,31.05,64.5111487489585
4372,-8.133204,-3.566502,4.211368,-0.037415,0.177456,0.042302,31.05,64.6292512369606
4382,-8.153543,-3.550351,4.195216,-0.031307,0.208763,0.057727,31.05,64.744676886294
4392,-8.183454,-3.551547,4.176672,-0.025045,0.236863,0.072846,31.05,64.911491246919
4402,-8.230114,-3.541976,4.130012,-0.018173,0.262825,0.086896,31.05,65.2530216947901
4412,-8.266006,-3.540181,4.096512,-0.005803,0.302531,0.110872,31.02,65.5077643717079
4422,-8.291729,-3.531208,4.071986,0.000916,0.317497,0.120951,31.04,65.6854249871727
4432,-8.3348,-3.524628,4.045067,0.006872,0.328798,0.128893,31.04,65.9154677959727
4442,-8.370093,-3.526422,4.019344,0.010996,0.335518,0.133474,31.04,66.1291241187594
4452,-8.420342,-3.518646,3.993621,0.015424,0.338572,0.137597,31.04,66.3652669044543
4462,-8.478967,-3.517449,3.978068,0.018784,0.338114,0.136987,30.99,66.5700728472158
4472,-8.517851,-3.504887,3.960122,0.020464,0.333685,0.13439,30.99,66.7349354041026
4482,-8.565707,-3.514458,3.937988,0.020464,0.32666,0.129198,31.03,66.9584797162288
4492,-8.59143,-3.509673,3.908676,0.018173,0.315206,0.121409,31.03,67.1609254372014
4502,-8.635697,-3.508476,3.906283,0.01573,0.300851,0.10965,31.02,67.262642752147
4512,-8.657232,-3.50728,3.874578,0.011912,0.282372,0.095753,31.02,67.4710352991151
4522,-8.687741,-3.521637,3.858427,0.007025,0.262367,0.081245,31.02,67.6282623516421
4532,-8.719445,-3.514458,3.824329,0.001222,0.239001,0.065057,31.02,67.8636477948889
4542,-8.742775,-3.52403,3.805784,-0.005956,0.212276,0.047189,31,68.0140235216261
4552,-8.756536,-3.541378,3.786044,-0.01237,0.182649,0.029474,31,68.1576738879939
4562,-8.776873,-3.540181,3.760919,-0.018479,0.151495,0.012217,31.03,68.327416729097
4572,-8.77807,-3.555735,3.736991,-0.025045,0.117439,-0.005651,31.03,68.4669717495623
4582,-8.78106,-3.552145,3.718446,-0.031612,0.043982,-0.039706,31,68.5670449576431
4592,-8.782258,-3.561118,3.71067,-0.041692,0.006261,-0.054825,31.02,68.6170079233818
4602,-8.763713,-3.577868,3.696911,-0.04612,-0.033139,-0.068722,31.02,68.6669081120152
4612,-8.748757,-3.580859,3.695715,-0.049327,-0.072998,-0.080634,31.01,68.647091443864
4622,-8.741579,-3.595814,3.696911,-0.052382,-0.111941,-0.08995,31.01,68.6388224803208
4632,-8.713464,-3.6006,3.689733,-0.054214,-0.151036,-0.099418,31.02,68.6268344567705
4642,-8.683554,-3.631108,3.70409,-0.054672,-0.187536,-0.10568,31.02,68.5182602720385
4652,-8.657831,-3.622734,3.714259,-0.054672,-0.223729,-0.110719,31.04,68.4084976127907
4662,-8.64467,-3.628716,3.726821,-0.054978,-0.257938,-0.113926,31.04,68.3216287675915
4672,-8.609376,-3.629912,3.742973,-0.05284,-0.288481,-0.113926,30.98,68.1687533676338
4682,-8.575877,-3.643072,3.769892,-0.049938,-0.316275,-0.112857,30.98,67.9717880469439
4692,-8.544769,-3.651447,3.784847,-0.045815,-0.34071,-0.110261,31.02,67.8383586116285
4702,-8.508279,-3.663411,3.822534,-0.041844,-0.360869,-0.105069,31.02,67.5766462142772
4712,-8.479566,-3.669992,3.858427,-0.037415,-0.377515,-0.099266,31.01,67.3349425404731
4722,-8.441879,-3.678965,3.898506,-0.030849,-0.388968,-0.093004,31.01,67.0546088268763
4732,-8.410771,-3.669992,3.93739,-0.025962,-0.395535,-0.083536,30.97,66.7773434827228
4742,-8.358727,-3.67418,4.023531,-0.020464,-0.396757,-0.074067,30.97,66.2186246827449
4752,-8.30489,-3.67418,4.063013,-0.016188,-0.392175,-0.053909,31.01,65.8961527874013
4762,-8.2678,-3.672983,4.118048,-0.008552,-0.366366,-0.043066,31.03,65.5256227188474
4772,-8.236095,-3.676572,4.155735,-0.00504,-0.34575,-0.03207,31.03,65.2619853867847
4782,-8.216354,-3.659822,4.187439,-0.002138,-0.319788,-0.020769,30.96,65.0356440085769
4792,-8.192427,-3.658028,4.233501,-0.000458,-0.290772,-0.012217,30.96,64.7394240668995
4802,-8.184052,-3.648456,4.269992,-0.000458,-0.257174,-0.003665,31.01,64.5204792169776
4812,-8.173882,-3.645465,4.28734,-0.000305,-0.221133,0.003971,31.01,64.4039662686109
4822,-8.163713,-3.626323,4.324429,-0.000458,-0.181732,0.012217,31.02,64.1682744265602
4832,-8.157133,-3.619144,4.343571,-0.001985,-0.140194,0.018326,31.02,64.0463557440566
4842,-8.154141,-3.620939,4.359723,-0.003512,-0.098197,0.022449,31.03,63.9574930487332
4852,-8.152347,-3.613162,4.366303,-0.006109,-0.054062,0.026114,31.03,63.9112323718214
4862,-8.166105,-3.609573,4.369295,-0.009316,-0.009927,0.029932,31.02,63.9239514570713
4872,-8.182258,-3.603591,4.371089,-0.013134,0.033139,0.031307,31.02,63.9459627259041
4882,-8.193623,-3.591029,4.373481,-0.016646,0.076816,0.032987,31.01,63.9471242190879
4892,-8.203195,-3.580261,4.349553,-0.020617,0.11805,0.033903,31.01,64.0821589726064
4902,-8.224131,-3.573082,4.344768,-0.024282,0.158061,0.033139,30.99,64.1479470889157
4912,-8.237292,-3.555735,4.326822,-0.027947,0.194255,0.032223,30.99,64.2538452979752
4922,-8.282157,-3.545565,4.265805,-0.03146,0.227395,0.031307,31.05,64.662638744768
4932,-8.303694,-3.541976,4.233501,-0.037415,0.285121,0.028863,31.05,64.8756438276179
4942,-8.340183,-3.536592,4.197609,-0.040164,0.307571,0.027794,31.01,65.1388073752044
4952,-8.363514,-3.535396,4.147958,-0.041539,0.325133,0.027794,31.06,65.4480923803986
4962,-8.376076,-3.540181,4.116253,-0.042913,0.337808,0.026878,31.06,65.6456677928905
4972,-8.400601,-3.533601,4.067201,-0.043371,0.345902,0.027336,31.06,65.9496716271338
4982,-8.422735,-3.538985,4.017549,-0.041692,0.34972,0.029169,31.06,66.2625925532498
4992,-8.447861,-3.529413,3.976273,-0.039248,0.347277,0.031001,31.07,66.524478022781
5002,-8.464012,-3.536592,3.92722,-0.036957,0.340405,0.033598,31.07,66.8232434018059
5012,-8.490333,-3.53061,3.888935,-0.032681,0.327424,0.037721,30.99,67.0749019282712
5022,-8.517252,-3.540779,3.852444,-0.027184,0.311083,0.041692,30.99,67.3317547042524
5032,-8.534002,-3.539583,3.813561,-0.022144,0.289703,0.045815,31.02,67.5705930043381
5042,-8.550752,-3.542574,3.781258,-0.016493,0.266643,0.051618,31.02,67.7780426259865
5052,-8.571091,-3.559324,3.75733,-0.011301,0.239917,0.057269,31.01,67.9593466739366
5062,-8.583653,-3.561118,3.732205,-0.006109,0.210749,0.062003,31.01,68.1189754374862
5072,-8.603992,-3.558726,3.728616,-0.00168,0.179136,0.066126,31.01,68.1760565837321
5082,-8.607581,-3.55394,3.721437,0.002596,0.146302,0.070097,31.01,68.2172955910145
5092,-8.62134,-3.56052,3.713063,0.007483,0.113163,0.07422,31.02,68.2939256775611
5102,-8.6345,-3.579663,3.716652,0.01069,0.04612,0.078038,31.02,68.3159681930304
5112,-8.650054,-3.578466,3.736392,0.01405,0.013744,0.077122,31.02,68.2409167348408
5122,-8.643474,-3.576672,3.742973,0.01573,-0.017104,0.0759,30.98,68.1918952869982
5132,-8.657232,-3.568297,3.765106,0.016188,-0.047037,0.072082,30.98,68.0953127347421
5143,-8.676972,-3.584448,3.783651,0.014355,-0.074984,0.066584,30.98,68.049460322699
5152,-8.66142,-3.584448,3.807579,0.012065,-0.100945,0.059712,30.98,67.8933562662052
5162,-8.677571,-3.585046,3.838088,0.009621,-0.125686,0.049786,31.05,67.7659029570606
5172,-8.662616,-3.605984,3.865007,0.005345,-0.147524,0.039706,31.05,67.612841422807
5182,-8.658429,-3.594618,3.869194,0.001222,-0.166003,0.027947,30.98,67.57326404195
5192,-8.645866,-3.604787,3.909274,-0.004581,-0.182801,0.013286,30.98,67.3475660506959
5202,-8.639885,-3.601198,3.921836,-0.010996,-0.196851,-0.001222,31.02,67.2671106457444
5212,-8.620144,-3.604189,3.939184,-0.01741,-0.207236,-0.015424,31.02,67.1394354106481
5222,-8.607581,-3.604787,3.964907,-0.023824,-0.217315,-0.031765,31.05,66.9805603215525
5232,-8.589635,-3.614957,3.996612,-0.029322,-0.223577,-0.046884,31.05,66.7878165033395
5242,-8.56451,-3.61077,3.999005,-0.034514,-0.228005,-0.061545,31.05,66.720057979418
5252,-8.544172,-3.619742,4.015156,-0.039859,-0.230143,-0.075289,31.05,66.6018496784273
5262,-8.530412,-3.609573,4.035496,-0.045968,-0.230907,-0.088423,31.02,66.4585258364594
5272,-8.474779,-3.627519,4.058825,-0.050244,-0.22938,-0.109345,31.02,66.2365295459719
5282,-8.447262,-3.621537,4.062415,-0.0562,-0.221439,-0.118813,31,66.1542673195867
5292,-8.422735,-3.619742,4.071986,-0.058796,-0.213803,-0.123853,31.02,66.0505882786904
5302,-8.38804,-3.612564,4.075575,-0.060781,-0.205556,-0.127671,31.02,65.9510824591847
5312,-8.373085,-3.621537,4.082754,-0.060934,-0.19563,-0.129503,31,65.889729773839
5322,-8.330013,-3.61376,4.094718,-0.060628,-0.184023,-0.129351,31,65.7267810477133
5332,-8.310272,-3.608975,4.106682,-0.060018,-0.171195,-0.125838,31.03,65.6165722383047
5342,-8.287541,-3.61376,4.095316,-0.057727,-0.156229,-0.11973,31.03,65.6312091425924
5352,-8.254042,-3.604189,4.115655,-0.055589,-0.140041,-0.112094,31,65.4415727845768
5362,-8.237292,-3.601198,4.10728,-0.052687,-0.122631,-0.102167,31,65.4458644599279
5372,-8.217552,-3.606582,4.125825,-0.049938,-0.104763,-0.08995,31.02,65.3096370520145
5382,-8.196015,-3.596412,4.121637,-0.046426,-0.086285,-0.076205,31.02,65.2739355579756
5392,-8.2014,-3.586841,4.124628,-0.041997,-0.065363,-0.062003,31.04,65.2607974936089
5402,-8.188837,-3.586841,4.124628,-0.037415,-0.045051,-0.045662,31.04,65.2327689489752
5412,-8.184052,-3.580859,4.13061,-0.032223,-0.023518,-0.027794,31.02,65.1846061358107
5422,-8.184052,-3.576672,4.145566,-0.027031,-0.001985,-0.010537,31.02,65.1015190168503
5432,-8.196614,-3.58385,4.143172,-0.022755,0.0197,0.006567,31.06,65.1493369954033
5442,-8.204391,-3.57069,4.149753,-0.018326,0.040928,0.024282,31.06,65.1192038376888
5452,-8.222935,-3.5671,4.14736,-0.01069,0.083536,0.057574,31.04,65.169818841684
5462,-8.237292,-3.556931,4.143771,-0.007941,0.104153,0.070708,31.05,65.2109454589445
5472,-8.255836,-3.553342,4.141976,-0.006261,0.123547,0.083994,31.05,65.2582673737797
5482,-8.300103,-3.558127,4.138985,-0.004429,0.142484,0.094837,31,65.3766770342403
5492,-8.318647,-3.546762,4.130012,-0.003054,0.160505,0.104,31,65.4539038089937
5502,-8.346166,-3.544966,4.132405,-0.003665,0.177456,0.111025,31.01,65.5001905762276
5512,-8.359326,-3.540181,4.125825,-0.003818,0.193186,0.115759,31.01,65.5590105544248
5522,-8.404191,-3.544369,4.109075,-0.005345,0.206625,0.116828,31.05,65.74814217286
5532,-8.423933,-3.546163,4.086941,-0.007636,0.219148,0.117439,31.05,65.9080314342989
5542,-8.467602,-3.549752,4.082156,-0.009621,0.228922,0.115301,31.03,66.029886881659
5552,-8.49452,-3.545565,4.060022,-0.011912,0.236405,0.111025,31.03,66.1987907881686
5562,-8.52443,-3.544966,4.035496,-0.014813,0.240375,0.103542,31.03,66.3892313061574
5572,-8.556136,-3.542574,4.01396,-0.017562,0.241444,0.095753,31.03,66.5657519374502
5582,-8.572288,-3.564708,3.988237,-0.019853,0.239459,0.086437,31.04,66.7523548384127
5592,-8.595018,-3.565306,3.965506,-0.021991,0.234114,0.0759,31.04,66.9181063907311
5602,-8.633304,-3.565306,3.942773,-0.024129,0.225257,0.063225,31.02,67.1146692010207
5612,-8.663215,-3.580261,3.879962,-0.025045,0.212428,0.051313,31.02,67.5147391564907
5622,-8.669196,-3.588037,3.844668,-0.025656,0.176235,0.02642,31,67.7173813541612
5632,-8.677571,-3.598207,3.824927,-0.024435,0.153174,0.013744,31.04,67.845478519994
5642,-8.68116,-3.603591,3.801597,-0.02306,0.126449,0.002443,31.04,67.9790439098305
5652,-8.685946,-3.61077,3.785445,-0.021838,0.097738,-0.00901,31.02,68.0788540876711
5662,-8.676972,-3.622135,3.76391,-0.020159,0.068417,-0.0197,31.02,68.1836071517016
5672,-8.678768,-3.622734,3.745365,-0.017104,0.036652,-0.029322,30.98,68.2850262415817
5682,-8.675776,-3.623332,3.741776,-0.014813,0.002596,-0.037874,30.98,68.2986040026801
5692,-8.669196,-3.626323,3.735196,-0.012065,-0.031307,-0.045968,31.02,68.3229409286858
5702,-8.651849,-3.629314,3.739982,-0.010232,-0.064294,-0.051618,31.02,68.2666068587309
5712,-8.645268,-3.637091,3.743571,-0.007789,-0.09728,-0.05681,31.06,68.2412730419954
5722,-8.627921,-3.647858,3.759125,-0.005956,-0.129045,-0.059712,31.06,68.1344418333199
5732,-8.608777,-3.638287,3.763312,-0.004429,-0.159894,-0.062614,31,68.0671055993446
5742,-8.5681,-3.642474,3.784249,-0.004123,-0.18891,-0.063988,31,67.8801071907939
5752,-8.565707,-3.64726,3.798008,-0.003971,-0.213497,-0.063225,31.05,67.8067697389109
5762,-8.539386,-3.644867,3.825525,-0.003207,-0.235947,-0.062156,31.05,67.6071932086015
5772,-8.513064,-3.650251,3.856034,-0.003665,-0.254884,-0.060781,31.04,67.3980648719275
5782,-8.488539,-3.642474,3.923631,-0.004887,-0.26985,-0.057116,31.04,66.9856001760485
5792,-8.443673,-3.64068,3.951746,-0.005803,-0.280998,-0.049327,31.02,66.7436236796123
5802,-8.413763,-3.626323,3.988835,-0.009927,-0.29123,-0.045051,31.04,66.4731898856204
5812,-8.379066,-3.629314,4.021737,-0.012675,-0.288787,-0.039554,31.04,66.2296686430213
5822,-8.357532,-3.619742,4.055236,-0.015119,-0.283441,-0.03375,31.04,65.998896273987
5832,-8.340781,-3.623332,4.09412,-0.017104,-0.272293,-0.027489,31.04,65.7622433063607
5842,-8.327621,-3.607778,4.131807,-0.019548,-0.258243,-0.02138,31.05,65.5217112295739
5852,-8.300103,-3.600002,4.155735,-0.022449,-0.239917,-0.016646,31.05,65.3288053896174
5862,-8.280961,-3.597011,4.183252,-0.026725,-0.218079,-0.011301,31.01,65.139757407425
5872,-8.263614,-3.592823,4.216154,-0.030543,-0.192423,-0.007178,31.01,64.9252621302581
5882,-8.269596,-3.582654,4.234099,-0.033598,-0.165086,-0.001833,31.01,64.8352450389856
5892,-8.265409,-3.585046,4.253242,-0.036499,-0.13439,0.000916,31.01,64.7285362838515
5902,-8.24148,-3.570091,4.265805,-0.041081,-0.101709,0.003818,31.09,64.5944304810716
5912,-8.248658,-3.555136,4.273581,-0.043371,-0.068417,0.005345,31.09,64.5555958910517
5922,-8.252247,-3.568895,4.292126,-0.045662,-0.03375,0.006109,31.05,64.480906108344
5932,-8.249256,-3.558726,4.281358,-0.048869,0.001985,0.007178,31.05,64.5200397331855
5942,-8.245069,-3.549154,4.28076,-0.050702,0.03711,0.007636,31,64.5042310188386
5952,-8.249854,-3.541378,4.251448,-0.052382,0.072082,0.007941,31,64.6601250154845
5962,-8.273185,-3.541378,4.239483,-0.052687,0.105222,0.009621,31.01,64.7752681084816
5972,-8.274381,-3.544369,4.206582,-0.051465,0.165544,0.010537,31.02,64.9524960694141
5982,-8.274381,-3.540779,4.175476,-0.04948,0.191812,0.011759,31.02,65.1117819810473
5992,-8.293524,-3.521038,4.154539,-0.046578,0.21533,0.014813,31,65.2454463634536
6002,-8.312068,-3.53719,4.110869,-0.041997,0.234267,0.018021,31,65.5309168266862
6012,-8.338388,-3.528217,4.080361,-0.037568,0.248775,0.020159,31.05,65.74064298571
6022,-8.347363,-3.533002,4.040281,-0.033139,0.25977,0.025351,31.05,65.975641669844
6032,-8.379665,-3.527619,4.005585,-0.027489,0.265726,0.028253,30.98,66.2233561520636
6042,-8.397013,-3.523431,3.971487,-0.02138,0.267101,0.033292,30.98,66.4367317178969
6052,-8.403594,-3.529413,3.940979,-0.015272,0.265268,0.037415,31.02,66.6174188090248
6062,-8.443673,-3.533002,3.911667,-0.00901,0.259007,0.042455,31.02,66.8598959144875
6072,-8.466404,-3.538985,3.890131,-0.003971,0.248622,0.047037,31,67.0263293656253
6082,-8.487941,-3.523431,3.862016,0.000305,0.235183,0.050244,31,67.2062882791236
6092,-8.52443,-3.534199,3.839284,0.004429,0.218537,0.053298,31.04,67.4104397027826
6102,-8.557931,-3.534797,3.825525,0.007789,0.199447,0.055741,31.04,67.5515979486384
6112,-8.566306,-3.546762,3.811767,0.010079,0.177762,0.057269,31.04,67.6511446391685
6122,-8.595617,-3.545565,3.79741,0.011454,0.154549,0.056963,31.04,67.7846630788307
6132,-8.626723,-3.553342,3.796213,0.011606,0.128893,0.0562,31.03,67.8591909493808
6142,-8.638687,-3.562913,3.786044,0.008705,0.0759,0.049786,31.03,67.9442191148918
6152,-8.658429,-3.557529,3.789633,0.00672,0.047495,0.045204,30.98,67.9598736513267
6165,-8.66142,-3.569493,3.796811,0.004123,0.019395,0.038637,30.98,67.937727675369
6172,-8.656036,-3.5671,3.80399,0,-0.007941,0.031918,30.98,67.8874621403761
6182,-8.676972,-3.580261,3.81715,-0.003207,-0.034208,0.023366,31,67.8703991949912
6192,-8.668597,-3.586841,3.824329,-0.007789,-0.059254,0.015272,31,67.8216520269865
6202,-8.674582,-3.601796,3.845864,-0.012981,-0.083841,0.005498,31.03,67.7330622064766
6212,-8.663813,-3.598805,3.85065,-0.018021,-0.105832,-0.004123,31.03,67.6842904104039
6222,-8.651849,-3.608377,3.860819,-0.022907,-0.126449,-0.014355,30.98,67.6153144580247
6232,-8.647661,-3.622135,3.88714,-0.027184,-0.145386,-0.024129,30.98,67.4810223154289
6242,-8.617152,-3.626921,3.895515,-0.031765,-0.162643,-0.033598,31,67.3803271310453
6252,-8.605188,-3.635894,3.916452,-0.034972,-0.177456,-0.041844,31,67.2546134079217
6262,-8.59143,-3.638287,3.930809,-0.03879,-0.18891,-0.051313,31.03,67.1539969880547
6272,-8.575278,-3.644867,3.946362,-0.04215,-0.1996,-0.058796,31.03,67.0458028964402
6282,-8.557332,-3.64726,3.970889,-0.045051,-0.207541,-0.064752,31.04,66.8834527613391
6292,-8.519646,-3.659224,3.966104,-0.045509,-0.213497,-0.068875,31.04,66.8416698773646
6302,-8.511868,-3.663411,4.014558,-0.046578,-0.216246,-0.073915,31.02,66.5766664031231
6312,-8.445468,-3.662813,4.022933,-0.048258,-0.215941,-0.078343,31.02,66.3941068172969
6322,-8.423933,-3.665804,4.033103,-0.046884,-0.213192,-0.078649,31,66.2984480632402
6332,-8.396414,-3.662813,4.041477,-0.04612,-0.207847,-0.076664,30.99,66.1937901006501
6342,-8.370093,-3.65384,4.052245,-0.044135,-0.200517,-0.074831,30.99,66.0731485460849
6352,-8.353344,-3.672385,4.064209,-0.041539,-0.190743,-0.071319,31.03,65.9920449243514
6362,-8.328219,-3.658028,4.086941,-0.039401,-0.178373,-0.066126,31.03,65.8054616040266
6372,-8.30788,-3.656831,4.102495,-0.036652,-0.165697,-0.061697,31.04,65.6788278980433
6382,-8.279764,-3.649055,4.11745,-0.033598,-0.149815,-0.054367,31.04,65.5317647387253
6392,-8.27139,-3.65384,4.125226,-0.030543,-0.133016,-0.047342,31.02,65.4772831220243
6402,-8.264212,-3.641278,4.122235,-0.027336,-0.113926,-0.039859,31.02,65.4651101351719
6412,-8.255836,-3.635894,4.13719,-0.024282,-0.094379,-0.03146,31.06,65.3629885369984
6422,-8.244471,-3.629314,4.143172,-0.021228,-0.074373,-0.022907,31.06,65.3001238507493
6432,-8.236095,-3.620939,4.141378,-0.018479,-0.053145,-0.014203,31.01,65.2828668513568
6442,-8.23789,-3.604189,4.150949,-0.016799,-0.03146,-0.004581,31.01,65.2202709376632
6452,-8.228318,-3.594618,4.155136,-0.01405,-0.009927,0.004123,31.02,65.1676637551304
6462,-8.231908,-3.593421,4.146762,-0.011912,0.010996,0.012675,31.02,65.2185146458817
6472,-8.233703,-3.585645,4.151547,-0.009468,0.032987,0.023213,31.04,65.1898060929353
6482,-8.252846,-3.556931,4.149753,-0.008552,0.052993,0.037874,31.04,65.2141707601067
6492,-8.279764,-3.552145,4.151547,-0.008705,0.092546,0.044746,31.01,65.2600626543812
6502,-8.289934,-3.546762,4.137789,-0.008399,0.111788,0.051924,31.06,65.3496966736175
6512,-8.307282,-3.538985,4.143172,-0.009927,0.129962,0.057574,31.06,65.3525133551275
6522,-8.327023,-3.531208,4.125226,-0.010537,0.147371,0.061697,31,65.4828779346279
6532,-8.341978,-3.519842,4.130012,-0.013592,0.162643,0.064294,31,65.4801347746001
6542,-8.374281,-3.511467,4.112664,-0.016493,0.177456,0.066126,31.01,65.6341324930777
6552,-8.394022,-3.521038,4.095914,-0.017562,0.189826,0.067042,31.01,65.7735930590832
6562,-8.408977,-3.515056,4.080361,-0.019548,0.200058,0.067806,31.04,65.8820111626211
6572,-8.435298,-3.509673,4.066602,-0.022144,0.207541,0.067806,31.04,66.0059812320328
6582,-8.467003,-3.500101,4.032505,-0.024129,0.212276,0.065668,31.02,66.2439118625218
6592,-8.47119,-3.508476,4.012166,-0.025045,0.215483,0.062919,31.02,66.3667892827837
6602,-8.506484,-3.513262,3.996014,-0.026725,0.21533,0.059865,31.02,66.530137591175
6612,-8.527422,-3.512065,3.972684,-0.026573,0.21197,0.056505,31.02,66.6951914247285
6622,-8.535198,-3.512664,3.951149,-0.02642,0.206167,0.052382,31.01,66.8248097259044
6632,-8.559725,-3.518047,3.927818,-0.025809,0.196393,0.048717,31.01,67.0025131690803
6642,-8.568698,-3.518646,3.897908,-0.025198,0.184481,0.043677,31.02,67.1784784955806
6652,-8.596813,-3.535396,3.853641,-0.023518,0.170737,0.039859,31.02,67.4822948356546
6662,-8.597412,-3.541378,3.834498,-0.019242,0.13439,0.031612,31.04,67.5892070449156
6672,-8.606385,-3.541976,3.82074,-0.017104,0.113316,0.027642,30.98,67.6801525030358
6682,-8.611769,-3.559922,3.813561,-0.01405,0.090408,0.024129,30.98,67.7434883546994
6692,-8.62134,-3.559922,3.807579,-0.011148,0.066584,0.021533,31.03,67.7940281976037
6702,-8.612367,-3.576672,3.789035,-0.009163,0.041081,0.018326,31.03,67.887705095572
6712,-8.61835,-3.579065,3.79382,-0.006567,0.014355,0.015272,31,67.8762861562948
6722,-8.616553,-3.586841,3.794419,-0.004734,-0.011454,0.012828,31,67.8759705417224
6732,-8.629715,-3.592225,3.801597,-0.002443,-0.036957,0.009621,31.02,67.868623734679
6742,-8.614759,-3.609573,3.81057,-0.000916,-0.062614,0.006261,31.02,67.8061895776365
6752,-8.606983,-3.6006,3.806981,-0.000764,-0.087201,0.002443,31.03,67.8022360283734
6762,-8.605787,-3.612564,3.824329,0,-0.109803,-0.000764,31.03,67.7185508477699
6772,-8.602796,-3.614957,3.84048,-0.000458,-0.130878,-0.005956,31,67.6297510638677
6782,-8.600404,-3.633501,3.859623,-0.001833,-0.150426,-0.010537,31,67.5401393048945
6792,-8.58126,-3.63051,3.884149,-0.002902,-0.16753,-0.015119,31.05,67.3707344927019
6802,-8.567502,-3.631706,3.902694,-0.005192,-0.183412,-0.020922,31.05,67.2468821057477
6812,-8.563314,-3.628716,3.914658,-0.008705,-0.196393,-0.026573,31.01,67.1732059229598
6822,-8.547761,-3.635894,3.958925,-0.01237,-0.207236,-0.032529,31.01,66.9163524685737
6832,-8.513663,-3.632903,3.982255,-0.016799,-0.22205,-0.04612,31.01,66.7217718667346
6842,-8.508877,-3.633501,3.998407,-0.024587,-0.225104,-0.053298,31.05,66.6280680706274
6852,-8.484351,-3.6341,4.025326,-0.029627,-0.22602,-0.05849,31.05,66.4370954956367
6862,-8.467003,-3.646662,4.042674,-0.034208,-0.224646,-0.064752,31.03,66.3215982881601
6872,-8.448458,-3.637689,4.066004,-0.038332,-0.22037,-0.070402,31.03,66.1527821182504
6882,-8.426325,-3.632305,4.084548,-0.043219,-0.21365,-0.073762,31.02,66.0042347090737
6892,-8.390432,-3.629314,4.100101,-0.046884,-0.205098,-0.078496,31.02,65.8435878494628
6902,-8.379665,-3.631108,4.118646,-0.050091,-0.194255,-0.081398,31.05,65.7253577959756
6912,-8.357532,-3.627519,4.13061,-0.053298,-0.179594,-0.08262,31.05,65.6117156104632
6922,-8.339585,-3.612564,4.146163,-0.056505,-0.163559,-0.082161,31.05,65.4773830710731
6932,-8.318049,-3.616153,4.162315,-0.058948,-0.145997,-0.082161,31.05,65.3493411441974
6942,-8.312068,-3.624528,4.171886,-0.060628,-0.125838,-0.080481,31.03,65.2942843930636
6952,-8.285149,-3.61077,4.182056,-0.062003,-0.103236,-0.076969,31.03,65.1685673700374
6962,-8.275578,-3.618546,4.171886,-0.062308,-0.080634,-0.071777,31.05,65.2080306911282
6972,-8.260622,-3.604787,4.181458,-0.06185,-0.056505,-0.065515,31.05,65.1114595863884
6982,-8.240881,-3.599404,4.174279,-0.060934,-0.032529,-0.058032,31.04,65.0998536547809
6992,-8.234302,-3.589832,4.168297,-0.059407,-0.006872,-0.049938,31.04,65.1072320356119
7002,-8.222935,-3.583252,4.161717,-0.0562,0.017257,-0.02978,31,65.1099899580907
7012,-8.22772,-3.583252,4.152744,-0.049022,0.064446,-0.018173,31.02,65.1678505688441
7022,-8.236095,-3.576073,4.136592,-0.043982,0.086896,-0.006109,31.02,65.2645321982687
7032,-8.233105,-3.57069,4.127021,-0.039095,0.107818,0.007025,31.05,65.3030975795957
7042,-8.243872,-3.575475,4.109075,-0.03375,0.126755,0.020922,31.05,65.4261878874421
7052,-8.2678,-3.561717,4.092325,-0.027794,0.14447,0.034514,31.03,65.5542163173647
7062,-8.272586,-3.552743,4.078567,-0.021838,0.160199,0.047495,31.03,65.6288605775921
7072,-8.277372,-3.554538,4.073781,-0.016799,0.174402,0.060476,31.04,65.6663356074602
7082,-8.304291,-3.546762,4.064209,-0.011148,0.186314,0.073304,31.04,65.7684965866663
7092,-8.325229,-3.546163,4.038486,-0.005651,0.197309,0.084452,31.04,65.9492701516848
7102,-8.347363,-3.549752,4.022335,-0.001527,0.205403,0.094379,31.04,66.0856686310572
7112,-8.383254,-3.549752,4.015156,0.002749,0.211512,0.102167,31.03,66.2005829036014
7122,-8.412566,-3.548556,4.001996,0.005192,0.215177,0.10797,31.03,66.3313281634684
7132,-8.443673,-3.544369,3.98405,0.007636,0.21701,0.112094,31.05,66.4879268954774
7142,-8.46102,-3.548556,3.969693,0.008858,0.215941,0.115759,31.05,66.6036580725078
7152,-8.486146,-3.541976,3.959523,0.010079,0.212887,0.115759,31.05,66.7039752926807
7162,-8.528618,-3.544369,3.936791,0.010385,0.206778,0.113468,31.05,66.9136935421411
7172,-8.567502,-3.542574,3.905685,0.010079,0.198989,0.110261,31.02,67.1553483366616
7182,-8.605787,-3.556333,3.894319,0.007025,0.174707,0.097433,31,67.3043684226739
7192,-8.630911,-3.552743,3.886542,0.005651,0.158825,0.088575,31,67.3928201168118
7202,-8.639885,-3.546762,3.866802,0.003207,0.140194,0.077427,31.04,67.5092423859832
7212,-8.665607,-3.555735,3.853043,0.001222,0.11973,0.065821,31.04,67.6400241153752
7222,-8.69133,-3.561118,3.839284,-0.001222,0.097891,0.052534,31.04,67.767385899521
7232,-8.678768,-3.568297,3.828516,-0.003054,0.073151,0.04047,31.04,67.8047085892248
7242,-8.692527,-3.58385,3.82074,-0.005956,0.048411,0.026878,31.06,67.8851163938391
7252,-8.694322,-3.577868,3.820141,-0.008094,0.021991,0.012828,31.06,67.8869346851766
7262,-8.696116,-3.58385,3.820141,-0.010385,-0.005345,-0.000764,31.04,67.8952985225621
7272,-8.688339,-3.586841,3.807579,-0.013592,-0.032529,-0.01405,31.04,67.9481929313849
7282,-8.679964,-3.597011,3.811767,-0.015272,-0.060476,-0.027031,31.02,67.9180866960345
7292,-8.672785,-3.608377,3.808775,-0.018173,-0.087048,-0.039401,31.02,67.9289317518781
7302,-8.641679,-3.605386,3.820141,-0.020311,-0.112094,-0.048869,31.02,67.8056784543731
7312,-8.633304,-3.602993,3.833302,-0.022907,-0.136987,-0.058948,31.02,67.718097916582
7322,-8.627921,-3.620341,3.843472,-0.023671,-0.159589,-0.065668,31.01,67.6685119706045
7332,-8.592029,-3.615555,3.856632,-0.025504,-0.1799,-0.073304,31.01,67.5239652454523
7342,-8.544172,-3.633501,3.899105,-0.027642,-0.19792,-0.079412,31.05,67.2200012103236
7352,-8.520243,-3.63051,3.909274,-0.029474,-0.226631,-0.083994,31.05,67.115390391209
7362,-8.488539,-3.628716,3.926622,-0.032376,-0.237168,-0.083994,31.01,66.9577826436176
7372,-8.455039,-3.627519,3.946362,-0.033292,-0.243735,-0.082925,31,66.7837781564753
7382,-8.428718,-3.622135,3.976273,-0.034208,-0.247706,-0.080481,31,66.566825468222
7392,-8.417951,-3.637689,3.996014,-0.03543,-0.249691,-0.077122,31.02,66.4545772108363
7402,-8.400003,-3.6341,4.009772,-0.035583,-0.2474,-0.071166,31.02,66.3412583318935
7412,-8.368897,-3.635296,4.048058,-0.036194,-0.242055,-0.064904,30.98,66.0753283721403
7422,-8.337791,-3.63051,4.070789,-0.036805,-0.23503,-0.059407,30.98,65.8848689331179
7432,-8.332406,-3.622135,4.086343,-0.036346,-0.224951,-0.051313,31.01,65.7837664903786
7442,-8.312666,-3.619742,4.101896,-0.036346,-0.212276,-0.04383,31.01,65.6570948735278
7452,-8.292925,-3.614957,4.121039,-0.036041,-0.196088,-0.035888,31.05,65.5090351914981
7462,-8.275578,-3.610171,4.146762,-0.036041,-0.178373,-0.028558,31.05,65.3314564125644
7472,-8.25165,-3.61376,4.165905,-0.03543,-0.157298,-0.020464,31.02,65.1816668297467
7482,-8.252846,-3.608377,4.188038,-0.034819,-0.13439,-0.012828,31.02,65.0632207075052
7492,-8.249256,-3.60718,4.190431,-0.034514,-0.108123,-0.006261,31.06,65.0415336664949
7502,-8.239087,-3.596412,4.213761,-0.034972,-0.081551,-0.000153,31.06,64.8862819850288
7512,-8.251051,-3.578466,4.225127,-0.035277,-0.052076,0.007025,31.09,64.836265257157
7522,-8.245069,-3.577868,4.226922,-0.035736,0.006872,0.015577,31.09,64.8128484161911
7532,-8.254042,-3.567699,4.223332,-0.036805,0.037263,0.020006,31.02,64.8418752429321
7542,-8.266603,-3.561717,4.222135,-0.036499,0.067806,0.022297,31.04,64.8705665730296
7552,-8.268997,-3.558127,4.214957,-0.036652,0.096975,0.026114,31.04,64.9099328991177
7562,-8.286345,-3.558127,4.20718,-0.03543,0.124617,0.028711,31.02,64.9893986767241
7572,-8.30489,-3.547958,4.182654,-0.034972,0.149662,0.029932,31.02,65.1490993733677
7582,-8.312068,-3.543172,4.172484,-0.035277,0.173028,0.029932,31.02,65.2136534257137
7592,-8.333005,-3.537788,4.138387,-0.032987,0.19395,0.031307,31.02,65.4332448488761
7602,-8.35454,-3.533002,4.11386,-0.031307,0.211207,0.03207,31.06,65.6045215363083
7612,-8.377871,-3.535994,4.085146,-0.031001,0.224951,0.03207,31.06,65.8086011968349
7622,-8.401799,-3.540779,4.060022,-0.0281,0.235336,0.031612,31,65.9964064888785
7632,-8.407183,-3.535396,4.036692,-0.025962,0.241597,0.031918,31,66.1255552144515
7642,-8.447262,-3.53719,4.00379,-0.02474,0.244652,0.030696,31.02,66.3853839057279
7652,-8.471789,-3.543172,3.971487,-0.021686,0.243735,0.030391,31.02,66.6120873562453
7662,-8.491529,-3.537788,3.951746,-0.018173,0.239154,0.030085,31.01,66.7524493006424
7672,-8.501101,-3.538387,3.918247,-0.01573,0.231212,0.028711,31.01,66.9491663484799
7682,-8.537591,-3.549154,3.876373,-0.013592,0.219606,0.027642,31.01,67.2540115566603
7692,-8.554939,-3.538387,3.856632,-0.010232,0.205403,0.026878,31.01,67.3843089904845
7702,-8.562119,-3.558127,3.835695,-0.004581,0.168752,0.027336,31,67.525833136021
7712,-8.573483,-3.554538,3.809374,-0.003054,0.147371,0.02642,31.03,67.6846466516937
7722,-8.590234,-3.567699,3.809972,-0.002443,0.124006,0.025962,31.03,67.7258973216871
7732,-8.592029,-3.568297,3.808177,-0.000916,0.100182,0.025504,31.02,67.7394412631189
7742,-8.598608,-3.564708,3.796811,-0.000305,0.074831,0.025809,31.02,67.8095436731203
7752,-8.592029,-3.588636,3.8004,0.000305,0.050091,0.025962,31.02,67.7973217262981
7762,-8.609975,-3.586841,3.806981,0.001069,0.024435,0.025045,31.02,67.7967794423031
7772,-8.606983,-3.594618,3.798606,0.000305,-0.001069,0.023671,30.98,67.8413918782052
7782,-8.603992,-3.589832,3.818945,-0.000305,-0.02474,0.023976,30.98,67.7243898821378
7792,-8.600404,-3.592823,3.824927,-0.000916,-0.047953,0.022602,31.03,67.688255925412
7802,-8.592626,-3.608377,3.835695,-0.002749,-0.070097,0.020922,31.03,67.6291056882885
7812,-8.590831,-3.611966,3.842275,-0.004123,-0.090255,0.018173,31.02,67.5939477752561
7822,-8.58126,-3.620939,3.866802,-0.005956,-0.108581,0.016188,31.02,67.4535600873705
7832,-8.581859,-3.62393,3.881757,-0.008399,-0.125075,0.01237,31.02,67.3788783638519
7842,-8.576474,-3.628117,3.895515,-0.010232,-0.140041,0.008705,31.02,67.2995242379673
7852,-8.559725,-3.626921,3.912863,-0.012828,-0.152411,0.004887,31.01,67.1737781384933
7862,-8.539985,-3.635296,3.954139,-0.014966,-0.162337,0.000916,31.01,66.9249033373018
7872,-8.530412,-3.632305,3.972684,-0.01909,-0.176235,-0.007636,31.05,66.8057731358418
7882,-8.513663,-3.650251,3.99063,-0.021991,-0.180053,-0.013134,31.04,66.6933856194923
7892,-8.502895,-3.639483,4.009772,-0.024587,-0.182038,-0.018326,31.04,66.56167398244
7902,-8.499905,-3.64726,4.014558,-0.027489,-0.181122,-0.023213,31.04,66.5374344281864
7912,-8.473583,-3.643671,4.0337,-0.030085,-0.178984,-0.028558,31.04,66.3794848240848
7922,-8.469995,-3.641278,4.050451,-0.031918,-0.175318,-0.034819,31.03,66.2824918293062
7932,-8.450253,-3.644269,4.067201,-0.03543,-0.170279,-0.03879,31.03,66.1563381207707
7942,-8.441879,-3.63051,4.074379,-0.03711,-0.162948,-0.043982,31.07,66.0886559283671
7952,-8.426923,-3.637091,4.085745,-0.038637,-0.154702,-0.047647,31.07,66.0036679126309
7962,-8.41137,-3.635894,4.089334,-0.040623,-0.145233,-0.051007,31.02,65.9506899872888
7972,-8.394022,-3.63051,4.083352,-0.04215,-0.135307,-0.054062,31.02,65.9398372014914
7982,-8.380263,-3.625725,4.094718,-0.043524,-0.123089,-0.057116,31.05,65.8465026873256
7992,-8.370093,-3.608975,4.105485,-0.04444,-0.111025,-0.058185,31.05,65.7527248249654
8002,-8.349156,-3.604787,4.103691,-0.045968,-0.098807,-0.059254,31.04,65.7128679455782
8012,-8.340183,-3.601796,4.110271,-0.045968,-0.08491,-0.05849,31.04,65.6561331350438
8022,-8.327621,-3.599404,4.104289,-0.04612,-0.07086,-0.0562,31.03,65.6578912223849
8032,-8.321639,-3.583252,4.109075,-0.045051,-0.057879,-0.05284,31.03,65.6045510755478
8042,-8.299506,-3.581457,4.101896,-0.044288,-0.030391,-0.043066,31.05,65.5921391431901
8052,-8.297112,-3.562913,4.104289,-0.041386,-0.015577,-0.036041,31.03,65.5568004361168
8062,-8.288139,-3.576073,4.101298,-0.039248,-0.000764,-0.028711,31.03,65.565269246419
8072,-8.292925,-3.569493,4.09412,-0.037874,0.012675,-0.020006,31.04,65.6073217846743
8082,-8.280362,-3.542574,4.091727,-0.035736,0.02642,-0.010079,31.04,65.5669365464932
8092,-8.277372,-3.55394,4.092325,-0.033445,0.040928,-0.000764,31.04,65.5679257612172
8102,-8.276175,-3.539583,4.091727,-0.030085,0.05452,0.009774,31.04,65.5548901886262
8112,-8.289336,-3.536592,4.082156,-0.0281,0.067959,0.018937,31.07,65.6315380244195
8122,-8.31147,-3.529413,4.080361,-0.025198,0.080634,0.029474,31.07,65.6828730356604
8132,-8.316854,-3.528217,4.076173,-0.021991,0.094073,0.039859,31.04,65.7156208612413
8142,-8.33121,-3.52044,4.074379,-0.020617,0.105374,0.048717,31.04,65.7492661657062
8152,-8.327621,-3.52702,4.070789,-0.018479,0.117133,0.056352,30.98,65.7664159471308
8166,-8.378469,-3.519244,4.050451,-0.015577,0.135918,0.069486,31,65.9768164865938
8172,-8.378469,-3.519244,4.050451,-0.015577,0.135918,0.069486,31,65.9768164865938
8182,-8.395219,-3.515655,4.03729,-0.012981,0.143706,0.074067,31,66.0789241233638
8192,-8.423334,-3.523431,4.036094,-0.012217,0.15012,0.077274,31.02,66.1525419680788
8202,-8.442476,-3.512664,4.009772,-0.011454,0.155312,0.078496,31.02,66.3220620256255
8212,-8.476574,-3.535994,3.991228,-0.009927,0.15852,0.078343,31.02,66.5121652616893
8222,-8.507681,-3.529413,3.97747,-0.009621,0.157909,0.074526,31.04,66.6438429460033
8232,-8.511868,-3.534199,3.979862,-0.008552,0.154396,0.071013,31.04,66.6442107526434
8242,-8.546564,-3.549752,3.960122,-0.008399,0.149204,0.066126,31.06,66.8331281547217
8252,-8.554939,-3.540181,3.939782,-0.008247,0.141721,0.060018,31.06,66.9487313915986
8262,-8.583653,-3.549752,3.929613,-0.007941,0.131794,0.053756,31.02,67.0690459741684
8272,-8.592626,-3.561118,3.917051,-0.00901,0.120799,0.045204,31.02,67.1626804165497
8282,-8.596813,-3.568895,3.913461,-0.009163,0.107512,0.036652,31.03,67.1965337883996
8292,-8.618947,-3.571886,3.891926,-0.009163,0.092393,0.029169,31.03,67.356478658358
8302,-8.622537,-3.576672,3.896114,-0.009774,0.076511,0.01909,31.02,67.3458144750014
8312,-8.629715,-3.588037,3.878167,-0.009774,0.058948,0.009774,31.02,67.4635618644355
8322,-8.628518,-3.605386,3.862614,-0.010996,0.040012,0.001374,31.01,67.5569995169676
8332,-8.645268,-3.603591,3.863212,-0.01237,0.020617,-0.007483,31.01,67.5857536366613
8342,-8.620741,-3.614359,3.854837,-0.013897,0.000458,-0.015577,31.02,67.5897052323431
8352,-8.626723,-3.615555,3.856034,-0.015272,-0.020617,-0.02306,31.02,67.5963475612166
8362,-8.613564,-3.616751,3.846462,-0.016493,-0.041081,-0.029016,31.02,67.6213066620072
8372,-8.590831,-3.637689,3.854837,-0.017715,-0.060781,-0.036194,31.02,67.5496631567217
8382,-8.565108,-3.635894,3.861418,-0.018937,-0.080787,-0.042455,31.05,67.4621140605052
8392,-8.562119,-3.63051,3.866802,-0.022907,-0.118661,-0.051465,31.05,67.4232405779572
8402,-8.549556,-3.641278,3.875176,-0.024435,-0.135154,-0.054825,31,67.3631786029246
8412,-8.526823,-3.643671,3.893721,-0.026573,-0.149815,-0.055894,31,67.2218745757275
8422,-8.507083,-3.648456,3.910471,-0.027794,-0.163559,-0.056047,31,67.0979126036272
8432,-8.505887,-3.644269,3.921238,-0.029474,-0.175166,-0.056658,31.02,67.0352705850406
8442,-8.476574,-3.638885,3.935595,-0.031612,-0.185092,-0.057116,31.02,66.8949707919373
8452,-8.452645,-3.650251,3.964309,-0.033139,-0.191812,-0.055741,31.03,66.704801091038
8462,-8.4347,-3.646064,3.980461,-0.035125,-0.195477,-0.053451,31.03,66.578889614841
8472,-8.419147,-3.643671,4.002594,-0.036194,-0.197768,-0.051771,31.01,66.4279864633831
8482,-8.402397,-3.637689,4.021737,-0.037415,-0.196393,-0.049175,31.01,66.2867968447494
8492,-8.377871,-3.635296,4.041477,-0.038637,-0.191812,-0.045357,31.03,66.1289921381339
8502,-8.369495,-3.632305,4.055834,-0.040775,-0.184787,-0.042913,31.03,66.0330446954026
8512,-8.356933,-3.6341,4.083352,-0.041539,-0.174707,-0.038179,31.05,65.8635823094097
8522,-8.337193,-3.624528,4.098307,-0.042302,-0.162337,-0.034208,31.05,65.7336695349398
8532,-8.333005,-3.623332,4.115655,-0.043677,-0.147677,-0.031001,31.02,65.6326384488359
8542,-8.312666,-3.618546,4.129414,-0.044746,-0.129809,-0.026878,31.02,65.5117693583719
8552,-8.313862,-3.595814,4.156931,-0.045204,-0.110567,-0.023518,31.05,65.348860121305
8562,-8.297711,-3.597609,4.170092,-0.045662,-0.06857,-0.015272,31.05,65.2461916996525
8572,-8.294122,-3.582056,4.170092,-0.045509,-0.045662,-0.010537,30.95,65.2233582150608
8582,-8.28156,-3.575475,4.17069,-0.043982,-0.021838,-0.005956,30.98,65.1860595217032
8592,-8.277372,-3.570091,4.171886,-0.043219,0.001069,-0.000916,30.98,65.1653252963409
8602,-8.303694,-3.571886,4.165905,-0.042302,0.024587,0.002902,31.05,65.2567372413751
8612,-8.28455,-3.558127,4.155136,-0.040317,0.047647,0.008094,31.05,65.2575719801085
8622,-8.288139,-3.555136,4.143771,-0.039095,0.06857,0.012981,31.06,65.3222768360022
8632,-8.3013,-3.550351,4.129414,-0.035736,0.088423,0.017868,31.06,65.4221750699282
8642,-8.313264,-3.558127,4.119244,-0.032529,0.106901,0.024587,31.01,65.5092183639817
8652,-8.313264,-3.544369,4.111467,-0.029474,0.125075,0.02978,31.01,65.5371305284995
8662,-8.337193,-3.540181,4.083352,-0.02642,0.140194,0.035583,31.03,65.7333737915607
8672,-8.344969,-3.526422,4.067799,-0.022755,0.152716,0.040317,31.03,65.819430611314
8682,-8.357532,-3.534199,4.058227,-0.019853,0.163406,0.046426,31.02,65.9042331976587
8692,-8.379665,-3.531208,4.038486,-0.01573,0.171806,0.051007,31.02,66.0532100941527
8702,-8.395219,-3.531208,4.018147,-0.012217,0.177151,0.055436,31.03,66.1936883433241
8712,-8.405987,-3.53061,3.996014,-0.008858,0.180205,0.06017,31.03,66.3327648718805
8722,-8.439486,-3.525824,3.951149,-0.005803,0.180969,0.064141,31.03,66.636127086762
8732,-8.470592,-3.521637,3.942175,-0.003512,0.178831,0.068875,31.03,66.7450749199834
8742,-8.486146,-3.529413,3.923033,0.001374,0.165544,0.068722,31.03,66.885180112974
8752,-8.507083,-3.530011,3.905685,0.002749,0.155771,0.069028,31.01,67.0205452751039
8762,-8.528021,-3.533601,3.888337,0.004276,0.143706,0.06857,31.01,67.1581646293206
8772,-8.557332,-3.543172,3.885346,0.004887,0.129351,0.066432,31.05,67.2419670650385
8782,-8.580662,-3.53719,3.867998,0.00504,0.112705,0.064294,31.05,67.3756205835209
8792,-8.581859,-3.551547,3.866802,0.00504,0.094684,0.059865,31.04,67.3963392745541
8802,-8.584849,-3.555735,3.859623,0.004734,0.075747,0.054978,31.04,67.4436318403632
8812,-8.6016,-3.56411,3.844069,0.004734,0.055589,0.048869,31.04,67.5660947236669
8822,-8.618947,-3.561118,3.856034,0.003054,0.035583,0.042761,31.04,67.5355542090673
8832,-8.628518,-3.562315,3.85723,0.001222,0.013897,0.035736,31.05,67.5494496463225
8842,-8.617751,-3.571886,3.858427,-0.001222,-0.006261,0.0281,31.05,67.5295359977268
8852,-8.626723,-3.57727,3.868596,-0.003818,-0.026725,0.01909,31.02,67.4986954424393
8862,-8.613564,-3.580859,3.884748,-0.006872,-0.046426,0.010385,31.02,67.3906977293684
8872,-8.614162,-3.580261,3.884149,-0.009468,-0.064599,0.000916,31.04,67.394536455892
8882,-8.617152,-3.597609,3.902096,-0.012828,-0.080787,-0.007636,31.04,67.3212609032614
8892,-8.602198,-3.604189,3.901497,-0.016493,-0.095448,-0.016799,31,67.2997952159288
8902,-8.584252,-3.61376,3.935595,-0.020159,-0.108887,-0.025962,31,67.0934665666752
8912,-8.571091,-3.616153,3.948158,-0.027031,-0.129045,-0.04047,31.03,67.0031439291018
8922,-8.551949,-3.621537,3.957131,-0.031154,-0.136376,-0.048717,31.03,66.9218163060507
8932,-8.534002,-3.63051,3.957729,-0.03543,-0.142942,-0.055283,31.03,66.8897019523023
8942,-8.510075,-3.640081,3.982255,-0.03879,-0.146913,-0.059101,31.03,66.7206944559136
8952,-8.495118,-3.629912,4.002594,-0.041233,-0.148898,-0.063835,31.03,66.5744476045263
8962,-8.477771,-3.628716,4.004987,-0.04444,-0.149357,-0.06689,31.02,66.5247326458399
8972,-8.459227,-3.641876,4.030112,-0.04612,-0.148593,-0.06857,31.02,66.3664865775986
8982,-8.447861,-3.637091,4.032505,-0.048258,-0.14676,-0.06918,31.05,66.3257746627574
8992,-8.418548,-3.642474,4.035496,-0.049786,-0.142942,-0.068875,31.05,66.2532236095174
9002,-8.409575,-3.632305,4.03729,-0.05116,-0.13775,-0.067653,31,66.2155417288437
9012,-8.409575,-3.638287,4.058825,-0.050855,-0.1321,-0.06521,31,66.1083506650414
9022,-8.375478,-3.645465,4.064807,-0.051618,-0.12538,-0.062461,31.03,66.0110411402602
9032,-8.360522,-3.637091,4.062415,-0.05116,-0.11637,-0.058185,31.03,65.9837833924227
9042,-8.358727,-3.644269,4.064209,-0.051313,-0.106901,-0.053603,31.06,65.9772292190262
9052,-8.333005,-3.626921,4.074977,-0.050702,-0.096975,-0.047647,31.06,65.8491983897056
9062,-8.326425,-3.62393,4.085146,-0.049633,-0.085216,-0.042608,31.01,65.7787929967723
9072,-8.30788,-3.622135,4.085146,-0.047495,-0.072082,-0.036041,31.01,65.7368968910152
9082,-8.298907,-3.600002,4.095914,-0.047495,-0.045204,-0.022297,31,65.6398167342965
9092,-8.299506,-3.597609,4.096512,-0.043524,-0.030849,-0.015882,31.03,65.6357156461444
9102,-8.289336,-3.599404,4.091129,-0.042302,-0.016646,-0.008705,31.03,65.6435097140312
9112,-8.3013,-3.592225,4.101896,-0.040623,-0.001222,-0.000764,31.02,65.6062474899329
9122,-8.306684,-3.586841,4.098307,-0.037874,0.013439,0.005803,31.02,65.6317859859858
9132,-8.31147,-3.580261,4.097709,-0.036652,0.0281,0.012675,31.05,65.639184621678
9142,-8.316854,-3.574877,4.089334,-0.034972,0.042608,0.018631,31.05,65.6898939820737
9152,-8.324032,-3.559922,4.084548,-0.032987,0.0562,0.024587,31,65.7167271870697
9162,-8.334201,-3.556333,4.082754,-0.029627,0.069486,0.030543,31,65.7449826133479
9172,-8.343773,-3.55394,4.071388,-0.027336,0.082009,0.034972,31.04,65.823333919703
9182,-8.353344,-3.55394,4.067201,-0.026114,0.093615,0.040012,31.04,65.8661088533668
9192,-8.374879,-3.541976,4.053442,-0.024282,0.102625,0.043219,31.02,65.9740288074487
9202,-8.380263,-3.541976,4.057031,-0.022755,0.111483,0.046884,31.02,65.9667875060158
9212,-8.39462,-3.538387,4.037888,-0.020617,0.118508,0.048411,31.01,66.0950220181766
9222,-8.417352,-3.531806,4.034897,-0.018937,0.124464,0.05116,31.01,66.1535321655589
9232,-8.435897,-3.53719,4.019344,-0.01741,0.127213,0.051618,31,66.279581379241
9242,-8.451449,-3.528815,3.985246,-0.015577,0.128893,0.051618,31,66.4843046036149
9252,-8.478369,-3.524628,3.975077,-0.013744,0.12706,0.049786,30.96,66.5908004520892
9262,-8.492725,-3.52702,3.972086,-0.010385,0.123089,0.047953,31.02,66.638711741842
9272,-8.505887,-3.53719,3.952345,-0.008705,0.118202,0.045662,31.02,66.7786902794211
9282,-8.522038,-3.531208,3.948756,-0.008094,0.111636,0.042608,31.05,66.8259431357146
9292,-8.535198,-3.538985,3.938586,-0.006414,0.103084,0.040317,31.05,66.9132504877935
9302,-8.535198,-3.545565,3.917649,-0.005498,0.094379,0.038026,31.03,67.0288268090912
9312,-8.547162,-3.556931,3.915256,-0.004734,0.083078,0.034972,31.03,67.0756682420425
9322,-8.557931,-3.552743,3.904488,-0.004581,0.071471,0.030696,30.97,67.1506839352154
9332,-8.557931,-3.554538,3.895515,-0.00336,0.058796,0.027642,30.97,67.1993384017973
9343,-8.566903,-3.56052,3.894319,-0.003512,0.045357,0.02474,31.01,67.2289657217661
9352,-8.566306,-3.575475,3.888935,-0.002902,0.030696,0.022297,31.01,67.26868334779
9362,-8.568698,-3.583252,3.883551,-0.002749,0.016799,0.020006,31.07,67.3083932663221
9372,-8.562119,-3.582654,3.89073,-0.002596,0.002138,0.018021,31.07,67.2568488646553
9382,-8.556733,-3.589234,3.892524,-0.002291,-0.012828,0.015424,31.05,67.2420895667281
9392,-8.556733,-3.597011,3.888337,-0.003665,-0.027336,0.012828,31.05,67.2707034187796
9402,-8.557332,-3.601796,3.890131,-0.003818,-0.041997,0.010996,31.07,67.2665797570832
9412,-8.542974,-3.609573,3.909274,-0.004734,-0.055589,0.009316,31.07,67.1436104089098
9422,-8.535198,-3.612564,3.923033,-0.006109,-0.068111,0.007025,31.05,67.0581702736926
9432,-8.514261,-3.622135,3.929015,-0.009468,-0.089797,0.004581,31.03,66.9922568255703
9442,-8.522038,-3.617948,3.9338,-0.011454,-0.099266,0.003207,31.03,66.9794588746754
9452,-8.510075,-3.631108,3.946362,-0.013897,-0.107818,0.000458,31.03,66.9005636431604
9462,-8.510075,-3.629314,3.954738,-0.016035,-0.114232,-0.001985,31.03,66.8551174202466
9472,-8.503493,-3.628716,3.968496,-0.018784,-0.119577,-0.005345,31.02,66.7689980067048
9482,-8.495118,-3.63051,3.985246,-0.021228,-0.123853,-0.00733,31.02,66.665628123505
9492,-8.479566,-3.63051,3.996612,-0.023976,-0.126144,-0.011301,31.02,66.573865075001
9502,-8.471789,-3.632305,4.002594,-0.027336,-0.126907,-0.015119,31.02,66.5279682637152
9512,-8.477173,-3.638885,4.022933,-0.031001,-0.12706,-0.019242,31.02,66.4388607961896
9522,-8.475378,-3.63051,4.027121,-0.034819,-0.125838,-0.023213,31.02,66.4057312989457
9532,-8.453843,-3.620939,4.046861,-0.037263,-0.122784,-0.027489,31,66.2487931246438
9542,-8.451449,-3.608377,4.061816,-0.04047,-0.118355,-0.031307,31,66.154332296306
9552,-8.439486,-3.62393,4.066004,-0.043982,-0.112857,-0.036957,31,66.1212390106989
9562,-8.437692,-3.614957,4.067201,-0.047189,-0.105832,-0.041844,31,66.1030133090616
9572,-8.419745,-3.608975,4.073781,-0.049938,-0.098197,-0.045204,31.03,66.0249875814464
9582,-8.414959,-3.606582,4.09412,-0.052382,-0.089797,-0.048717,31.03,65.9064154298237
9592,-8.392825,-3.603591,4.088138,-0.054367,-0.079871,-0.051465,31.03,65.8873809753891
9602,-8.391031,-3.597011,4.103093,-0.057727,-0.059101,-0.055741,31.03,65.7993207966977
9612,-8.372486,-3.595814,4.099504,-0.058643,-0.046884,-0.055894,31.03,65.7769215223521
9622,-8.36112,-3.591627,4.094718,-0.059254,-0.03543,-0.055894,31.03,65.7734868462676
9632,-8.352745,-3.582654,4.088736,-0.059101,-0.023213,-0.054214,31.03,65.7783438566454
9642,-8.352745,-3.573681,4.08754,-0.05849,-0.010843,-0.05284,31.02,65.7762797499018
9653,-8.332406,-3.58385,4.092325,-0.056352,0.002749,-0.048258,31.02,65.7164668912268
9662,-8.332406,-3.569493,4.082156,-0.053909,0.014508,-0.043066,31.01,65.7564658382187
9672,-8.330013,-3.556931,4.071986,-0.052382,0.027642,-0.036194,31.01,65.7930515796417
9682,-8.319845,-3.555136,4.071986,-0.049327,0.039859,-0.029932,31,65.7692409043619
9692,-8.315658,-3.554538,4.065406,-0.045815,0.05116,-0.022907,31,65.7942256676214
9702,-8.325229,-3.546762,4.061218,-0.042455,0.062461,-0.013286,31.01,65.8299113915852
9712,-8.315658,-3.559922,4.045067,-0.038485,0.073609,-0.004887,31.01,65.9065115728068
9723,-8.331809,-3.553342,4.044468,-0.033598,0.083841,0.004734,31.08,65.9385929053843
9732,-8.337193,-3.558127,4.031308,-0.029627,0.092393,0.015577,31.08,66.0240750184706
9742,-8.333604,-3.551547,4.019942,-0.025656,0.10064,0.024587,31.04,66.070295068073
9752,-8.357532,-3.537788,4.015755,-0.021686,0.106749,0.03375,31.04,66.1313682242251
9762,-8.383254,-3.539583,3.993023,-0.016646,0.111636,0.042761,31.04,66.3081288330039
9772,-8.391629,-3.531806,3.993023,-0.012675,0.11973,0.060628,31.04,66.3190045341858
9782,-8.410173,-3.538985,3.979264,-0.005498,0.121257,0.06689,31.02,66.4374815599646
9792,-8.433504,-3.537788,3.972086,-0.002138,0.120799,0.071624,31.03,66.5236345267348
9802,-8.451449,-3.546762,3.96072,0.000305,0.118202,0.075136,31.03,66.6292226730025
9812,-8.470592,-3.548556,3.964907,0.001985,0.115148,0.078038,31.03,66.6488955336223
9822,-8.496913,-3.541976,3.948756,0.003207,0.110108,0.07926,31.03,66.7830207735246
9832,-8.513663,-3.549154,3.935595,0.004581,0.103847,0.078343,31.03,66.8931674120277
9842,-8.526823,-3.549752,3.922434,0.005651,0.096211,0.076205,31.03,66.9900224661783
9852,-8.550752,-3.554538,3.923033,0.005192,0.087048,0.072846,31,67.0401770306664
9862,-8.568698,-3.569493,3.916452,0.004276,0.075289,0.067653,31,67.1241409737177
9872,-8.57827,-3.569493,3.912863,0.004276,0.06353,0.061545,30.99,67.1624564196085
9882,-8.588439,-3.576672,3.907479,0.003512,0.051313,0.055589,30.99,67.217400011782
9892,-8.596813,-3.572484,3.912863,0.002291,0.036805,0.048564,31.01,67.2026887449235
9902,-8.599805,-3.591627,3.912265,0.000764,0.022755,0.039248,31.01,67.2280495791861
9912,-8.614162,-3.586841,3.899105,-0.001069,0.007941,0.030085,31.04,67.3218159238467
9922,-8.603992,-3.585645,3.900301,-0.002902,-0.00733,0.020922,31.04,67.2940283785802
9932,-8.610572,-3.592823,3.905685,-0.004734,-0.02306,0.011301,31.01,67.2852135849649
9942,-8.606983,-3.611966,3.904488,-0.006872,-0.038179,-0.007789,31.01,67.3003851956447
9952,-8.596813,-3.611966,3.903292,-0.012217,-0.068264,-0.015577,31.02,67.286129342627
9962,-8.584849,-3.614359,3.910471,-0.015882,-0.082161,-0.024129,31.04,67.2264507876949
9972,-8.563314,-3.631108,3.92064,-0.017562,-0.094684,-0.030696,31.04,67.1439654855134
9982,-8.553144,-3.628716,3.927818,-0.020311,-0.107207,-0.037721,31.02,67.0836785362289
9992,-8.541181,-3.635894,3.935595,-0.023518,-0.117897,-0.043524,31.02,67.0248229333196
10002,-8.530412,-3.64068,3.945765,-0.025045,-0.127518,-0.048411,31.05,66.9537799102114
10012,-8.501699,-3.631108,3.959523,-0.027642,-0.135765,-0.052534,31.05,66.8143766009805
10022,-8.486743,-3.637091,3.970291,-0.029627,-0.141415,-0.054978,31.07,66.7323697325021
10032,-8.468199,-3.626921,3.976273,-0.032376,-0.145539,-0.056352,31.07,66.6535044753019
10042,-8.456833,-3.626921,3.994817,-0.034361,-0.148746,-0.057269,31.02,66.5326145299541
10052,-8.451449,-3.640081,4.008576,-0.036194,-0.149509,-0.056505,31.02,66.461138099372
10062,-8.417951,-3.646662,4.018147,-0.03879,-0.148746,-0.0562,31,66.3466424942025
10072,-8.395817,-3.641876,4.026522,-0.040317,-0.14615,-0.053603,31,66.2516141472954
10082,-8.385648,-3.634698,4.04746,-0.040775,-0.14111,-0.050549,31.04,66.1136293273422
10092,-8.377273,-3.619742,4.054638,-0.04215,-0.133932,-0.047647,31.04,66.0443149064565
10102,-8.35155,-3.615555,4.067799,-0.044593,-0.125991,-0.04383,31.06,65.9162065369818
10112,-8.34138,-3.620341,4.091727,-0.045051,-0.116064,-0.038637,31.06,65.7732674560797
10122,-8.335996,-3.613162,4.103093,-0.045968,-0.090561,-0.027947,31.05,65.6953086339432
10132,-8.321639,-3.601796,4.11386,-0.046273,-0.0759,-0.022449,31.03,65.5969439288115
10142,-8.322835,-3.599404,4.115655,-0.046426,-0.061087,-0.017562,31.03,65.5878902311141
10152,-8.313264,-3.592225,4.118048,-0.045968,-0.044899,-0.011301,31.04,65.5476486547677
10162,-8.307282,-3.592823,4.129414,-0.045357,-0.027184,-0.005651,31.04,65.475535653168
10172,-8.312666,-3.58385,4.127619,-0.045051,-0.009316,-0.000153,31.04,65.4882528433095
10182,-8.312666,-3.571288,4.125825,-0.044593,0.008552,0.004734,31.04,65.4857868509304
10192,-8.321639,-3.56411,4.125226,-0.043066,0.026114,0.010232,31.03,65.5018695638959
10202,-8.323434,-3.557529,4.12403,-0.041844,0.043677,0.014203,31.03,65.505897044698
10212,-8.335996,-3.562315,4.110271,-0.040164,0.061697,0.01909,31,65.610027122901
10222,-8.3348,-3.538985,4.110271,-0.037874,0.077122,0.022907,31,65.5856555103927
10232,-8.343175,-3.544966,4.094718,-0.036194,0.091783,0.026114,31.01,65.6911516505633
10242,-8.364112,-3.541378,4.088138,-0.034819,0.106138,0.029169,31.01,65.7679702310054
10252,-8.37129,-3.53061,4.082754,-0.031918,0.118661,0.032223,31.05,65.8019261970473
10262,-8.380861,-3.541378,4.057031,-0.028711,0.128129,0.033598,31.05,65.9675324936986
10272,-8.397612,-3.530011,4.042076,-0.025962,0.136528,0.034667,31.06,66.0718638175184
10282,-8.408379,-3.525824,4.013362,-0.02306,0.143095,0.036194,31.06,66.2421963038069
10292,-8.454441,-3.536592,3.986442,-0.020311,0.148746,0.037263,31.04,66.4911920950389
10302,-8.462217,-3.524628,3.976273,-0.015119,0.148288,0.036957,31.05,66.5505345390803
10312,-8.473583,-3.530011,3.964309,-0.011606,0.14615,0.037568,31.05,66.6420735904948
10322,-8.476574,-3.529413,3.942773,-0.009774,0.14111,0.035736,30.99,66.7611899867137
10332,-8.505887,-3.530011,3.92722,-0.007789,0.134696,0.035888,30.99,66.9046147826018
10342,-8.517252,-3.534797,3.91406,-0.006414,0.125533,0.035277,31.09,67.0015144649278
10352,-8.537591,-3.543172,3.900301,-0.004276,0.113468,0.033139,31.09,67.1229229696681
10362,-8.536993,-3.543172,3.893721,-0.002749,0.100182,0.03207,31.02,67.1563285602236
10372,-8.548957,-3.543771,3.88714,-0.001222,0.085827,0.030238,31.02,67.2159451952419
10382,-8.560921,-3.55394,3.879364,-0.001374,0.070555,0.029016,31.04,67.2898303557296
10392,-8.56152,-3.562913,3.865605,-0.000153,0.053603,0.02642,31.04,67.3710138289628
10402,-8.569895,-3.565306,3.872185,0,0.036346,0.024587,31.03,67.3553778669691
10412,-8.563912,-3.570091,3.860221,-0.000305,0.018479,0.021686,31.03,67.4102459981148
10422,-8.574679,-3.575475,3.88056,-0.001374,0.001069,0.01909,31,67.3296344036592
10432,-8.563314,-3.58744,3.873382,-0.002443,-0.016341,0.015119,31,67.3544675784298
10442,-8.572886,-3.59402,3.876971,-0.00336,-0.032834,0.012523,31.01,67.3605317098211
10452,-8.555537,-3.591627,3.900301,-0.005498,-0.048564,0.009316,31.01,67.2008765536687
10462,-8.542974,-3.608377,3.913461,-0.006414,-0.063072,0.003665,31.02,67.1206195204548
10472,-8.542377,-3.618546,3.923631,-0.011301,-0.087812,-0.000611,31.01,67.074867064426
10482,-8.540583,-3.619144,3.935595,-0.012675,-0.097586,-0.003665,31.01,67.0090677274606
10492,-8.517252,-3.61735,3.954738,-0.014966,-0.106749,-0.007636,31.02,66.8594112847137
10502,-8.519646,-3.626921,3.958327,-0.018021,-0.113163,-0.010385,31.02,66.8539342061592
10512,-8.517252,-3.624528,3.97747,-0.019548,-0.117744,-0.013744,31.03,66.7468108649798
10522,-8.510075,-3.641876,3.98405,-0.022144,-0.120646,-0.016035,31.03,66.7129063779026
10532,-8.492725,-3.640081,3.999005,-0.024893,-0.122631,-0.019853,31.02,66.597262659679
10542,-8.479566,-3.637689,4.012166,-0.027489,-0.122173,-0.021686,31.02,66.4989948984296
10552,-8.47119,-3.639483,4.022933,-0.02978,-0.120035,-0.024435,31.05,66.4268815743081
10562,-8.465807,-3.638885,4.0337,-0.03207,-0.117897,-0.026573,31.05,66.3588666878527
10572,-8.447861,-3.638885,4.035496,-0.033903,-0.114079,-0.028253,31,66.311774536698
10582,-8.445468,-3.639483,4.044468,-0.036652,-0.109192,-0.031154,31,66.2604237900664
10592,-8.430512,-3.640081,4.049852,-0.039248,-0.104,-0.032834,31.04,66.2012699523632
10602,-8.423933,-3.640081,4.063013,-0.041081,-0.097128,-0.033598,31.04,66.1186084735949
10612,-8.419745,-3.637689,4.058825,-0.043066,-0.08995,-0.034819,31,66.1293989798145
10622,-8.405388,-3.646064,4.060022,-0.044746,-0.082772,-0.035583,31,66.1003554471946
10632,-8.399406,-3.632903,4.073183,-0.044899,-0.075289,-0.036499,31.06,66.0066882542469
10642,-8.379665,-3.611368,4.074379,-0.047647,-0.05849,-0.036805,31.03,65.9382674301844
10652,-8.379665,-3.60718,4.074379,-0.048411,-0.050549,-0.036041,31.03,65.9343939777958
10662,-8.360522,-3.612564,4.054638,-0.048717,-0.041844,-0.034972,31.03,66.0017886822191
10673,-8.366504,-3.614957,4.066004,-0.04948,-0.032681,-0.032987,31.03,65.9572140957097
10682,-8.380861,-3.600002,4.068995,-0.048564,-0.024435,-0.031001,31.02,65.9585322253344
10692,-8.35813,-3.597011,4.067201,-0.047953,-0.016035,-0.028405,31.02,65.9162772675379
10702,-8.368299,-3.58744,4.058227,-0.046731,-0.006567,-0.02474,31.04,65.9764235164479
10712,-8.347363,-3.585645,4.067201,-0.045357,0.001985,-0.020464,31.04,65.8824972828435
10722,-8.359925,-3.572484,4.052843,-0.044593,0.01069,-0.016799,31.04,65.9728985898063
10732,-8.34138,-3.580859,4.059424,-0.042302,0.019548,-0.012065,31.04,65.9060068342183
10742,-8.359326,-3.557529,4.048058,-0.040164,0.027642,-0.007025,31.05,65.9830225682498
10752,-8.362915,-3.565904,4.042674,-0.038179,0.035277,-0.002291,31.05,66.026773918951
10762,-8.359925,-3.556333,4.031308,-0.035125,0.043219,0.00336,31.04,66.0714153605446
10772,-8.35454,-3.549752,4.034299,-0.03207,0.051313,0.010232,31.04,66.0380288099615
10782,-8.356933,-3.544966,4.025924,-0.030085,0.058796,0.015882,30.99,66.0829646530395
10792,-8.371889,-3.541976,4.029513,-0.026725,0.064599,0.021991,30.99,66.0935058111852
10802,-8.38445,-3.552743,4.014558,-0.023824,0.070097,0.027794,31.04,66.2090019616234
10812,-8.389236,-3.531208,4.017549,-0.017715,0.080787,0.038485,31.04,66.1840201644363
10822,-8.399406,-3.533002,4.004389,-0.014813,0.083841,0.042302,31.05,66.2767316446187
10832,-8.418548,-3.527619,4.000201,-0.011912,0.08659,0.046273,31.02,66.3347792380674
10842,-8.434101,-3.535396,4.011567,-0.008858,0.088423,0.050091,31.02,66.315008231452
10852,-8.443673,-3.534199,3.991228,-0.006261,0.089492,0.052534,31.04,66.4411615825954
10862,-8.46102,-3.541976,3.985246,-0.003512,0.090408,0.054214,31.04,66.516094531234
10872,-8.475977,-3.534797,3.995416,-0.002291,0.089339,0.054672,31.01,66.4878839271959
10882,-8.483753,-3.533002,3.979862,-0.000458,0.086743,0.054367,31.01,66.5842887771365
10892,-8.504689,-3.531806,3.97388,0.001222,0.083536,0.052382,31.06,66.6584898971719
10902,-8.512466,-3.538985,3.964309,0.003512,0.080176,0.050702,31.06,66.7311417838046
10912,-8.514859,-3.552145,3.954738,0.003512,0.07422,0.047342,31.03,66.7977182164494
10922,-8.530412,-3.562913,3.95055,0.004581,0.067653,0.043982,31.03,66.8611966920604
10932,-8.534002,-3.562913,3.958327,0.004734,0.061239,0.040775,31,66.8278789233156
10942,-8.538787,-3.565306,3.941577,0.004276,0.053298,0.035736,31,66.9275653632117
10952,-8.541779,-3.571288,3.934997,0.003818,0.044593,0.032376,31,66.9733535275451
10962,-8.548957,-3.578466,3.9338,0.002291,0.035125,0.025962,31,67.0005299471032
10972,-8.548957,-3.584448,3.920042,0.00168,0.025504,0.021533,31.02,67.0777656401688
10982,-8.556733,-3.597011,3.92722,0.001069,0.003818,0.010843,31.02,67.0668245499335
10992,-8.553743,-3.597609,3.926024,-0.00336,-0.007636,0.006261,31.02,67.0674943703577
11002,-8.548359,-3.604787,3.927818,-0.005498,-0.018173,0.002138,31,67.0532760603972
11012,-8.536395,-3.608975,3.922434,-0.007789,-0.029627,-0.002291,31,67.060654292765
11022,-8.551949,-3.616751,3.923033,-0.009927,-0.040928,-0.006872,31.02,67.0959657967386
11032,-8.544172,-3.62393,3.926024,-0.012675,-0.051771,-0.010537,31.02,67.0706495853531
11042,-8.541181,-3.614957,3.930809,-0.01573,-0.062461,-0.014203,31.01,67.031723544134
11052,-8.529815,-3.625126,3.947559,-0.01741,-0.071624,-0.017715,31.01,66.9295979540263
11062,-8.519047,-3.62393,3.940381,-0.020464,-0.081245,-0.020769,31,66.9440474322614
11072,-8.520842,-3.628716,3.954139,-0.02306,-0.089034,-0.024129,31,66.8798782408467
11082,-8.498708,-3.641278,3.954139,-0.025809,-0.096975,-0.026725,31.02,66.8453793106743
11092,-8.491529,-3.629912,3.976273,-0.029169,-0.103084,-0.028863,31.02,66.7045991678917
11102,-8.496315,-3.632305,3.983452,-0.030849,-0.10797,-0.030696,30.99,66.6790815670212
11112,-8.475977,-3.629314,3.988237,-0.033598,-0.112094,-0.03375,30.99,66.609145348077
11122,-8.459825,-3.632903,3.990032,-0.036041,-0.113621,-0.034667,31.03,66.5692933380781
11132,-8.455637,-3.636492,4.006782,-0.038026,-0.114995,-0.035736,31.03,66.4760597143427
11142,-8.454441,-3.626323,4.027121,-0.039859,-0.114232,-0.037415,30.99,66.3580180414533
11152,-8.431709,-3.629314,4.042076,-0.041844,-0.112094,-0.039706,30.99,66.2346205702195
11162,-8.41137,-3.626323,4.048058,-0.045662,-0.103694,-0.040012,31.02,66.1575007095156
11172,-8.39821,-3.613162,4.049254,-0.047342,-0.097433,-0.040623,31.02,66.1111784448896
11182,-8.391031,-3.605984,4.065406,-0.049022,-0.089644,-0.041386,31.02,66.0046487795332
11192,-8.39462,-3.608377,4.067799,-0.04948,-0.080634,-0.040928,31.01,66.0020078097619
11202,-8.379066,-3.599404,4.088736,-0.049327,-0.07086,-0.040317,31.01,65.8507723809469
11212,-8.371889,-3.601198,4.091727,-0.049938,-0.059865,-0.038943,30.99,65.8213103743804
11222,-8.364112,-3.599404,4.091129,-0.04948,-0.048258,-0.038332,30.99,65.8059806709461
11232,-8.362316,-3.579065,4.095914,-0.049938,-0.035736,-0.03543,31.04,65.758145818302
11242,-8.361719,-3.576073,4.085745,-0.049175,-0.023366,-0.033445,31.04,65.8073601935705
11252,-8.356933,-3.576073,4.098307,-0.047953,-0.010079,-0.029932,31.04,65.7311544194406
11262,-8.347363,-3.579663,4.09412,-0.04612,0.003512,-0.026573,31.04,65.7356537334241
11272,-8.338987,-3.571288,4.083352,-0.04383,0.01741,-0.021838,31.04,65.7661627937036
11282,-8.346764,-3.550351,4.080361,-0.041997,0.030085,-0.017562,31.04,65.779353881023
11292,-8.342576,-3.548556,4.074379,-0.039554,0.042302,-0.012217,31.02,65.8000261873015
11302,-8.340781,-3.557529,4.074379,-0.03711,0.054672,-0.00733,31.02,65.8044320411911
11312,-8.34138,-3.559324,4.062415,-0.033292,0.065668,-0.001374,31.04,65.8703195623833
11322,-8.373683,-3.550351,4.042674,-0.029474,0.076053,0.004734,31.04,66.0357172805057
11332,-8.371889,-3.540779,4.034299,-0.022297,0.092699,0.016493,31.02,66.0672089691354
11342,-8.37129,-3.531806,4.022933,-0.018173,0.09896,0.023518,31.03,66.1176540408319
11352,-8.380263,-3.535994,4.001398,-0.014966,0.103389,0.029474,31.03,66.2542913113345
11362,-8.408977,-3.536592,3.993023,-0.01069,0.107054,0.035888,31.02,66.360246670006
11372,-8.413164,-3.542574,3.975077,-0.006872,0.108734,0.041233,31.02,66.4691118222894
11382,-8.426325,-3.544369,3.972086,-0.003665,0.10965,0.046273,31.08,66.5143139300557
11392,-8.435897,-3.538387,3.964309,-0.000153,0.108276,0.050855,31.08,66.5702106375817
11402,-8.451449,-3.551547,3.948756,0.001833,0.105374,0.05452,31,66.6964817520846
11412,-8.470592,-3.532404,3.942773,0.004581,0.100029,0.05681,31,66.7512965921868
11422,-8.482555,-3.550351,3.930212,0.007025,0.093768,0.059254,30.98,66.8580302861932
11432,-8.483753,-3.551547,3.921836,0.008858,0.086285,0.060018,30.98,66.9056954500608
11442,-8.504092,-3.55394,3.926024,0.009621,0.076969,0.060323,31.02,66.9278277318121
11452,-8.529217,-3.559324,3.919443,0.011148,0.06689,0.060628,31.02,67.0188807685433
11462,-8.53819,-3.563511,3.911667,0.010996,0.055131,0.058796,31.02,67.0817469235944
11472,-8.536395,-3.565306,3.908676,0.011301,0.043219,0.056352,31.02,67.0953203475515
11482,-8.556733,-3.576073,3.915256,0.010385,0.031154,0.051618,31.03,67.1115870978014
11492,-8.563314,-3.580261,3.914658,0.009163,0.018173,0.047342,31.03,67.1317260329028
11502,-8.557931,-3.580859,3.917649,0.008399,-0.007789,0.036194,30.99,67.1055756558322
11512,-8.562716,-3.586841,3.927818,0.004429,-0.020617,0.029169,31.05,67.067197411268
11522,-8.575877,-3.585645,3.925426,0.002138,-0.032681,0.022755,31.05,67.105547309007
11532,-8.563314,-3.600002,3.93739,-0.000153,-0.043524,0.015577,31.02,67.0296246940651
11542,-8.56451,-3.600002,3.947559,-0.002749,-0.054062,0.00733,31.02,66.9789237480464
11552,-8.553743,-3.613162,3.96072,-0.00672,-0.062156,0.001069,31.02,66.8994945127129
11562,-8.549556,-3.617948,3.964907,-0.009774,-0.070708,-0.007178,31.02,66.8731979725616
11572,-8.542377,-3.619742,3.9673,-0.013134,-0.077733,-0.014508,30.99,66.8475183603062
11582,-8.534599,-3.618546,3.982255,-0.016646,-0.083383,-0.021991,30.99,66.7523977686767
11592,-8.522635,-3.615555,3.982853,-0.019548,-0.087812,-0.028863,31.03,66.7219379698574
11602,-8.514859,-3.626323,3.999603,-0.022907,-0.090255,-0.03375,31.03,66.6278861266144
11612,-8.506484,-3.628117,4.009174,-0.027031,-0.092241,-0.040012,30.99,66.5621576953108
11622,-8.487941,-3.618546,4.007978,-0.030085,-0.092699,-0.043371,30.99,66.5212622793428
11632,-8.469396,-3.620939,4.022933,-0.032376,-0.091935,-0.046578,31.02,66.4064692836885
11642,-8.453843,-3.632903,4.023531,-0.035277,-0.091324,-0.050396,31.02,66.3814627947817
11652,-8.435298,-3.616751,4.026522,-0.038485,-0.088881,-0.052076,31.02,66.3121722295527
11662,-8.435897,-3.62393,4.028915,-0.040164,-0.08491,-0.053298,31.02,66.3074134763068
11672,-8.399406,-3.624528,4.039085,-0.043219,-0.080787,-0.05284,31.04,66.1774349271634
11682,-8.402995,-3.619742,4.048058,-0.045968,-0.070097,-0.051618,31.03,66.1336673814747
11692,-8.380861,-3.612564,4.046263,-0.047953,-0.064141,-0.049633,31.03,66.0892898364779
11702,-8.388638,-3.612564,4.04746,-0.047495,-0.056963,-0.045509,30.99,66.0996166772633
11712,-8.380861,-3.612564,4.049254,-0.047953,-0.050396,-0.042608,30.99,66.0735987494553
11722,-8.378469,-3.597011,4.045665,-0.047953,-0.042761,-0.038179,31.02,66.0730061177139
11732,-8.363514,-3.611368,4.056432,-0.047189,-0.035125,-0.034056,31.02,65.9976823519016
11742,-8.372486,-3.588037,4.045067,-0.048258,-0.0281,-0.029474,31.02,66.0550806084419
11752,-8.359326,-3.582654,4.053442,-0.046578,-0.018937,-0.024435,31.02,65.977835092483
11762,-8.355139,-3.585645,4.049852,-0.044899,-0.010843,-0.018784,31,65.9904561277223
11772,-8.359925,-3.585645,4.056432,-0.043982,-0.002749,-0.014355,31,65.9661738550481
11782,-8.35454,-3.577868,4.048058,-0.042608,0.00504,-0.009316,31.03,65.9914232398017
11792,-8.363514,-3.57069,4.053442,-0.04047,0.013744,-0.003512,31.03,65.9758325963196
11802,-8.370093,-3.565904,4.037888,-0.039095,0.021533,0.001833,31.07,66.0673899499116
11812,-8.380861,-3.568895,4.036094,-0.036805,0.028558,0.005956,31.07,66.1026650821841
11822,-8.382057,-3.552743,4.041477,-0.033903,0.03711,0.011148,31.04,66.0622033508348
11832,-8.383254,-3.558127,4.028915,-0.031918,0.042761,0.015119,31.04,66.1357419465958
11842,-8.392226,-3.548556,4.027719,-0.029322,0.048717,0.018479,31.03,66.1525680198213
11852,-8.398808,-3.541976,4.012764,-0.023976,0.059254,0.023976,30.99,66.239408337302
11862,-8.416754,-3.539583,4.014558,-0.02138,0.063072,0.026725,30.99,66.2661065807709
11872,-8.42453,-3.534797,4.009174,-0.018937,0.066432,0.028405,31.04,66.3066973008968
11882,-8.434101,-3.534797,4.000201,-0.015577,0.068417,0.029627,31.04,66.3742217984289
11892,-8.437692,-3.540181,3.98405,-0.013897,0.069028,0.030543,31.05,66.4715836909854
11902,-8.446664,-3.544966,3.988237,-0.011454,0.069791,0.031001,31.05,66.472747222869
11912,-8.464012,-3.531208,3.979264,-0.008858,0.068417,0.030391,31.03,66.544361020915
11922,-8.469396,-3.535994,3.973282,-0.006261,0.067195,0.03146,31.03,66.591333696719
11932,-8.478369,-3.542574,3.969693,-0.004429,0.064294,0.030543,31.02,66.6347829779768
11942,-8.485548,-3.552743,3.960122,-0.002902,0.061087,0.028863,31.02,66.70897497008
11952,-8.489137,-3.546163,3.951746,-0.000305,0.056352,0.027489,31,66.7547461015231
11962,-8.495717,-3.556931,3.952943,0.001222,0.050549,0.026267,31,66.7715281345399
11972,-8.505887,-3.545565,3.948756,0.003054,0.043982,0.024893,31.04,66.8047929338316
11982,-8.514859,-3.558127,3.954738,0.003054,0.037263,0.022297,31.04,66.8029001220942
11992,-8.502895,-3.565904,3.945167,0.004581,0.030238,0.020617,31.04,66.8350824171908
12002,-8.513663,-3.573681,3.941577,0.005803,0.022449,0.018173,31.04,66.8829661441104
12012,-8.511868,-3.583252,3.943372,0.006261,0.01405,0.016341,31.01,66.8781484861466
12022,-8.509476,-3.586243,3.949354,0.006261,-0.002902,0.012675,31.01,66.8444261049601
12032,-8.512466,-3.600002,3.93739,0.004429,-0.010843,0.010385,31.01,66.9253421178489
12042,-8.520243,-3.600002,3.948756,0.003512,-0.018326,0.007941,31.02,66.88176494749
12052,-8.508279,-3.598207,3.951746,0.003512,-0.025198,0.006414,31.02,66.8398461344074
12062,-8.503493,-3.611966,3.954738,0.002138,-0.032223,0.00504,31.01,66.8263212370764
12072,-8.496315,-3.614957,3.957729,-0.000153,-0.03879,0.003512,31.01,66.7984387424769
12082,-8.500502,-3.614359,3.965506,-0.002138,-0.043524,0.002443,31.05,66.7658227189661
12092,-8.480762,-3.623332,3.975675,-0.003971,-0.048106,0.000611,31.05,66.6795601713682
12102,-8.489736,-3.632305,3.976273,-0.007025,-0.052229,-0.001069,31.02,66.7030043818614
12112,-8.475977,-3.623332,3.986442,-0.008399,-0.055589,-0.001374,31.02,66.6132149574162
12122,-8.475378,-3.631706,3.982255,-0.010996,-0.057269,-0.002291,31.05,66.6413514967078
12132,-8.475378,-3.629314,4.0008,-0.013897,-0.058796,-0.00336,31.05,66.5421651629136
12142,-8.468798,-3.632305,4.006782,-0.016799,-0.059101,-0.004734,31.04,66.4998210004921
12152,-8.465208,-3.632903,3.994219,-0.019548,-0.060018,-0.006414,31.04,66.5585946384632
12162,-8.463414,-3.622734,4.021138,-0.022144,-0.059407,-0.007636,31.02,66.4049078302813
12172,-8.455637,-3.623332,4.024727,-0.02474,-0.057879,-0.007636,31.02,66.3703504147013
12182,-8.46102,-3.632903,4.019942,-0.027336,-0.055741,-0.010385,31.05,66.415281550551
12192,-8.449057,-3.614359,4.032505,-0.029474,-0.053756,-0.015272,31.05,66.3077422423747
12202,-8.439486,-3.618546,4.034299,-0.034667,-0.047953,-0.017104,31.04,66.2819455948722
12212,-8.447861,-3.618546,4.039085,-0.03711,-0.044593,-0.020006,31.04,66.2746092534938
12222,-8.447861,-3.623332,4.030112,-0.03879,-0.041233,-0.022602,31.04,66.3258339897652
12232,-8.453843,-3.608377,4.040879,-0.04047,-0.037568,-0.025809,31.04,66.2686865487986
12242,-8.453244,-3.608377,4.044468,-0.042913,-0.033292,-0.028863,31.04,66.2486749774067
12252,-8.430512,-3.60718,4.040879,-0.043524,-0.029322,-0.030543,30.99,66.2182362598518
12262,-8.42453,-3.595814,4.04746,-0.044899,-0.024587,-0.033903,30.99,66.160784200895
12272,-8.433504,-3.591627,4.044468,-0.045357,-0.020769,-0.03543,30.99,66.1917193120977
12282,-8.423933,-3.58744,4.037888,-0.045662,-0.016188,-0.036805,30.99,66.2020433975354
12292,-8.414959,-3.576073,4.03729,-0.045051,-0.01069,-0.037568,31.01,66.1757857748526
12302,-8.409575,-3.578466,4.044468,-0.044593,-0.004734,-0.037415,31.01,66.1288366154603
12312,-8.404789,-3.571288,4.032505,-0.043982,0.000305,-0.037415,30.98,66.1748706974911
12322,-8.404789,-3.568895,4.040281,-0.042913,0.00504,-0.036041,30.98,66.1318846495981
12332,-8.392825,-3.562913,4.028317,-0.041539,0.01069,-0.034667,31.03,66.1637217416071
12342,-8.391629,-3.551547,4.019344,-0.038943,0.014966,-0.032681,31.03,66.1980673601518
12352,-8.38804,-3.548556,4.019942,-0.036499,0.020006,-0.028863,31.04,66.1845342259637
12362,-8.383853,-3.546163,4.014558,-0.034208,0.024435,-0.023366,31.04,66.2017652043271
12372,-8.377273,-3.536592,4.016353,-0.027336,0.033903,-0.01405,31.05,66.1695376715412
12382,-8.377871,-3.540181,4.000201,-0.024129,0.038485,-0.007636,31.04,66.2592745753776
12392,-8.382057,-3.538387,3.997808,-0.019853,0.041997,-0.00168,31.04,66.2792342059679
12402,-8.387442,-3.54736,3.999603,-0.016188,0.044593,0.004581,31.02,66.2893556520085
12412,-8.389236,-3.530011,3.990032,-0.012675,0.047495,0.011301,31.02,66.3280770888789
12422,-8.396414,-3.538985,3.98405,-0.008705,0.050549,0.018173,31.01,66.3830016901825
12432,-8.409575,-3.546163,3.993023,-0.005956,0.052382,0.023518,31.01,66.3700846124216
12442,-8.41436,-3.532404,3.99063,-0.002749,0.053451,0.029016,30.97,66.3805623115479
12452,-8.433504,-3.531806,3.984648,0.000916,0.053756,0.034056,30.97,66.4521514515153
12462,-8.440681,-3.544369,3.980461,0.004887,0.053603,0.038179,31.03,66.5004991847904
12472,-8.444869,-3.544966,3.967898,0.00733,0.052993,0.041844,31.03,66.5760010652874
12482,-8.459825,-3.53719,3.963113,0.008858,0.051007,0.04444,31.03,66.6257863497246
12492,-8.465208,-3.556931,3.9673,0.010843,0.048717,0.045662,31.03,66.6323953132341
12502,-8.475977,-3.558127,3.970291,0.012675,0.046426,0.047189,31.01,66.6402692723605
12512,-8.489137,-3.559324,3.970291,0.013439,0.042302,0.046273,31.01,66.6688192702987
12522,-8.496315,-3.5671,3.96072,0.014661,0.03879,0.045357,31.01,66.7408041986435
12532,-8.517851,-3.576672,3.956532,0.015119,0.033445,0.044746,31.01,66.8157865859545
12542,-8.519047,-3.580261,3.963113,0.014355,0.022144,0.038026,31.02,66.7869061175224
12552,-8.53161,-3.576672,3.955934,0.013134,0.016035,0.034056,31.02,66.8473613977001
12562,-8.536395,-3.589832,3.957131,0.011454,0.009163,0.029474,31.02,66.8623657858303
12572,-8.540583,-3.583252,3.955934,0.010843,0.001985,0.025351,31.02,66.8715629099185
12582,-8.545966,-3.589234,3.961916,0.009163,-0.00504,0.020006,31.02,66.8565451735745
12592,-8.537591,-3.6006,3.964309,0.00672,-0.012065,0.01405,31.04,66.8366389694065
12602,-8.535198,-3.602993,3.970291,0.004429,-0.01909,0.007636,31.04,66.8025260324015
12612,-8.534599,-3.616153,3.962514,0.002291,-0.026573,0.001833,31.04,66.8533965418224
12622,-8.529815,-3.621537,3.968496,-0.000153,-0.03375,-0.002902,31.04,66.8169908677158
12632,-8.52144,-3.623332,3.961318,-0.003054,-0.040012,-0.008094,30.99,66.8388378503643
12642,-8.519047,-3.625126,3.979264,-0.005956,-0.045662,-0.013592,30.99,66.7416723937272
12652,-8.513663,-3.629314,3.978068,-0.009163,-0.052076,-0.01909,31.04,66.7404827042614
12662,-8.503493,-3.629314,3.99063,-0.011148,-0.0562,-0.02306,31.04,66.6537993766926
12672,-8.499306,-3.626323,3.991228,-0.01405,-0.060476,-0.027336,31,66.639339191189
12682,-8.49452,-3.636492,3.986442,-0.017562,-0.063988,-0.030849,31,66.6634410783789
12692,-8.493923,-3.628716,4.003192,-0.019853,-0.066432,-0.034972,31.05,66.567774796966
12702,-8.470592,-3.637091,4.01396,-0.02306,-0.068264,-0.038179,31.05,66.4703442751784
12712,-8.445468,-3.622734,4.015156,-0.025656,-0.068264,-0.041386,31.03,66.3985047671702
12722,-8.443074,-3.640081,4.018147,-0.02978,-0.06689,-0.044288,31.01,66.3934939654784
12732,-8.445468,-3.632305,4.029513,-0.032376,-0.063988,-0.044899,31.01,66.3320418913488
12742,-8.433504,-3.621537,4.025924,-0.034819,-0.060781,-0.044746,31.06,66.3158508538333
12752,-8.434101,-3.632305,4.033103,-0.036499,-0.056963,-0.044899,31.06,66.2893143968375
12762,-8.410771,-3.624528,4.038486,-0.037874,-0.051007,-0.043524,31.04,66.2047000770178
12772,-8.404789,-3.621537,4.042674,-0.038637,-0.04612,-0.043524,31.04,66.1673269137416
12782,-8.396414,-3.611368,4.046263,-0.039859,-0.039859,-0.041692,31.05,66.1213789921408
12792,-8.385648,-3.611368,4.042076,-0.040623,-0.032834,-0.03879,31.05,66.1203778905434
12802,-8.398808,-3.606582,4.060022,-0.040623,-0.025656,-0.036957,31.05,66.0500230116682
12812,-8.372486,-3.599404,4.048656,-0.040012,-0.01741,-0.035125,31.05,66.0466895326222
12822,-8.376674,-3.594618,4.057031,-0.039401,-0.009163,-0.03146,31.04,66.0073056969956
12832,-8.373683,-3.580859,4.058825,-0.03879,-0.000916,-0.028558,31.04,65.9788038160545
12842,-8.379066,-3.585046,4.066602,-0.037263,0.007636,-0.024893,31.04,65.9534369732846
12852,-8.380861,-3.576672,4.04746,-0.035736,0.016035,-0.020311,31.04,66.0500495992606
12862,-8.368897,-3.576073,4.043272,-0.034208,0.02474,-0.016646,31,66.0458236217906
12872,-8.37129,-3.562315,4.034897,-0.031765,0.032376,-0.012828,31,66.0824172050068
12882,-8.388638,-3.551547,4.036094,-0.029169,0.039554,-0.004123,31.05,66.1035462000583
12892,-8.385049,-3.552743,4.03071,-0.023824,0.053145,-0.000305,31.05,66.1252516063998
12902,-8.401799,-3.550351,4.021737,-0.020769,0.058948,0.004429,31.05,66.2061300639822
12912,-8.395817,-3.54736,4.020541,-0.017868,0.063835,0.007636,31.04,66.196936567796
12922,-8.407781,-3.553342,4.003192,-0.013897,0.067195,0.010996,31.04,66.3191545131185
12932,-8.407183,-3.546163,3.99063,-0.01069,0.069944,0.014813,31.03,66.3776151163007
12942,-8.419745,-3.543771,3.991827,-0.00733,0.072082,0.018479,31.03,66.3958332153756
12952,-8.423334,-3.540779,3.979862,-0.003512,0.073304,0.021075,30.97,66.4638088231469
12962,-8.441879,-3.536592,3.972086,-0.000153,0.072998,0.024129,30.97,66.5402459865627
12972,-8.44427,-3.533601,3.958327,0.003054,0.071777,0.026114,31.01,66.6151610725073
12982,-8.450253,-3.537788,3.955336,0.006414,0.06918,0.028253,31.01,66.6471871446665
12992,-8.456833,-3.551547,3.948756,0.009621,0.066126,0.029932,31.05,66.7077483677751
13002,-8.46102,-3.540181,3.944568,0.011912,0.061087,0.031918,31.05,66.728614888021
13012,-8.487941,-3.548556,3.949952,0.013592,0.056047,0.032834,30.99,66.7637708986017
13022,-8.489736,-3.541976,3.9338,0.015577,0.049022,0.034056,30.99,66.8467806756412
13032,-8.500502,-3.545565,3.923631,0.017257,0.042455,0.033445,31.01,66.9257605771586
13042,-8.497512,-3.553342,3.934997,0.018479,0.034972,0.033292,31.01,66.8664767884122
13052,-8.503493,-3.564708,3.932604,0.019548,0.025504,0.032529,31,66.9013010534221
13062,-8.514859,-3.559922,3.936193,0.020159,0.008094,0.029932,31,66.9017968133774
13072,-8.517252,-3.566502,3.939184,0.019853,-0.001374,0.028253,31.05,66.896724119297
13082,-8.532805,-3.573681,3.936193,0.019242,-0.010385,0.025504,30.98,66.9506851774216
13092,-8.513663,-3.57727,3.951746,0.01741,-0.018173,0.023213,30.98,66.8327309385942
13102,-8.522635,-3.574877,3.952345,0.015424,-0.027184,0.018326,31.03,66.8460660548274
13112,-8.516654,-3.600002,3.958327,0.014355,-0.034514,0.014966,31.03,66.8242271018843
13122,-8.519047,-3.600002,3.960122,0.012828,-0.041539,0.011606,31.01,66.8197697710028
13132,-8.516654,-3.592823,3.978068,0.011148,-0.047342,0.008552,31.01,66.7146415766054
13142,-8.517851,-3.601796,3.982853,0.008552,-0.051771,0.003512,30.97,66.6999652265176
13152,-8.508279,-3.60718,3.988237,0.005803,-0.056505,-0.000305,30.97,66.6566962952037
13162,-8.49452,-3.604189,3.992425,0.002596,-0.059407,-0.005192,31.03,66.6035442282268
13172,-8.509476,-3.622135,4.010371,0.000153,-0.060476,-0.009927,31.03,66.5568371370294
13182,-8.487342,-3.614359,4.015755,-0.003207,-0.060628,-0.013897,30.96,66.4756664533909
13192,-8.478967,-3.620939,4.028317,-0.00672,-0.060323,-0.018326,30.96,66.3984324973951
13202,-8.469396,-3.632305,4.025924,-0.008399,-0.058338,-0.023213,31.01,66.4010552422702
13212,-8.452048,-3.608975,4.036094,-0.011148,-0.055436,-0.025809,31.01,66.2904375032049
13222,-8.464012,-3.632903,4.040879,-0.014661,-0.051924,-0.029169,31.08,66.312243446981
13232,-8.449656,-3.619144,4.055834,-0.018021,-0.043677,-0.034972,31.08,66.1914932900153
13242,-8.44427,-3.626921,4.051647,-0.02306,-0.038332,-0.036957,31.05,66.2090066848276
13252,-8.435298,-3.616153,4.046861,-0.02642,-0.03375,-0.039095,30.99,66.2052386235831
13262,-8.431709,-3.619742,4.046861,-0.029016,-0.028558,-0.04047,30.99,66.2008973973616
13272,-8.43111,-3.62393,4.039683,-0.030849,-0.023518,-0.041081,31.05,66.2409692341361
13282,-8.427522,-3.617948,4.04387,-0.033139,-0.018631,-0.042608,31.05,66.2060335901742
13292,-8.426923,-3.608377,4.041477,-0.034667,-0.013592,-0.041692,31.01,66.2085835777571
13302,-8.420342,-3.616751,4.046861,-0.035736,-0.008247,-0.040623,31.01,66.1740681667836
13312,-8.422137,-3.609573,4.034897,-0.036805,-0.004276,-0.040775,31,66.2339698814137
13322,-8.415558,-3.606582,4.043272,-0.038485,-0.000153,-0.039859,31,66.1734240482258
13332,-8.417352,-3.603591,4.036692,-0.038485,0.003818,-0.038485,31.05,66.2089791071708
13342,-8.416155,-3.591627,4.028915,-0.038637,0.007178,-0.03711,31.05,66.2363440426294
13352,-8.410173,-3.594618,4.017549,-0.038637,0.010232,-0.034819,30.99,66.2860073164757
13362,-8.416754,-3.576073,4.01396,-0.038026,0.012828,-0.032376,30.99,66.302053148906
13372,-8.421539,-3.563511,4.016353,-0.03711,0.01573,-0.030391,30.99,66.2883335736601
13382,-8.402397,-3.57727,4.013362,-0.035583,0.017715,-0.028253,30.99,66.2757801509794
13392,-8.402397,-3.561118,4.013362,-0.034514,0.019853,-0.026725,31.03,66.2611781507178
13402,-8.408379,-3.563511,4.001398,-0.032987,0.022297,-0.018021,31.03,66.3390143904258
13412,-8.410771,-3.567699,3.988835,-0.028711,0.025656,-0.014355,31.04,66.4139997600359
13422,-8.410173,-3.551547,3.996612,-0.025504,0.027489,-0.010996,31.03,66.3572740994222
13432,-8.407781,-3.554538,3.997808,-0.022602,0.02978,-0.007178,31.03,66.348578627176
13442,-8.403594,-3.550351,3.98405,-0.019395,0.03146,-0.002443,31.03,66.4084441807799
13452,-8.405987,-3.541976,3.97747,-0.016035,0.03146,0.001222,31.03,66.4407417090833
13462,-8.405388,-3.547958,3.992425,-0.012981,0.032529,0.004887,31.07,66.3659494588046
13472,-8.416155,-3.552145,3.986442,-0.010232,0.033445,0.007941,31.07,66.4240707064627
13482,-8.415558,-3.546762,3.985246,-0.00672,0.034667,0.012675,31.04,66.4242977388009
13492,-8.421539,-3.549154,3.981059,-0.002443,0.034361,0.016493,31.04,66.4611609207391
13502,-8.417352,-3.546163,3.976273,0.000916,0.034819,0.020006,31.03,66.4748666515114
13512,-8.432905,-3.544369,3.979862,0.003512,0.034514,0.022907,31.03,66.4872358566177
13522,-8.44427,-3.54736,3.978068,0.007178,0.03375,0.025045,31.02,66.523311390989
13532,-8.450851,-3.545565,3.97747,0.010232,0.032834,0.026725,31.02,66.5387331456899
13542,-8.453843,-3.559324,3.981059,0.013134,0.031918,0.028711,31.04,66.5383223609672
13552,-8.458031,-3.56052,3.981059,0.015272,0.030085,0.029627,31.04,66.5481827593569
13562,-8.465807,-3.563511,3.978068,0.01741,0.028558,0.031001,31.01,66.582859144859
13572,-8.48136,-3.565306,3.975077,0.019395,0.027336,0.030085,31.01,66.6327031651348
13582,-8.495717,-3.564708,3.97747,0.020617,0.020464,0.028711,30.98,66.6496120783792
13592,-8.491529,-3.573681,3.976273,0.021686,0.017715,0.026878,31.02,66.6550163298214
13602,-8.486146,-3.582654,3.978068,0.021686,0.014966,0.025198,31.02,66.6422675957785
13612,-8.49452,-3.579065,3.979264,0.020617,0.011759,0.022602,31.02,66.6503035860874
13622,-8.493923,-3.595814,3.976273,0.019853,0.007789,0.019395,31.02,66.6794572649643
13632,-8.501101,-3.58744,3.982853,0.018326,0.004429,0.018173,31.07,66.6525727699771
13642,-8.504092,-3.596412,3.980461,0.017715,0.000611,0.014661,31.07,66.6791941285662
13652,-8.512466,-3.598805,3.983452,0.016188,-0.003054,0.011912,31.07,66.6830407692549
13662,-8.493923,-3.604189,3.980461,0.013744,-0.007025,0.009621,31.07,66.6649061740978
13672,-8.499905,-3.607778,3.987041,0.010996,-0.011301,0.006872,31.04,66.6460778546234
13682,-8.499905,-3.604787,3.982255,0.008552,-0.015272,0.004581,31.04,66.6684767573971
13692,-8.493324,-3.616751,3.979264,0.006109,-0.01909,0.002291,31,66.6810209890375
13702,-8.495118,-3.608377,3.995416,0.003054,-0.023366,-0.000458,31,66.5928532266449
13712,-8.498111,-3.613162,3.984648,0,-0.027031,-0.002291,31.01,66.6596187709284
13722,-8.481958,-3.615555,3.987639,-0.001833,-0.029932,-0.003818,31.01,66.612489785009
13732,-8.483154,-3.623332,4.0008,-0.004734,-0.03207,-0.005498,31.01,66.5530473636137
13742,-8.486146,-3.629912,3.998407,-0.008399,-0.034514,-0.006872,31.01,66.5776497727295
13752,-8.471789,-3.622734,4.002594,-0.010996,-0.038026,-0.01237,31.03,66.519409909776
13762,-8.453843,-3.619144,4.003192,-0.01741,-0.04047,-0.014966,31.03,66.4755072859225
13772,-8.465208,-3.613162,4.013362,-0.020617,-0.041692,-0.016646,31.03,66.4407444833802
13782,-8.456235,-3.621537,4.021138,-0.023213,-0.04215,-0.018326,31,66.3887560082034
13792,-8.452048,-3.616751,4.017549,-0.025351,-0.040775,-0.020311,31,66.394423722325
13802,-8.444869,-3.620939,4.021737,-0.027489,-0.04047,-0.023518,31.04,66.3611787100975
13812,-8.459825,-3.611966,4.027121,-0.030696,-0.039248,-0.025656,31.04,66.356419415424
13822,-8.456235,-3.610171,4.031308,-0.032987,-0.036805,-0.027642,31.05,66.3253600770027
13832,-8.447262,-3.61735,4.028915,-0.034667,-0.033598,-0.029322,31.05,66.3254286378439
13842,-8.455637,-3.607778,4.035496,-0.036957,-0.030849,-0.03207,31.05,66.3000584390114
13852,-8.44128,-3.599404,4.032505,-0.03879,-0.027794,-0.033903,31.05,66.2778234665622
13862,-8.426325,-3.60718,4.034299,-0.039554,-0.023824,-0.036957,30.99,66.2438048864452
13872,-8.414959,-3.598207,4.029513,-0.040775,-0.019548,-0.039095,30.99,66.236636845184
13882,-8.421539,-3.583252,4.03071,-0.040928,-0.014508,-0.040012,31.03,66.2307872791849
13892,-8.423933,-3.574279,4.035496,-0.041386,-0.010079,-0.041081,31.03,66.2026797477972
13902,-8.423334,-3.576672,4.036094,-0.040317,-0.004581,-0.040623,31.02,66.2004320120253
13912,-8.415558,-3.576073,4.033103,-0.040317,0.000153,-0.04047,31.02,66.1990216378053
13922,-8.41137,-3.5671,4.031906,-0.038637,0.005498,-0.039401,31.01,66.1882611832408
13932,-8.403594,-3.561118,4.035496,-0.034972,0.015424,-0.03711,31,66.1473966844952
13942,-8.398808,-3.561118,4.019344,-0.033292,0.020311,-0.033903,31,66.2220599965653
13952,-8.388638,-3.564708,4.005585,-0.030849,0.025045,-0.03146,31.03,66.2760534336492
13962,-8.394022,-3.558127,4.018745,-0.027794,0.029322,-0.027947,31.03,66.2122887494704
13972,-8.395219,-3.543771,4.006782,-0.024587,0.032681,-0.02474,31.01,66.2648704616056
