t_ms,ax,ay,az,gx,gy,gz,temp,ang_deg
12,-8.939585,-4.211368,3.732205,0.253509,-0.094226,0.397062,30.92,69.309392018824
22,-8.967103,-4.171288,3.836293,0.249691,-0.130572,0.335518,30.92,68.7985706460339
32,-8.899506,-4.080361,3.903292,0.244041,-0.163712,0.210596,30.94,68.2633976293403
42,-8.815757,-4.025924,3.97747,0.22037,-0.207541,0.15516,30.93,67.6864063820669
52,-8.703893,-3.985246,4.055834,0.20296,-0.214414,0.108581,30.93,67.0386069646718
62,-8.595617,-3.957131,4.135396,0.18326,-0.207847,0.072693,30.94,66.393772134994
72,-8.461619,-3.897908,4.217948,0.160658,-0.186467,0.049327,30.94,65.6412999967471
82,-8.3348,-3.859025,4.283751,0.137597,-0.156534,0.039095,30.93,64.9959116829251
92,-8.209774,-3.817749,4.325027,0.115148,-0.119882,0.040012,30.93,64.4666408498325
102,-8.093124,-3.789633,4.364508,0.096669,-0.077122,0.052382,30.92,63.969374028908
112,-7.986644,-3.759125,4.385446,0.08094,-0.030696,0.076664,30.92,63.5810426681825
122,-7.899306,-3.725625,4.389633,0.071013,0.017104,0.11133,30.92,63.3157742364928
132,-7.816754,-3.683152,4.386642,0.067806,0.064752,0.155618,30.92,63.0852279399092
142,-7.750352,-3.651447,4.370491,0.07086,0.11301,0.207389,30.95,62.9725977401489
152,-7.697112,-3.614957,4.344768,0.07926,0.158978,0.264963,30.95,62.9363801998193
162,-7.676175,-3.580261,4.313661,0.093921,0.201891,0.326966,30.98,63.0110132994097
172,-7.692327,-3.535396,4.290929,0.114843,0.240986,0.389427,30.98,63.1218083088389
182,-7.715058,-3.501298,4.246064,0.139125,0.275348,0.452651,30.92,63.3815517327028
192,-7.759326,-3.461218,4.221537,0.166919,0.305585,0.513738,30.92,63.5787118114149
202,-7.941778,-3.375077,4.151547,0.196393,0.329104,0.567494,30.92,64.3075665131627
212,-8.070992,-3.332005,4.122834,0.252593,0.359036,0.651488,30.92,64.7248777468584
222,-8.207382,-3.293122,4.088138,0.276875,0.364687,0.677908,30.9,65.1897911817715
232,-8.344969,-3.25364,4.059424,0.29856,0.36545,0.691194,30.96,65.6189487176113
242,-8.48136,-3.202195,4.031906,0.313985,0.359494,0.690125,30.96,66.0233096275378
252,-8.628518,-3.171088,4.00738,0.323759,0.348957,0.675006,30.92,66.4463079795872
262,-8.764312,-3.118446,3.987041,0.328187,0.332311,0.644157,30.92,66.8002446371509
272,-8.891729,-3.093322,3.980461,0.324675,0.313068,0.600022,30.91,67.0811513112755
282,-8.995218,-3.059224,3.971487,0.314901,0.290466,0.542907,30.91,67.3151470481021
292,-9.123833,-3.03051,3.972086,0.297491,0.265115,0.470824,30.92,67.5516439627486
302,-9.214162,-3.013162,3.971487,0.274126,0.23839,0.387747,30.92,67.7224930448652
312,-9.311669,-2.991627,3.969693,0.242972,0.210749,0.293979,30.86,67.9087105650269
322,-9.374481,-2.976671,3.973282,0.20632,0.180205,0.189521,30.86,68.0030468081352
332,-9.410373,-2.955734,3.970291,0.164323,0.151189,0.078343,30.94,68.0743445947615
342,-9.430713,-2.944368,3.972684,0.119119,0.121257,-0.036499,30.94,68.0945744029418
352,-9.429516,-2.951547,3.962514,0.069944,0.092699,-0.154549,30.92,68.1473655344274
362,-9.391232,-2.949154,3.965506,0.020617,0.063377,-0.270308,30.92,68.0575198929645
372,-9.342177,-2.968297,3.931407,-0.030238,0.035736,-0.381791,30.9,68.1459701843471
382,-9.171092,-2.99043,3.914658,-0.081398,-0.015882,-0.577268,30.9,67.9117728388737
392,-9.049655,-3.02393,3.899105,-0.175776,-0.037568,-0.656375,30.92,67.772789842242
402,-8.916854,-3.044867,3.858427,-0.216857,-0.057269,-0.718072,30.92,67.7311251091746
412,-8.775677,-3.090331,3.841677,-0.253356,-0.075289,-0.764651,30.92,67.5637722447344
422,-8.657831,-3.132803,3.811767,-0.283289,-0.090255,-0.794583,30.9,67.5105136420309
432,-8.509476,-3.180061,3.781258,-0.306043,-0.103542,-0.807564,30.9,67.4008537918367
442,-8.374879,-3.227319,3.75733,-0.322231,-0.112552,-0.805273,30.89,67.2841199083474
452,-8.260024,-3.276373,3.732804,-0.331547,-0.119424,-0.785725,30.89,67.2140552868737
462,-8.132008,-3.326622,3.720241,-0.333838,-0.125533,-0.75396,30.92,67.0511154531861
472,-8.029117,-3.374478,3.707679,-0.328493,-0.127213,-0.708451,30.92,66.9400822314704
482,-7.945966,-3.434897,3.702893,-0.317955,-0.125227,-0.653473,30.93,66.8410250383353
492,-7.884351,-3.478566,3.702893,-0.301767,-0.118813,-0.588721,30.93,66.7473603002325
502,-7.843673,-3.530011,3.687938,-0.280082,-0.112246,-0.517556,30.91,66.7922868120206
512,-7.82453,-3.589832,3.690929,-0.253356,-0.104458,-0.441197,30.91,66.7931164094535
522,-7.828718,-3.638885,3.696313,-0.222508,-0.096669,-0.362854,30.91,66.8215097661856
532,-7.849056,-3.681956,3.7005,-0.188299,-0.090255,-0.286038,30.91,66.8857973653047
542,-7.905886,-3.71725,3.699304,-0.151036,-0.085674,-0.210749,30.95,67.0499651177042
552,-8.054241,-3.801597,3.702893,-0.112705,-0.083536,-0.076816,30.95,67.4244566189892
562,-8.140981,-3.827918,3.707679,-0.03207,-0.08995,-0.023366,30.92,67.6011778949203
572,-8.233703,-3.862614,3.722634,0.006872,-0.099266,0.021075,30.9,67.739789691014
582,-8.330612,-3.88056,3.741776,0.044288,-0.111636,0.055131,30.9,67.8461496067871
592,-8.425129,-3.910471,3.77408,0.07926,-0.127213,0.07758,30.93,67.8870415681983
602,-8.506484,-3.93739,3.803392,0.109498,-0.145844,0.089339,30.93,67.9147420234631
612,-8.58126,-3.958925,3.854837,0.134085,-0.162032,0.091019,30.96,67.8094724402318
622,-8.632108,-3.972086,3.896712,0.153022,-0.176845,0.083994,30.96,67.7020728873054
632,-8.679366,-3.993023,3.944568,0.166766,-0.189063,0.067501,30.96,67.5653328884178
642,-8.700304,-3.99721,4.007978,0.173638,-0.196393,0.044746,30.96,67.2855589400998
652,-8.722438,-4.008576,4.049852,0.175166,-0.198989,0.015119,30.91,67.1259275084814
662,-8.71466,-4.010969,4.095316,0.171653,-0.197768,-0.016799,30.91,66.8828847079735
672,-8.706285,-4.027121,4.144967,0.161574,-0.191812,-0.051771,30.9,66.6307054484668
682,-8.673384,-4.028915,4.180261,0.147982,-0.182038,-0.085979,30.9,66.3894936704467
692,-8.645268,-4.033103,4.216752,0.130267,-0.169057,-0.120951,30.92,66.1536251138772
702,-8.593822,-4.038486,4.247859,0.109039,-0.152564,-0.152716,30.92,65.8982454672769
712,-8.526823,-4.059424,4.279563,0.085674,-0.13271,-0.180511,30.92,65.621847583253
722,-8.406584,-4.070191,4.301099,0.061239,-0.110719,-0.203113,30.92,65.2739711256695
732,-8.334201,-4.075575,4.31067,0.012065,-0.057421,-0.22938,30.94,65.0783196358969
742,-8.263015,-4.085146,4.320241,-0.01069,-0.028253,-0.231823,30.91,64.8879774279574
752,-8.199007,-4.096512,4.303492,-0.031765,0.001527,-0.228616,30.91,64.8482946089932
762,-8.138588,-4.106084,4.295715,-0.050244,0.032223,-0.215941,30.93,64.7682174584483
772,-8.085946,-4.113262,4.281956,-0.065973,0.063377,-0.197462,30.93,64.7328694562516
782,-8.031509,-4.111467,4.253242,-0.07758,0.095295,-0.171195,30.93,64.7611402649714
792,-7.989037,-4.110869,4.234099,-0.085368,0.125533,-0.141568,30.93,64.767413617821
802,-7.977072,-4.110869,4.207779,-0.087659,0.154549,-0.104153,30.89,64.8788312786703
812,-7.954341,-4.104887,4.175476,-0.085216,0.182191,-0.064599,30.89,64.991988093273
822,-7.93819,-4.101896,4.142574,-0.078343,0.208458,-0.022297,30.94,65.1267824127226
832,-7.941778,-4.092325,4.119842,-0.067348,0.231365,0.023824,30.94,65.243947717629
842,-7.960323,-4.071986,4.098905,-0.052687,0.251676,0.070097,30.9,65.3722815750717
852,-7.970493,-4.070191,4.070191,-0.034667,0.269392,0.115606,30.9,65.5444041863305
862,-7.999804,-4.025326,4.053442,-0.013286,0.284969,0.160505,30.93,65.6474060670938
872,-8.044072,-4.014558,4.028915,0.009468,0.298255,0.203418,30.93,65.8607017543829
882,-8.093722,-3.976273,4.005585,0.032834,0.307112,0.242361,30.92,66.0496400820428
892,-8.215756,-3.923033,3.969095,0.056352,0.313068,0.277486,30.92,66.4448771444149
902,-8.28156,-3.887738,3.949354,0.07926,0.315206,0.330631,30.94,66.6508843322777
912,-8.355139,-3.856034,3.924229,0.120493,0.310472,0.347277,30.91,66.9040521468621
922,-8.425727,-3.818347,3.885346,0.137903,0.301767,0.357814,30.91,67.2169856858076
932,-8.490931,-3.786642,3.847061,0.154549,0.288328,0.361479,30.92,67.5204679804475
942,-8.559127,-3.745964,3.800999,0.169973,0.269239,0.358883,30.92,67.8620198224393
952,-8.624928,-3.70409,3.759125,0.184023,0.245262,0.350789,30.91,68.1751518274325
962,-8.679964,-3.689135,3.719045,0.196851,0.215788,0.336281,30.91,68.4794200224312
972,-8.723633,-3.641876,3.662813,0.208763,0.180053,0.316581,30.91,68.8204626404821
982,-8.766705,-3.619742,3.633501,0.220828,0.140499,0.29291,30.91,69.0384244089754
992,-8.783454,-3.578466,3.610171,0.23106,0.096211,0.265726,30.89,69.1610882195323
1002,-8.788837,-3.539583,3.586243,0.239917,0.051465,0.237779,30.89,69.2682301721052
1012,-8.770293,-3.519244,3.568895,0.247553,0.004887,0.209374,30.93,69.3104779108562
1022,-8.755338,-3.486941,3.565904,0.253051,-0.04047,0.182649,30.93,69.2744015565555
1032,-8.71825,-3.444468,3.571886,0.255189,-0.083536,0.157451,30.91,69.1411069593159
1042,-8.684152,-3.424129,3.589234,0.254884,-0.123547,0.134696,30.91,68.9683032888982
1052,-8.639286,-3.392424,3.61735,0.250607,-0.157603,0.117133,30.92,68.7072152164532
1062,-8.604589,-3.359523,3.709473,0.24175,-0.185856,0.103847,30.92,68.1205416914045
1072,-8.532208,-3.309274,3.741776,0.230143,-0.207847,0.085674,30.96,67.7617978764697
1082,-8.501699,-3.288934,3.796213,0.19563,-0.232587,0.080481,30.92,67.3908204140231
1092,-8.486146,-3.260819,3.842275,0.175166,-0.235794,0.077122,30.92,67.0890090486805
1102,-8.444869,-3.250051,3.898506,0.151189,-0.234267,0.074373,30.9,66.6918395157933
1112,-8.426325,-3.227918,3.949952,0.125686,-0.226784,0.071929,30.9,66.358906303352
1122,-8.42453,-3.218945,4.004987,0.099571,-0.214566,0.07086,30.94,66.05480358784
1132,-8.41137,-3.204588,4.05404,0.073609,-0.198073,0.067653,30.94,65.7535884587984
1142,-8.407183,-3.202793,4.099504,0.048106,-0.177304,0.063988,30.94,65.5025191531482
1152,-8.389835,-3.198606,4.14078,0.023518,-0.154702,0.057574,30.94,65.2423358802552
1162,-8.389835,-3.187838,4.165905,0.00168,-0.12874,0.052382,30.89,65.1009328267213
1172,-8.39821,-3.190829,4.198806,-0.019242,-0.102014,0.043677,30.89,64.9501378747876
1182,-8.400601,-3.198008,4.217948,-0.035736,-0.073762,0.033903,30.95,64.8617649166634
1192,-8.409575,-3.190231,4.233501,-0.049786,-0.045204,0.02306,30.95,64.7943880559992
1202,-8.410173,-3.20698,4.245465,-0.061087,-0.016952,0.010537,30.92,64.748035412152
1212,-8.432307,-3.215954,4.249055,-0.068264,0.012217,-0.005192,30.92,64.7878969712584
1222,-8.455039,-3.231507,4.249055,-0.072846,0.040012,-0.020617,30.91,64.8532725076299
1232,-8.476574,-3.242275,4.233501,-0.074373,0.066279,-0.038026,30.91,64.9920818191993
1242,-8.497512,-3.275774,4.216154,-0.073457,0.090408,-0.076205,30.93,65.1579943644561
1252,-8.508877,-3.311667,4.197011,-0.063225,0.1321,-0.095753,30.89,65.3134812705576
1262,-8.52443,-3.313461,4.173083,-0.056352,0.148898,-0.116064,30.89,65.473446577303
1272,-8.550154,-3.346961,4.141378,-0.048258,0.162337,-0.136681,30.93,65.7228557980493
1282,-8.560921,-3.385246,4.111467,-0.03879,0.172722,-0.156229,30.93,65.9339632886954
1292,-8.579466,-3.400201,4.083352,-0.029932,0.178984,-0.174249,30.92,66.1323780832935
1302,-8.600404,-3.431308,4.071388,-0.020006,0.180053,-0.192881,30.92,66.2652869457668
1312,-8.618947,-3.470789,4.038486,-0.011759,0.177609,-0.211818,30.93,66.5082380487838
1322,-8.633304,-3.485744,4.018147,-0.00504,0.172722,-0.230296,30.93,66.6562183193038
1332,-8.645866,-3.509673,4.009174,-0.000611,0.164017,-0.24908,30.91,66.748800440684
1342,-8.663813,-3.552145,3.997808,0.000916,0.153938,-0.267864,30.91,66.8801240413614
1352,-8.675179,-3.565904,3.994817,-0.000611,0.141721,-0.287107,30.89,66.9303177692671
1362,-8.688937,-3.602993,4.006183,-0.004581,0.129045,-0.306807,30.89,66.9307220461824
1372,-8.684152,-3.629912,3.988237,-0.012828,0.11637,-0.325744,30.91,67.0362859604672
1382,-8.665009,-3.65384,3.993621,-0.022907,0.105069,-0.34407,30.91,66.9901325683549
1392,-8.642278,-3.690331,3.996014,-0.035736,0.095295,-0.359952,30.91,66.9631436484541
1402,-8.618947,-3.725027,3.979264,-0.049786,0.086437,-0.374002,30.91,67.0327264112723
1412,-8.547761,-3.767499,3.969095,-0.065363,0.079565,-0.384082,30.93,66.9792912989348
1422,-8.498708,-3.796811,3.949354,-0.0956,0.069791,-0.395077,30.93,67.0092343526851
1432,-8.459825,-3.829114,3.931407,-0.108734,0.067042,-0.393397,30.9,67.0538081872311
1442,-8.42453,-3.854239,3.91406,-0.120951,0.064599,-0.388052,30.87,67.0965753356932
1452,-8.391031,-3.884748,3.886542,-0.131031,0.062461,-0.376751,30.87,67.2020787483648
1462,-8.349755,-3.903292,3.860221,-0.138514,0.059559,-0.362396,30.95,67.2754377983083
1472,-8.328817,-3.934997,3.822534,-0.142484,0.056505,-0.341474,30.95,67.4630141078425
1482,-8.286943,-3.960122,3.798008,-0.143401,0.05284,-0.317344,30.93,67.5338621690576
1492,-8.256434,-3.991827,3.777071,-0.140499,0.0478,-0.290008,30.93,67.6152526589648
1502,-8.233105,-3.993621,3.745365,-0.134238,0.041844,-0.259618,30.9,67.7405291737815
1512,-8.213962,-4.023531,3.725027,-0.124464,0.034514,-0.225562,30.9,67.8407138307729
1522,-8.204989,-4.044468,3.69392,-0.109803,0.026878,-0.189979,30.91,68.0106187329686
1532,-8.186445,-4.041477,3.67059,-0.092852,0.018479,-0.151342,30.91,68.0974379895266
1542,-8.182258,-4.046861,3.657429,-0.071777,0.010843,-0.111025,30.93,68.1656101009424
1552,-8.195418,-4.04746,3.641278,-0.049022,0.000916,-0.07086,30.93,68.2790428168321
1562,-8.190632,-4.057629,3.624528,-0.023366,-0.009468,-0.029932,30.96,68.3701847566263
1572,-8.202596,-4.048058,3.613162,0.003512,-0.021991,0.008705,30.96,68.4456587292613
1582,-8.209774,-4.026522,3.602993,0.032223,-0.034819,0.047953,30.93,68.4942280509163
1592,-8.263614,-4.010969,3.603591,0.060628,-0.066126,0.118661,30.93,68.5794829593912
1602,-8.277969,-3.989433,3.620341,0.118966,-0.082314,0.150426,30.93,68.4965382173531
1612,-8.309675,-3.970889,3.628716,0.146455,-0.099266,0.178831,30.93,68.4950621422368
1622,-8.333005,-3.946362,3.66042,0.171042,-0.116064,0.203724,30.93,68.3469951144824
1632,-8.35155,-3.921836,3.68734,0.193797,-0.130878,0.224188,30.91,68.2161470144508
1642,-8.376674,-3.899105,3.716054,0.212276,-0.14615,0.239459,30.91,68.09078421534
1652,-8.414959,-3.872783,3.745964,0.226936,-0.158672,0.251524,30.91,67.9823465158918
1662,-8.432905,-3.832105,3.795615,0.238543,-0.168293,0.258854,30.91,67.7176026405016
1672,-8.455039,-3.804588,3.847659,0.244804,-0.176235,0.262061,30.92,67.4618408255223
1682,-8.472985,-3.77049,3.899703,0.246942,-0.180205,0.261603,30.92,67.1934382091065
1692,-8.48136,-3.74058,3.945167,0.245721,-0.181274,0.257938,30.92,66.9452548054889
1702,-8.496913,-3.711268,3.989433,0.240375,-0.178831,0.252135,30.92,66.7195271908856
1712,-8.508279,-3.675974,4.044468,0.231976,-0.172264,0.243277,30.9,66.4249466500649
1722,-8.496913,-3.646064,4.098307,0.219606,-0.163101,0.231823,30.9,66.0949410809482
1732,-8.505887,-3.627519,4.142574,0.204793,-0.149051,0.218995,30.93,65.8682934120508
1742,-8.502296,-3.598805,4.185047,0.187841,-0.132405,0.206167,30.93,65.6156203471499
1752,-8.495717,-3.582056,4.253242,0.169362,-0.112246,0.192881,30.96,65.2358283769886
1762,-8.459825,-3.540779,4.28734,0.150884,-0.088575,0.167224,30.96,64.944242493499
1772,-8.432905,-3.52702,4.292724,0.112857,-0.034056,0.157298,30.92,64.8441390041724
1782,-8.413164,-3.506083,4.308876,0.096059,-0.003207,0.149051,30.95,64.6975551435276
1792,-8.377273,-3.502494,4.318447,0.080787,0.028711,0.142179,30.95,64.5642132481618
1802,-8.364112,-3.480361,4.321437,0.067042,0.062156,0.13943,30.89,64.4981301037467
1812,-8.338388,-3.474378,4.308876,0.0562,0.096364,0.136528,30.89,64.4988326986263
1822,-8.344371,-3.463012,4.293322,0.048717,0.129198,0.136834,30.91,64.582108082493
1832,-8.32463,-3.458227,4.268795,0.043677,0.161268,0.138208,30.91,64.6598875062949
1842,-8.327621,-3.444468,4.24726,0.040623,0.191354,0.139735,30.91,64.7656536722474
1852,-8.35454,-3.440281,4.220341,0.04047,0.219148,0.141873,30.91,64.9625964707972
1862,-8.35454,-3.437888,4.194618,0.041081,0.24343,0.142179,30.92,65.0944408606592
1872,-8.386844,-3.416353,4.162913,0.04444,0.264505,0.141873,30.92,65.3123698513429
1882,-8.418548,-3.424727,4.121039,0.047953,0.280234,0.137445,30.94,65.6088066413838
1892,-8.46461,-3.401397,4.1007,0.052382,0.291994,0.131489,30.94,65.7952572732446
1902,-8.504092,-3.393621,4.057629,0.056658,0.298408,0.121562,30.89,66.0991960453834
1912,-8.542974,-3.397808,4.021138,0.059407,0.30024,0.107818,30.89,66.3768276572549
1922,-8.576474,-3.393621,3.979264,0.061392,0.297033,0.090408,30.91,66.6632969457407
1932,-8.657232,-3.391228,3.930809,0.06185,0.28955,0.071013,30.91,67.0828134644701
1942,-8.688937,-3.382255,3.888935,0.056658,0.262214,0.02138,30.88,67.3595696586548
1952,-8.711669,-3.377469,3.869792,0.050396,0.242208,-0.008858,30.89,67.5020985223892
1962,-8.749954,-3.382255,3.837489,0.042761,0.218384,-0.040012,30.89,67.7517778885248
1972,-8.773883,-3.368496,3.811168,0.033903,0.192117,-0.072998,30.93,67.9265931866151
1982,-8.785847,-3.375674,3.775276,0.02306,0.162185,-0.106291,30.93,68.143695147117
1992,-8.782258,-3.387639,3.771089,0.01069,0.130878,-0.139735,30.92,68.1676494140303
2002,-8.784651,-3.386442,3.738786,-0.003054,0.096517,-0.17318,30.92,68.3410433432882
2012,-8.772686,-3.395415,3.73041,-0.016188,0.062766,-0.203113,30.95,68.3685517918094
2022,-8.749356,-3.396013,3.713661,-0.031307,0.026878,-0.231671,30.95,68.4118649597911
2032,-8.720044,-3.397808,3.717848,-0.045662,-0.007178,-0.257022,30.96,68.3338853967182
2042,-8.698509,-3.407978,3.71067,-0.059254,-0.041386,-0.27886,30.96,68.3374869581989
2052,-8.665607,-3.418745,3.702893,-0.072998,-0.073915,-0.296117,30.94,68.3225051861291
2062,-8.629116,-3.42054,3.711268,-0.084452,-0.104153,-0.30864,30.94,68.2074554242193
2072,-8.589635,-3.448057,3.715455,-0.094531,-0.133627,-0.316734,30.95,68.1286571867062
2082,-8.544769,-3.464807,3.717848,-0.101862,-0.161268,-0.320093,30.95,68.0399869483219
2092,-8.511868,-3.482754,3.720839,-0.107207,-0.184023,-0.318872,30.94,67.9727816737143
2102,-8.472985,-3.515056,3.760919,-0.109956,-0.205251,-0.31261,30.94,67.7068078117356
2112,-8.391629,-3.539583,3.774678,-0.109956,-0.236252,-0.289245,30.91,67.4882240945177
2122,-8.361719,-3.551547,3.783651,-0.098807,-0.245262,-0.27153,30.93,67.3889593379832
2132,-8.323434,-3.580859,3.817749,-0.089644,-0.251371,-0.252898,30.93,67.1524780208236
2142,-8.303095,-3.604787,3.853043,-0.077885,-0.253356,-0.229991,30.91,66.9422972815962
2152,-8.268997,-3.622734,3.86381,-0.063377,-0.252593,-0.20632,30.91,66.8294655226333
2162,-8.239684,-3.638287,3.886542,-0.046884,-0.247706,-0.1799,30.89,66.6601334360417
2172,-8.24148,-3.662813,3.918247,-0.028863,-0.240528,-0.151953,30.89,66.5172344942445
2182,-8.218149,-3.683152,3.945765,-0.010079,-0.230754,-0.123089,30.93,66.3399339988196
2192,-8.212168,-3.696313,3.964309,0.009468,-0.216857,-0.095753,30.93,66.2408804848745
2202,-8.217552,-3.715455,3.988835,0.028558,-0.200975,-0.068875,30.9,66.140371104695
2212,-8.209774,-3.724428,4.017549,0.047189,-0.182496,-0.041233,30.9,65.9799818291113
2222,-8.227122,-3.736392,4.046263,0.066279,-0.16249,-0.017868,30.88,65.8770598788692
2232,-8.238488,-3.748955,4.067799,0.082161,-0.140346,0.00504,30.88,65.8002590666128
2242,-8.247462,-3.768098,4.080959,0.096211,-0.117744,0.02474,30.93,65.7691384946687
2252,-8.279764,-3.769892,4.105485,0.10965,-0.094379,0.041997,30.93,65.7117463558087
2262,-8.292925,-3.768098,4.127619,0.12034,-0.071471,0.054978,30.91,65.6226397126991
2272,-8.318049,-3.780062,4.142574,0.12706,-0.048258,0.063988,30.91,65.6104286746843
2282,-8.359326,-3.786044,4.159923,0.131336,-0.025962,0.077274,30.89,65.6146478906651
2292,-8.374879,-3.780062,4.178466,0.133321,0.014508,0.078649,30.87,65.5462195544209
2302,-8.39821,-3.792026,4.173083,0.129503,0.033445,0.078954,30.87,65.6353763010315
2312,-8.400601,-3.777669,4.190431,0.124158,0.05116,0.076205,30.94,65.5372142222249
2322,-8.422735,-3.778267,4.191029,0.114995,0.068875,0.071777,30.94,65.5819643028956
2332,-8.438289,-3.774678,4.192225,0.105527,0.085521,0.064904,30.9,65.6055169534673
2342,-8.443074,-3.776472,4.198207,0.093004,0.101709,0.057574,30.9,65.5866689141986
2352,-8.461619,-3.769294,4.198806,0.080023,0.116981,0.048411,30.9,65.6162147610543
2362,-8.484351,-3.768696,4.204788,0.06521,0.131947,0.037415,30.9,65.6332266473
2372,-8.483154,-3.760321,4.20718,0.049175,0.146608,0.025962,30.89,65.610553403778
2382,-8.490931,-3.760919,4.205984,0.032529,0.160658,0.012065,30.89,65.6337388594355
2392,-8.495717,-3.743571,4.215555,0.016188,0.174249,-0.000916,30.94,65.5786434126687
2402,-8.501101,-3.744169,4.201797,-0.000458,0.188452,-0.014355,30.94,65.6610520689826
2412,-8.507681,-3.743571,4.200002,-0.016646,0.202044,-0.027642,30.93,65.6836234763752
2422,-8.492725,-3.734598,4.181458,-0.031612,0.216246,-0.039248,30.93,65.7386535392591
2432,-8.499306,-3.747759,4.178466,-0.04444,0.230296,-0.051465,30.91,65.7801788537782
2442,-8.484949,-3.726223,4.165905,-0.056963,0.24511,-0.061087,30.91,65.7943101160368
2452,-8.468199,-3.722036,4.119244,-0.067042,0.259618,-0.06918,30.91,65.9956379546816
2462,-8.457432,-3.722036,4.088138,-0.077427,0.288176,-0.077885,30.93,66.1340342575561
2472,-8.444869,-3.711268,4.057031,-0.079412,0.299477,-0.079412,30.93,66.2593498142605
2482,-8.442476,-3.717848,4.00379,-0.078038,0.310014,-0.076816,30.9,66.5380768077857
2492,-8.413763,-3.707081,3.961916,-0.072846,0.317344,-0.071624,30.9,66.6881462275022
2502,-8.41137,-3.699902,3.918247,-0.063835,0.32101,-0.063072,30.92,66.9066277444398
2512,-8.402995,-3.7005,3.869792,-0.052076,0.321315,-0.051313,30.92,67.1461875975217
2522,-8.402995,-3.687938,3.812365,-0.037568,0.317955,-0.036957,30.91,67.4399907026568
2532,-8.385648,-3.680161,3.75733,-0.020769,0.309556,-0.018631,30.91,67.6919602026522
2542,-8.395219,-3.678965,3.712464,-0.002291,0.297033,0.001222,30.97,67.9506689438027
2552,-8.392825,-3.672983,3.651447,0.018326,0.279624,0.023824,30.97,68.2692133309621
2562,-8.393424,-3.645465,3.608377,0.040012,0.257174,0.047037,30.95,68.4797237334236
2572,-8.404191,-3.642474,3.559922,0.06185,0.230907,0.071013,30.95,68.7611221341267
2582,-8.425129,-3.625725,3.515655,0.082925,0.199447,0.094837,30.9,69.0283749233195
2592,-8.447262,-3.609573,3.492325,0.103694,0.163865,0.11637,30.9,69.1845433943852
2602,-8.462217,-3.604189,3.460021,0.124006,0.124769,0.13775,30.94,69.384718870813
2612,-8.492725,-3.584448,3.442075,0.142942,0.083689,0.157298,30.94,69.5243103776869
2622,-8.548359,-3.552743,3.431308,0.158367,0.039706,0.173486,30.94,69.6621586534124
2632,-8.579466,-3.525226,3.43729,0.172111,-0.053909,0.194408,30.94,69.666388193734
2642,-8.602796,-3.503092,3.454039,0.191048,-0.100945,0.199447,30.93,69.6021332155058
2652,-8.622537,-3.487539,3.482754,0.195171,-0.147524,0.198531,30.91,69.4718855608183
2662,-8.652448,-3.464807,3.525226,0.19563,-0.19227,0.194255,30.91,69.2820213709635
2672,-8.682955,-3.442674,3.567699,0.191506,-0.233351,0.184329,30.96,69.0952188956562
2682,-8.690134,-3.430111,3.614957,0.183412,-0.270613,0.170279,30.96,68.8469093632125
2692,-8.717052,-3.407978,3.672385,0.171348,-0.303905,0.152869,30.92,68.5765767323832
2702,-8.714063,-3.384049,3.736991,0.156992,-0.332311,0.130725,30.92,68.210441631231
2712,-8.722438,-3.376273,3.792624,0.138361,-0.355982,0.104763,30.95,67.9277128806144
2722,-8.707481,-3.365505,3.857828,0.117133,-0.374613,0.076664,30.95,67.5469456540127
2732,-8.709875,-3.351148,3.918247,0.09499,-0.386525,0.046426,30.93,67.2245126458227
2742,-8.699106,-3.348157,3.979264,0.071013,-0.392023,0.014966,30.93,66.8821165888322
2752,-8.676972,-3.335595,4.048058,0.046426,-0.391259,-0.018021,30.9,66.4687390693104
2762,-8.649456,-3.354139,4.099504,0.021686,-0.384387,-0.049633,30.9,66.1594514486078
2772,-8.623135,-3.348755,4.150949,-0.002443,-0.370795,-0.079718,30.92,65.8330474800207
2782,-8.572886,-3.360719,4.186243,-0.025045,-0.352469,-0.107512,30.92,65.552175723971
2792,-8.533404,-3.355336,4.261617,-0.045815,-0.33002,-0.132863,30.93,65.0725575026772
2802,-8.450253,-3.396013,4.282554,-0.063377,-0.302989,-0.172111,30.93,64.8151067734377
2812,-8.39462,-3.39721,4.296911,-0.089339,-0.238696,-0.184787,30.9,64.6164303644188
2822,-8.364112,-3.410371,4.310072,-0.097586,-0.201433,-0.192423,30.93,64.4911498068493
2832,-8.312068,-3.440281,4.314259,-0.10064,-0.162643,-0.19563,30.93,64.3784992525141
2842,-8.270791,-3.455236,4.314857,-0.100793,-0.122937,-0.19395,30.91,64.2947711887465
2852,-8.251051,-3.476173,4.303492,-0.096975,-0.08262,-0.188299,30.91,64.3285588470142
2862,-8.213365,-3.491128,4.286742,-0.089797,-0.041844,-0.178067,30.94,64.3435262608435
2872,-8.180463,-3.511467,4.267599,-0.07926,-0.000764,-0.164017,30.94,64.3877167676843
2882,-8.172686,-3.533601,4.261019,-0.066279,0.03879,-0.147524,30.93,64.4262097405947
2892,-8.169096,-3.554538,4.25085,-0.052076,0.076664,-0.129351,30.93,64.4920747325154
2902,-8.176873,-3.575475,4.235895,-0.036805,0.113163,-0.10965,30.89,64.6090703193714
2912,-8.185846,-3.595216,4.201199,-0.021228,0.147677,-0.091019,30.89,64.831017320905
2922,-8.206185,-3.613162,4.191029,-0.005498,0.178525,-0.072846,30.96,64.9479237707798
2932,-8.239087,-3.6341,4.176074,0.008399,0.206014,-0.055436,30.96,65.1203536940612
2942,-8.293524,-3.739383,4.15394,0.022449,0.230449,-0.039859,30.93,65.4585822229041
2952,-8.38804,-4.808975,4.065406,-0.036041,0.161116,0.016646,30.93,67.1948539333426
2962,-8.470592,-3.676572,4.100101,-0.130267,0.029627,0.10965,30.93,66.0578852077124
2972,-8.444869,-3.705286,4.14078,-0.124158,0.04444,0.114079,30.93,65.8193511417162
2982,-8.412566,-3.695116,4.161119,-0.114843,0.085216,0.118508,30.92,65.6356211164046
2992,-8.363514,-3.583252,4.085146,-0.111636,0.100945,0.11469,30.89,65.8210345610918
3002,-8.490931,-3.711268,4.121637,-0.111177,0.113621,0.104305,30.89,66.0212023687751
3012,-8.53161,-3.67059,4.094718,-0.113774,0.120951,0.098502,30.93,66.2085280775769
3022,-8.453244,-3.641278,4.063013,-0.117133,0.126144,0.085827,30.93,66.1817503562173
3032,-8.58126,-3.685545,4.058825,-0.121257,0.127976,0.070402,30.91,66.5102625003976
3042,-8.57827,-3.678965,4.042674,-0.127976,0.126144,0.057574,30.91,66.5817040119874
3052,-8.543573,-3.622135,3.995416,-0.135307,0.122478,0.042302,30.95,66.7054509195681
3062,-8.604589,-3.668795,3.993621,-0.144164,0.115301,0.023824,30.95,66.8805000387878
3072,-8.61835,-3.66042,3.970889,-0.154091,0.10568,0.009621,30.9,67.0190290098268
3082,-8.57827,-3.64068,3.937988,-0.16417,0.093768,-0.006414,30.9,67.0919406299591
3092,-8.609376,-3.654438,3.935595,-0.175013,0.078954,-0.021533,30.94,67.1791354846033
3102,-8.59442,-3.635296,3.906881,-0.184939,0.063072,-0.032376,30.94,67.2823760898274
3112,-8.555537,-3.638287,3.881158,-0.194713,0.044746,-0.041844,30.89,67.3412615377713
3122,-8.572288,-3.649653,3.875176,-0.20296,0.026114,-0.048106,30.89,67.4160573529228
3132,-8.52443,-3.632903,3.841677,-0.210138,0.005956,-0.051465,30.93,67.4817448142497
3142,-8.472386,-3.623332,3.805784,-0.214872,-0.012675,-0.049633,30.93,67.5586754166474
3152,-8.435897,-3.619742,3.789035,-0.217926,-0.048411,-0.033903,30.89,67.5710053076271
3162,-8.386844,-3.61376,3.783053,-0.216094,-0.065057,-0.020922,30.95,67.4981707500754
3172,-8.367103,-3.610171,3.781258,-0.212276,-0.080023,-0.004734,30.95,67.464353373585
3182,-8.338987,-3.606582,3.769294,-0.205403,-0.092393,0.015424,30.93,67.4679229286358
3192,-8.324032,-3.600002,3.763312,-0.196393,-0.104916,0.038179,30.93,67.4636313854118
3202,-8.31147,-3.586243,3.766901,-0.184634,-0.114537,0.062461,30.94,67.4062106087829
3212,-8.295319,-3.598207,3.764508,-0.17089,-0.123395,0.087354,30.94,67.3964962873906
3222,-8.28455,-3.579663,3.777071,-0.155312,-0.131641,0.113621,30.92,67.2897443295111
3232,-8.282756,-3.579065,3.781258,-0.138972,-0.138361,0.137903,30.92,67.2628643371411
3242,-8.292327,-3.571288,3.791427,-0.121868,-0.144011,0.162185,30.91,67.2208965161225
3252,-8.292327,-3.562913,3.807579,-0.104916,-0.149815,0.184023,30.91,67.1262955571989
3262,-8.321639,-3.550949,3.829114,-0.086896,-0.154396,0.204487,30.94,67.0609883173471
3272,-8.352745,-3.53061,3.855436,-0.071471,-0.157909,0.22098,30.94,66.9669068313375
3282,-8.391031,-3.526422,3.876971,-0.05681,-0.161727,0.233656,30.89,66.9283898357252
3292,-8.409575,-3.521038,3.902694,-0.043982,-0.164323,0.241903,30.89,66.8256645327911
3302,-8.438289,-3.51386,3.936791,-0.033598,-0.166461,0.24511,30.94,66.6989712643681
3313,-8.510672,-3.485744,3.995416,-0.021228,-0.167072,0.239765,30.94,66.5182659805687
3322,-8.532208,-3.47737,4.032505,-0.021228,-0.166155,0.228769,30.91,66.3625374180334
3332,-8.557332,-3.471387,4.066602,-0.021686,-0.16249,0.216704,30.95,66.2330256564786
3342,-8.573483,-3.471387,4.083352,-0.027031,-0.15852,0.200975,30.95,66.1803420725201
3352,-8.581859,-3.475575,4.118048,-0.035277,-0.152869,0.181885,30.93,66.0221933621501
3362,-8.603992,-3.47737,4.149154,-0.046578,-0.146608,0.16081,30.93,65.9105369208314
3372,-8.614162,-3.470191,4.170092,-0.059865,-0.139277,0.139125,30.9,65.8184514764065
3382,-8.606385,-3.464807,4.175476,-0.074678,-0.130267,0.115301,30.9,65.7695099619321
3392,-8.598608,-3.47737,4.197011,-0.092241,-0.120493,0.091019,30.91,65.6531885513324
3402,-8.592029,-3.485146,4.208975,-0.109956,-0.110261,0.069028,30.91,65.5844820351037
3412,-8.59143,-3.489932,4.213761,-0.12874,-0.097586,0.046884,30.9,65.5628626911746
3422,-8.577671,-3.491727,4.217948,-0.147829,-0.084452,0.025962,30.9,65.5132887182016
3432,-8.546564,-3.505485,4.222135,-0.166003,-0.069944,0.007789,30.88,65.4366320296981
3442,-8.516654,-3.521637,4.22094,-0.184023,-0.054978,-0.007789,30.88,65.3922437039058
3452,-8.501699,-3.525226,4.21077,-0.199142,-0.039248,-0.021533,30.93,65.4152530892118
3462,-8.48136,-3.534797,4.189234,-0.214108,-0.023366,-0.03207,30.93,65.4907061883113
3472,-8.458031,-3.547958,4.19402,-0.225867,-0.006109,-0.039706,30.91,65.4272071845009
3482,-8.419745,-3.554538,4.149154,-0.237016,0.011454,-0.04444,30.91,65.5824152138976
3492,-8.407183,-3.585046,4.134798,-0.244957,0.028253,-0.048717,30.9,65.6579084111026
3502,-8.391629,-3.602395,4.112664,-0.253967,0.060781,-0.048258,30.95,65.7556463653408
3512,-8.387442,-3.616751,4.096512,-0.255647,0.076511,-0.046578,30.95,65.8442347136999
3522,-8.398808,-3.625126,4.076771,-0.255342,0.090408,-0.044593,30.96,65.9794823245435
3532,-8.377273,-3.626921,4.054638,-0.252287,0.103694,-0.04215,30.96,66.0509523992804
3542,-8.386245,-3.634698,4.016353,-0.248469,0.11637,-0.038637,30.91,66.2781356718614
3552,-8.383853,-3.641876,4.000201,-0.242361,0.125686,-0.035888,30.91,66.3645816031611
3562,-8.400003,-3.648456,3.958327,-0.235641,0.133169,-0.032834,30.95,66.6250255699738
3572,-8.423933,-3.665804,3.939184,-0.228616,0.138514,-0.02978,30.95,66.7913834879804
3582,-8.434101,-3.669394,3.906881,-0.220217,0.139125,-0.027642,30.87,66.9859089246049
3592,-8.451449,-3.662215,3.881757,-0.211818,0.136681,-0.025504,30.87,67.1477175218886
3602,-8.476574,-3.688536,3.844069,-0.203265,0.130114,-0.024587,30.92,67.4209933715989
3612,-8.490333,-3.678965,3.812963,-0.194561,0.118508,-0.023518,30.92,67.6047886881989
3622,-8.505887,-3.677768,3.788436,-0.186008,0.103236,-0.023366,30.94,67.764658438783
3632,-8.533404,-3.67059,3.764508,-0.177456,0.084452,-0.021686,30.94,67.9397759507107
3642,-8.544769,-3.671786,3.736392,-0.170584,0.06185,-0.020769,30.93,68.1121676231151
3652,-8.558528,-3.667599,3.722036,-0.163559,0.03543,-0.019548,30.93,68.2116973687084
3662,-8.563912,-3.675974,3.694518,-0.157756,0.00672,-0.018173,30.89,68.3752336308536
3672,-8.556136,-3.674777,3.684947,-0.14676,-0.057574,-0.011606,30.89,68.4100769486724
3682,-8.53819,-3.667001,3.68375,-0.142942,-0.090713,-0.005956,30.91,68.3752060242323
3692,-8.526823,-3.662215,3.686144,-0.139125,-0.123242,0.001527,30.94,68.3363562132186
3702,-8.505887,-3.657429,3.697509,-0.136528,-0.155771,0.010996,30.94,68.230839874834
3712,-8.492725,-3.650251,3.7005,-0.13271,-0.184939,0.02306,30.91,68.1830012824497
3722,-8.465208,-3.64726,3.721437,-0.129503,-0.212734,0.038637,30.91,68.0142880510132
3732,-8.445468,-3.635894,3.731009,-0.127213,-0.237932,0.053451,30.97,67.9141287792311
3742,-8.418548,-3.63051,3.762115,-0.124311,-0.25916,0.072388,30.97,67.6891045848587
3752,-8.400003,-3.625126,3.78066,-0.121257,-0.277791,0.091324,30.9,67.547702107593
3762,-8.376674,-3.598207,3.82074,-0.118355,-0.292146,0.110567,30.9,67.2620004188239
3772,-8.368897,-3.611966,3.845266,-0.114843,-0.303295,0.130725,30.95,67.1271863391099
3782,-8.37129,-3.598207,3.877569,-0.111483,-0.310472,0.148135,30.95,66.9476812958606
3792,-8.35155,-3.602993,3.920042,-0.107818,-0.312763,0.167224,30.91,66.6848171204425
3802,-8.343175,-3.599404,3.953541,-0.104611,-0.311236,0.18326,30.91,66.4860904315379
3812,-8.352745,-3.588636,3.985246,-0.101556,-0.306196,0.197309,30.93,66.3287159209383
3822,-8.34796,-3.581457,4.014558,-0.096822,-0.296575,0.209221,30.93,66.1570930819521
3832,-8.346764,-3.563511,4.088138,-0.094531,-0.284358,0.220064,30.93,65.7507122395967
3842,-8.356933,-3.5671,4.10728,-0.091324,-0.250607,0.231671,30.93,65.67582463726
3852,-8.366504,-3.54736,4.134798,-0.084147,-0.230296,0.233351,30.93,65.5344747105287
3862,-8.377273,-3.553342,4.156931,-0.081856,-0.208458,0.232282,30.94,65.4481524392683
3872,-8.398808,-3.548556,4.171288,-0.079718,-0.185703,0.228311,30.94,65.416186093213
3882,-8.407183,-3.541976,4.187439,-0.078343,-0.162643,0.221439,30.98,65.3446038736861
3892,-8.42453,-3.540181,4.201797,-0.07758,-0.138972,0.212581,30.98,65.306611115207
3902,-8.429914,-3.528217,4.217948,-0.077885,-0.11469,0.201586,30.89,65.2238810053645
3912,-8.434101,-3.532404,4.22393,-0.07926,-0.090561,0.188605,30.89,65.2060467950725
3922,-8.441879,-3.526422,4.237689,-0.081092,-0.06689,0.17486,30.93,65.1466654724272
3932,-8.457432,-3.523431,4.241278,-0.085521,-0.043982,0.159741,30.93,65.1596746950069
3942,-8.465208,-3.517449,4.235895,-0.090866,-0.021686,0.144011,30.9,65.199026242589
3952,-8.462815,-3.516851,4.232305,-0.097586,0.000611,0.127671,30.9,65.211715876579
3962,-8.489736,-3.509673,4.235895,-0.10568,0.021686,0.110872,30.89,65.2457856340812
3972,-8.481958,-3.515655,4.228716,-0.116064,0.041081,0.094684,30.89,65.2711108988699
3982,-8.47119,-3.512664,4.228716,-0.126907,0.059254,0.077733,30.95,65.2447836560924
3992,-8.480762,-3.508476,4.213761,-0.138972,0.076358,0.062156,30.95,65.3390354899895
4002,-8.499905,-3.511467,4.17727,-0.152105,0.091935,0.046273,30.9,65.5717212532037
4012,-8.496913,-3.509074,4.166502,-0.164934,0.106443,0.018173,30.9,65.61873928535
4022,-8.505887,-3.526422,4.143172,-0.191048,0.130878,0.004581,30.91,65.7742799996838
4032,-8.497512,-3.535994,4.129414,-0.20296,0.140346,-0.007483,30.91,65.8360717554266
4042,-8.504092,-3.533002,4.101896,-0.214108,0.148135,-0.016341,30.91,65.9902301127092
4052,-8.510075,-3.540779,4.085745,-0.22434,0.155771,-0.025045,30.95,66.0937502079678
4062,-8.504092,-3.538985,4.053442,-0.232587,0.161268,-0.033903,30.95,66.2475518609928
4072,-8.509476,-3.549154,4.020541,-0.240223,0.165544,-0.041233,30.92,66.4394663257233
4082,-8.514261,-3.559922,3.996612,-0.246331,0.166155,-0.0478,30.92,66.5839356840497
4092,-8.514261,-3.576073,3.974478,-0.249997,0.165544,-0.05284,30.92,66.7138255612575
4102,-8.514859,-3.581457,3.942175,-0.251218,0.163406,-0.05681,30.92,66.88904493799
4112,-8.522038,-3.588636,3.912863,-0.251676,0.158825,-0.061697,30.93,67.0639457138662
4122,-8.519646,-3.595216,3.879364,-0.250149,0.150884,-0.063377,30.93,67.2409977673736
4132,-8.525029,-3.595814,3.853641,-0.246942,0.140041,-0.064752,30.95,67.3880778202948
4142,-8.523833,-3.608377,3.818945,-0.242361,0.126602,-0.065821,30.95,67.5796864944835
4152,-8.532208,-3.610171,3.778267,-0.234878,0.111636,-0.064599,30.9,67.8133944139544
4162,-8.514261,-3.61077,3.753741,-0.226631,0.092699,-0.063835,30.9,67.9084444438222
4172,-8.522038,-3.617948,3.732205,-0.216552,0.071929,-0.061239,30.93,68.0444885497951
4182,-8.504092,-3.6341,3.684947,-0.205556,0.048564,-0.056505,30.93,68.2748426966728
4192,-8.489137,-3.629314,3.671188,-0.181885,-0.002443,-0.041539,30.92,68.3151825007754
4202,-8.485548,-3.637091,3.667599,-0.169057,-0.030696,-0.032529,30.93,68.3339085087486
4212,-8.486146,-3.632903,3.66401,-0.155465,-0.059865,-0.021533,30.93,68.3508091888425
4222,-8.467602,-3.640081,3.655036,-0.14279,-0.089797,-0.008552,30.93,68.3687101394741
4232,-8.465208,-3.636492,3.652644,-0.130572,-0.119271,0.006109,30.93,68.3738575083967
4242,-8.453843,-3.6341,3.649055,-0.119577,-0.148746,0.020159,30.95,68.3688799532255
4252,-8.430512,-3.644269,3.663411,-0.108429,-0.177304,0.036194,30.95,68.2543880427326
4262,-8.445468,-3.63051,3.689733,-0.09896,-0.204945,0.054672,30.91,68.1307311605129
4272,-8.431709,-3.621537,3.705884,-0.091783,-0.230449,0.071166,30.91,68.0090543081226
4282,-8.426923,-3.617948,3.718446,-0.084605,-0.253967,0.08827,30.91,67.9290094325346
4292,-8.430512,-3.618546,3.77049,-0.079718,-0.273515,0.10568,30.91,67.6580800393137
4302,-8.432905,-3.608377,3.796811,-0.07758,-0.290925,0.122478,30.91,67.5136076136614
4312,-8.42812,-3.598805,3.841079,-0.076511,-0.305433,0.13607,30.91,67.2597613883346
4322,-8.433504,-3.610171,3.872185,-0.078343,-0.316581,0.146608,30.94,67.115638323764
4332,-8.443074,-3.592225,3.909872,-0.080481,-0.323148,0.158825,30.94,66.9201071571426
4342,-8.434101,-3.58744,3.952345,-0.085979,-0.326507,0.165697,30.91,66.6730153498814
4352,-8.445468,-3.585046,4.036094,-0.09331,-0.325286,0.169973,30.91,66.2549772784957
4362,-8.458628,-3.573082,4.086343,-0.110872,-0.314596,0.171959,30.93,66.0098772312477
4372,-8.446664,-3.573681,4.118048,-0.120951,-0.303142,0.170126,30.97,65.8198049886293
4382,-8.445468,-3.569493,4.144369,-0.130725,-0.288787,0.16585,30.97,65.676701607948
4392,-8.446067,-3.571288,4.157529,-0.14111,-0.27153,0.158978,30.93,65.6113922743757
4402,-8.446067,-3.567699,4.191627,-0.151036,-0.252593,0.151189,30.93,65.4316158516613
4412,-8.445468,-3.57069,4.200002,-0.159436,-0.231518,0.142942,30.93,65.3897914588271
4422,-8.44427,-3.559922,4.218546,-0.167072,-0.208305,0.133016,30.93,65.2815236679157
4432,-8.435298,-3.565306,4.231109,-0.173791,-0.184023,0.122937,30.96,65.202050495375
4442,-8.425727,-3.577868,4.225725,-0.178373,-0.158978,0.113621,30.96,65.22050038561
4452,-8.419147,-3.568895,4.246064,-0.180969,-0.133627,0.104,30.92,65.0927818213099
4462,-8.414959,-3.582056,4.238885,-0.182801,-0.107054,0.09499,30.92,65.1328822846659
4472,-8.411968,-3.591029,4.225127,-0.181274,-0.079412,0.087812,30.95,65.2057028449787
4482,-8.395817,-3.592823,4.211967,-0.179136,-0.054214,0.08094,30.95,65.2399688405246
4492,-8.400003,-3.594618,4.205386,-0.175624,-0.028711,0.074373,30.93,65.2848771832939
4502,-8.396414,-3.59043,4.192225,-0.169668,-0.003665,0.06857,30.93,65.3412544868442
4512,-8.391031,-3.602993,4.191029,-0.164628,0.020159,0.065821,30.92,65.3474531622609
4522,-8.382656,-3.60718,4.150351,-0.158672,0.043371,0.062766,30.92,65.5443437369169
4532,-8.373683,-3.602395,4.135396,-0.151647,0.083689,0.060018,30.93,65.5982521166713
4542,-8.379665,-3.622734,4.128217,-0.138972,0.102931,0.060323,30.91,65.6676444982944
4552,-8.389236,-3.608975,4.106682,-0.133932,0.119119,0.06017,30.91,65.7877941970142
4562,-8.397013,-3.605984,4.093522,-0.129198,0.134238,0.061239,30.92,65.8704650700519
4572,-8.405987,-3.613162,4.079762,-0.126296,0.146608,0.060934,30.92,65.9681888612067
4582,-8.413763,-3.602993,4.058227,-0.125227,0.157756,0.062614,30.89,66.0880541570761
4592,-8.427522,-3.601198,4.042076,-0.125686,0.165697,0.061545,30.89,66.2002040928865
4602,-8.447262,-3.607778,4.010969,-0.127365,0.171042,0.061239,30.91,66.4107428240776
4612,-8.454441,-3.614957,4.001996,-0.13042,0.173791,0.059712,30.91,66.4792706404431
4622,-8.474181,-3.620341,3.98405,-0.133627,0.174402,0.058185,30.89,66.6193408582448
4632,-8.497512,-3.595814,3.951746,-0.138666,0.171195,0.054825,30.89,66.8154910464502
4642,-8.516654,-3.596412,3.932604,-0.144775,0.164628,0.050549,30.92,66.9559522083484
4652,-8.529815,-3.595814,3.907479,-0.151342,0.156687,0.04612,30.92,67.1143400008845
4662,-8.550154,-3.599404,3.896712,-0.15913,0.14615,0.040317,30.92,67.215417088769
4672,-8.554939,-3.593421,3.878766,-0.16585,0.131794,0.033903,30.92,67.3142936063157
4682,-8.583653,-3.588636,3.847061,-0.172875,0.115301,0.025962,30.94,67.5348385151404
4692,-8.581859,-3.591627,3.805784,-0.180205,0.097128,0.018631,30.94,67.7511812788753
4702,-8.596813,-3.584448,3.794419,-0.186161,0.078038,0.00504,30.94,67.8349006294841
4712,-8.584252,-3.579065,3.784249,-0.197157,0.032681,-0.002138,30.9,67.8592256837097
4722,-8.584252,-3.584448,3.753741,-0.200211,0.007636,-0.008094,30.9,68.0250902723777
4732,-8.595617,-3.578466,3.744169,-0.202044,-0.017868,-0.012217,30.91,68.0932626852206
4742,-8.57827,-3.580261,3.736991,-0.201891,-0.04383,-0.014813,30.91,68.098658401958
4752,-8.566306,-3.575475,3.738786,-0.201891,-0.069944,-0.01741,30.9,68.0616065032057
4762,-8.558528,-3.577868,3.732205,-0.198837,-0.095142,-0.015882,30.9,68.0831958140622
4772,-8.536395,-3.563511,3.742374,-0.195477,-0.121409,-0.014203,30.91,67.9733968381427
4782,-8.522038,-3.565306,3.742973,-0.189826,-0.145539,-0.01069,30.91,67.943138799393
4792,-8.505887,-3.569493,3.74058,-0.184481,-0.167072,-0.004276,30.96,67.927203647116
4802,-8.484351,-3.558726,3.754937,-0.177456,-0.188299,0.003971,30.96,67.7984377422784
4812,-8.472386,-3.562315,3.777669,-0.169821,-0.206472,0.013897,30.89,67.6560758247796
4822,-8.443673,-3.552145,3.793222,-0.161879,-0.223577,0.023518,30.89,67.5061366333796
4832,-8.420941,-3.554538,3.805784,-0.153633,-0.237627,0.037415,30.94,67.3946522873522
4842,-8.415558,-3.547958,3.823731,-0.14447,-0.248775,0.051007,30.94,67.2820534408307
4852,-8.391031,-3.549752,3.845266,-0.135459,-0.257174,0.065057,30.94,67.1179695993545
4862,-8.36471,-3.540779,3.876373,-0.127518,-0.263588,0.079718,30.94,66.8891287196202
4872,-8.362316,-3.544369,3.929015,-0.12034,-0.265879,0.093921,30.89,66.606969768101
4882,-8.361719,-3.541976,3.955934,-0.107207,-0.262977,0.121409,30.89,66.4606516049623
4892,-8.343773,-3.538387,3.981657,-0.101709,-0.257938,0.133321,30.89,66.2827241138465
4902,-8.340781,-3.545565,4.006782,-0.097586,-0.249844,0.14447,30.94,66.1498392449408
4912,-8.353344,-3.543771,4.027121,-0.094073,-0.239765,0.153327,30.94,66.0678267089529
4922,-8.350353,-3.549154,4.052245,-0.092546,-0.227853,0.161727,30.95,65.933901252583
4932,-8.353942,-3.547958,4.073183,-0.091783,-0.215025,0.166461,30.95,65.8304528003741
4942,-8.379066,-3.552145,4.088736,-0.090866,-0.199753,0.169973,30.91,65.8071923770026
4952,-8.379066,-3.550351,4.103093,-0.091935,-0.184939,0.17089,30.91,65.7303788846421
4962,-8.4012,-3.564708,4.113262,-0.09331,-0.168293,0.169973,30.86,65.7384452264696
4972,-8.416155,-3.552145,4.130012,-0.095448,-0.1518,0.166155,30.86,65.672016695579
4982,-8.423334,-3.55394,4.140181,-0.099724,-0.136223,0.161727,30.94,65.6363144685853
4992,-8.434101,-3.568297,4.148556,-0.103694,-0.11973,0.155007,30.94,65.6292896270826
5002,-8.453244,-3.573082,4.15394,-0.108734,-0.104458,0.14676,30.93,65.6471496637534
5012,-8.470592,-3.580859,4.169494,-0.114537,-0.090103,0.136528,30.93,65.6112177285227
5022,-8.491529,-3.584448,4.165905,-0.121562,-0.076205,0.124769,30.94,65.6781129059526
5032,-8.510672,-3.589234,4.178466,-0.128587,-0.061545,0.112246,30.94,65.6588081504002
5042,-8.523234,-3.605984,4.192225,-0.13607,-0.047953,0.09896,30.93,65.6301604083388
5052,-8.53161,-3.604787,4.185047,-0.144622,-0.022449,0.069639,30.93,65.6838814472171
5062,-8.530412,-3.605984,4.18086,-0.160963,-0.010079,0.055131,30.89,65.7039158816869
5072,-8.541779,-3.622734,4.181458,-0.170431,0.002596,0.039706,30.89,65.7402231191807
5082,-8.530412,-3.62393,4.17069,-0.178831,0.015272,0.024893,30.89,65.7724127194105
5092,-8.535797,-3.624528,4.167699,-0.186772,0.0281,0.010843,30.89,65.7997868131792
5102,-8.535198,-3.636492,4.1671,-0.194561,0.040164,-0.003054,30.89,65.8124059910419
5112,-8.519047,-3.638885,4.143172,-0.200669,0.05284,-0.015424,30.87,65.9034499590933
5122,-8.518449,-3.643671,4.141378,-0.207083,0.064446,-0.028405,30.87,65.9157643541971
5132,-8.504689,-3.6341,4.107878,-0.211665,0.075595,-0.038179,30.89,66.0509962292967
5142,-8.501101,-3.639483,4.088736,-0.215635,0.085979,-0.048411,30.89,66.1474102144903
5152,-8.487941,-3.646662,4.064209,-0.218232,0.095295,-0.056352,30.93,66.2534877414753
5162,-8.470592,-3.646662,4.04746,-0.220064,0.102778,-0.063225,30.93,66.3041941670003
5172,-8.466404,-3.662215,4.018745,-0.221133,0.109192,-0.067959,30.92,66.459223929294
5182,-8.455637,-3.661617,3.994817,-0.219759,0.11301,-0.071166,30.92,66.5613157359145
5192,-8.444869,-3.651447,3.954738,-0.217315,0.114537,-0.071929,30.93,66.7400186779644
5202,-8.42812,-3.656831,3.92722,-0.214719,0.114232,-0.071013,30.93,66.8550359199756
5212,-8.422137,-3.659224,3.867998,-0.211207,0.110567,-0.069028,30.9,67.1579174837937
5222,-8.407183,-3.648456,3.830909,-0.205709,0.105832,-0.055741,30.9,67.3147577645272
5232,-8.380861,-3.652644,3.807579,-0.191506,0.087506,-0.045662,30.89,67.38915846959
5242,-8.377871,-3.646662,3.784249,-0.18387,0.074678,-0.03375,30.93,67.5025041769636
5252,-8.365308,-3.640081,3.765705,-0.175318,0.060323,-0.019853,30.93,67.5705422724882
5262,-8.368897,-3.634698,3.741179,-0.16585,0.044288,-0.002749,30.9,67.7048009344865
5272,-8.371889,-3.632903,3.732205,-0.156534,0.025809,0.01573,30.9,67.7575254227011
5282,-8.377871,-3.638287,3.720839,-0.147219,0.006567,0.034819,30.91,67.8354231069619
5292,-8.364112,-3.628117,3.711866,-0.137292,-0.014508,0.053603,30.91,67.8471843984699
5302,-8.380263,-3.614359,3.714857,-0.127671,-0.035125,0.075595,30.94,67.8516035900275
5314,-8.38445,-3.597609,3.716652,-0.118508,-0.057269,0.094837,30.94,67.8358544772461
5322,-8.39821,-3.595814,3.728018,-0.10965,-0.079871,0.114843,30.92,67.8008881638604
5332,-8.413164,-3.581457,3.732205,-0.102625,-0.101862,0.134085,30.92,67.7961875231013
5342,-8.437093,-3.579663,3.756732,-0.096364,-0.1237,0.150578,30.91,67.7114397341782
5352,-8.442476,-3.568895,3.775276,-0.089492,-0.143401,0.167072,30.91,67.6139254444055
5362,-8.475378,-3.562913,3.80399,-0.085521,-0.162185,0.180663,30.89,67.5224308756771
5372,-8.474181,-3.546163,3.820141,-0.081551,-0.180053,0.192575,30.89,67.4197884098686
5382,-8.489137,-3.543771,3.858427,-0.079412,-0.196393,0.20128,30.92,67.2451431026958
5392,-8.52144,-3.540181,3.915854,-0.078496,-0.209069,0.207694,30.92,67.0053238503781
5402,-8.522038,-3.521637,3.94397,-0.080634,-0.228769,0.211207,30.94,66.8428518990007
5412,-8.660224,-3.49053,3.921836,-0.081551,-0.236558,0.205403,30.93,67.2164855864445
5422,-8.814561,-3.442674,3.844668,-0.072235,-0.252898,0.176082,30.93,67.8888800338335
5432,-8.563314,-3.504887,4.0008,-0.055436,-0.268933,0.131336,30.91,66.6169551916736
5442,-8.483154,-3.531806,4.065406,-0.053603,-0.268628,0.113926,30.91,66.1343774266066
5452,-8.438888,-3.52702,4.115057,-0.058032,-0.25977,0.110108,30.93,65.7762945757638
5462,-8.440084,-3.531806,4.125825,-0.06521,-0.246637,0.106749,30.93,65.7271449954964
5472,-8.44427,-3.528815,4.150351,-0.070402,-0.230449,0.101098,30.95,65.6060163315856
5482,-8.421539,-3.531208,4.171886,-0.076358,-0.213345,0.094531,30.95,65.4468457959125
5492,-8.419745,-3.547958,4.186243,-0.082772,-0.193492,0.088117,30.91,65.383855941898
5502,-8.426325,-3.544369,4.188038,-0.089186,-0.172722,0.079107,30.91,65.3856459036355
5512,-8.417352,-3.544966,4.19402,-0.094684,-0.1518,0.069791,30.95,65.3355541879379
5522,-8.410173,-3.553342,4.214957,-0.100335,-0.128434,0.059712,30.95,65.2191584099598
5532,-8.405388,-3.559324,4.219144,-0.104763,-0.105832,0.051465,30.9,65.1925393688215
5542,-8.404191,-3.574279,4.202394,-0.109956,-0.083078,0.040775,30.9,65.2905287080583
5552,-8.415558,-3.583252,4.204189,-0.114537,-0.06017,0.030238,30.89,65.314492045783
5562,-8.405388,-3.584448,4.186243,-0.118202,-0.039248,0.02138,30.89,65.3862860855382
5572,-8.399406,-3.58744,4.179663,-0.121409,0.000458,0.004123,30.89,65.4101284270277
5582,-8.417352,-3.6006,4.156931,-0.127976,0.017868,-0.003818,30.93,65.5793119660559
5592,-8.442476,-3.586243,4.089334,-0.128587,0.035583,-0.011454,30.93,65.9716963405387
5602,-8.589037,-3.519244,3.893123,-0.118202,0.057879,-0.027336,30.91,67.2456309910815
5612,-8.502296,-3.540181,3.960122,-0.086743,0.090103,-0.06017,30.91,66.7329624106908
5622,-8.407781,-3.610171,4.070789,-0.068417,0.115759,-0.078038,30.94,66.0161644957714
5632,-8.416754,-3.611966,4.079165,-0.066584,0.129351,-0.079107,30.94,65.9932297180768
5642,-8.41436,-3.63051,4.060022,-0.067348,0.139888,-0.078191,30.92,66.1051229545564
5652,-8.436494,-3.63051,4.045067,-0.06857,0.148135,-0.076816,30.92,66.2301925964113
5662,-8.455637,-3.620939,4.030112,-0.068875,0.152564,-0.075442,30.9,66.3400482145062
5672,-8.465807,-3.631108,4.001996,-0.068875,0.154702,-0.075442,30.9,66.5175332330836
5682,-8.502296,-3.631108,3.972684,-0.067042,0.156382,-0.077274,30.91,66.7467220178286
5692,-8.486743,-3.626921,3.951746,-0.06521,0.155618,-0.080023,30.91,66.8205764309615
5702,-8.505887,-3.627519,3.93739,-0.062766,0.153327,-0.081551,30.89,66.93584524874
5712,-8.495717,-3.655635,3.934398,-0.060323,0.149204,-0.082772,30.89,66.9553857142285
5722,-8.510075,-3.662813,3.925426,-0.058338,0.143706,-0.083078,30.93,67.0381189730949
5732,-8.49452,-3.672983,3.90389,-0.057269,0.135765,-0.083536,30.93,67.1284138906911
5742,-8.498111,-3.68375,3.894319,-0.056352,0.126144,-0.080787,30.95,67.1954858570507
5752,-8.516654,-3.684947,3.882355,-0.055589,0.103694,-0.080176,30.91,67.2969208486022
5762,-8.496913,-3.686741,3.874578,-0.054672,0.090408,-0.078649,30.91,67.2995378120133
5772,-8.484351,-3.681956,3.865007,-0.052229,0.076511,-0.076664,30.91,67.3203854718121
5782,-8.479566,-3.686741,3.851846,-0.049633,0.063377,-0.073915,30.91,67.3843713798739
5792,-8.482555,-3.683152,3.849453,-0.04612,0.048717,-0.068264,30.89,67.3998907315471
5802,-8.460423,-3.684349,3.841079,-0.04215,0.034056,-0.062156,30.89,67.4005478635838
5812,-8.451449,-3.671188,3.827918,-0.037568,0.020006,-0.055131,30.92,67.4405763371361
5822,-8.444869,-3.677768,3.811168,-0.032681,0.004429,-0.046426,30.92,67.5219669478238
5832,-8.436494,-3.673581,3.809374,-0.027642,-0.010079,-0.036346,30.92,67.5109371816596
5842,-8.408379,-3.654438,3.809374,-0.021686,-0.023824,-0.024587,30.92,67.4371686876094
5852,-8.392226,-3.651447,3.814758,-0.014661,-0.037568,-0.010385,30.9,67.3729509823339
5862,-8.39462,-3.648456,3.824329,-0.008399,-0.050855,0.00504,30.9,67.3241539041487
5872,-8.367103,-3.649055,3.828516,-0.001985,-0.063683,0.02138,30.92,67.246025735973
5882,-8.36112,-3.638287,3.831507,0.004429,-0.0759,0.037721,30.92,67.2081224183108
5892,-8.355139,-3.620939,3.843472,0.009774,-0.08659,0.054367,30.93,67.116341495666
5902,-8.352147,-3.623332,3.874578,0.014813,-0.095142,0.072693,30.93,66.9463538801429
5912,-8.35813,-3.597011,3.893721,0.019395,-0.103542,0.090255,30.89,66.833168745472
5922,-8.365308,-3.585046,3.901497,0.025809,-0.115759,0.121715,30.91,66.7960692806153
5932,-8.374879,-3.577868,3.933203,0.027642,-0.118966,0.135918,30.91,66.6413567669113
5942,-8.383853,-3.556333,3.958327,0.027489,-0.120951,0.147524,30.9,66.5078658750666
5952,-8.399406,-3.559922,3.982255,0.02642,-0.121257,0.156687,30.9,66.417620055684
5962,-8.429317,-3.546163,3.99721,0.023824,-0.120493,0.163712,30.92,66.3899293643052
5972,-8.425129,-3.539583,4.015755,0.020311,-0.118202,0.16921,30.92,66.2776538865627
5982,-8.445468,-3.531806,4.031906,0.015119,-0.114232,0.171042,30.89,66.229255719294
5992,-8.467003,-3.530011,4.057629,0.009774,-0.110108,0.170737,30.89,66.1389512033912
6002,-8.493324,-3.521637,4.069593,0.002749,-0.104611,0.16753,30.91,66.1252156445402
6012,-8.491529,-3.52702,4.08754,-0.004887,-0.09728,0.163101,30.91,66.0327040275981
6022,-8.509476,-3.503092,4.095316,-0.012065,-0.090408,0.156229,30.93,66.0094799562557
6032,-8.517252,-3.504887,4.10728,-0.020159,-0.08262,0.147066,30.93,65.9655670116212
6042,-8.529815,-3.510271,4.111467,-0.028558,-0.074373,0.136528,30.93,65.9754517258278
6052,-8.529815,-3.515056,4.11386,-0.035277,-0.065821,0.124922,30.93,65.9672618717432
6062,-8.532208,-3.501298,4.125825,-0.043219,-0.058796,0.112552,30.95,65.8983182421756
6072,-8.533404,-3.515056,4.119842,-0.049175,-0.049786,0.099418,30.95,65.9439508709194
6082,-8.531011,-3.518646,4.103691,-0.055131,-0.041233,0.08491,30.91,66.0256672512809
6092,-8.532805,-3.516253,4.111467,-0.065057,-0.024587,0.055131,30.91,65.9870941626559
6102,-8.510672,-3.524628,4.102495,-0.069028,-0.016646,0.039706,30.94,65.9937550888681
6112,-8.517851,-3.528815,4.099504,-0.071929,-0.008094,0.025809,30.93,66.0282937330381
6122,-8.510075,-3.536592,4.089334,-0.073915,-0.000458,0.012217,30.93,66.0714020446334
6132,-8.489137,-3.540181,4.076771,-0.075747,0.007789,0.000305,30.9,66.0953353928052
6142,-8.496913,-3.538985,4.079165,-0.076816,0.015882,-0.01237,30.9,66.098370936602
6152,-8.484949,-3.551547,4.067799,-0.077427,0.023824,-0.024893,30.95,66.1432568550283
6162,-8.474181,-3.557529,4.065406,-0.078343,0.031154,-0.034819,30.95,66.1381677142653
6172,-8.465208,-3.556931,4.060022,-0.078954,0.039401,-0.044288,30.91,66.1466336009755
6182,-8.466404,-3.566502,4.049852,-0.07926,0.046731,-0.052993,30.91,66.2108237163403
6192,-8.465208,-3.574279,4.036094,-0.081092,0.052993,-0.060934,30.94,66.2871152791054
6202,-8.466404,-3.574279,4.03071,-0.081551,0.058643,-0.067653,30.94,66.3177901877737
6212,-8.451449,-3.583252,4.019942,-0.083536,0.063683,-0.073304,30.87,66.3505701198649
6222,-8.449057,-3.583252,4.002594,-0.085521,0.067501,-0.079107,30.87,66.436451802261
6232,-8.475378,-3.588636,3.988835,-0.088728,0.06857,-0.083841,30.93,66.5686232687034
6242,-8.469995,-3.591029,3.981657,-0.092241,0.069028,-0.086896,30.93,66.597123346299
6252,-8.467003,-3.592225,3.960122,-0.095295,0.067806,-0.088728,30.9,66.7050044023449
6262,-8.475977,-3.600002,3.930809,-0.100182,0.058643,-0.091935,30.9,66.8846398054907
6272,-8.490333,-3.601198,3.9338,-0.109192,0.052229,-0.093157,30.89,66.8996148321647
6282,-8.487941,-3.600002,3.918845,-0.113774,0.043982,-0.092393,30.91,66.972298612595
6292,-8.498111,-3.611368,3.903292,-0.118508,0.033903,-0.092241,30.91,67.0849674186805
6302,-8.499306,-3.617948,3.882953,-0.122478,0.022755,-0.091172,30.89,67.2002701936468
6312,-8.498708,-3.619742,3.886542,-0.126449,0.01069,-0.087812,30.89,67.1816927551338
6322,-8.489137,-3.620341,3.879962,-0.129962,-0.001374,-0.083689,30.94,67.1973830295438
6332,-8.490333,-3.620939,3.869194,-0.132863,-0.015424,-0.078802,30.94,67.2571710204634
6342,-8.484351,-3.621537,3.859025,-0.134696,-0.027642,-0.072846,30.94,67.2992392150816
6352,-8.469396,-3.615555,3.866203,-0.134238,-0.041386,-0.065668,30.94,67.2256006583209
6362,-8.459227,-3.629314,3.863212,-0.134696,-0.054367,-0.057879,30.89,67.2326855631098
6372,-8.445468,-3.631706,3.86381,-0.133016,-0.066126,-0.048258,30.89,67.2035069740677
6382,-8.428718,-3.625126,3.862614,-0.130114,-0.076816,-0.037263,30.9,67.1697421117216
6392,-8.42812,-3.626323,3.859025,-0.126296,-0.086896,-0.025962,30.9,67.1886123687032
6402,-8.415558,-3.617948,3.844069,-0.120646,-0.096211,-0.014813,30.91,67.2349218827952
6412,-8.4012,-3.625725,3.859025,-0.112399,-0.101404,-0.002596,30.91,67.1327826159903
6422,-8.389236,-3.616153,3.891328,-0.102778,-0.106901,0.008552,30.96,66.9279045296073
6432,-8.36112,-3.629912,3.906881,-0.094531,-0.109345,0.036041,30.96,66.7991771880474
6442,-8.355738,-3.634698,3.918247,-0.078343,-0.11469,0.051313,30.93,66.7319390713562
6452,-8.350951,-3.634698,3.942773,-0.070708,-0.114995,0.065821,30.93,66.5918512752044
6462,-8.34138,-3.635894,3.943372,-0.062308,-0.113621,0.081092,30.93,66.569631149719
6472,-8.353942,-3.631108,3.954738,-0.054672,-0.11133,0.094226,30.96,66.5315030267156
6482,-8.34138,-3.633501,3.976273,-0.047189,-0.107818,0.107054,30.96,66.3932414028121
6492,-8.341978,-3.628716,3.988835,-0.040164,-0.10232,0.117744,30.91,66.3237006766204
6502,-8.349156,-3.62393,4.011567,-0.034208,-0.095448,0.128434,30.91,66.2145942671407
6512,-8.352147,-3.621537,4.030112,-0.028863,-0.086437,0.136528,30.95,66.121089775815
6522,-8.367103,-3.61735,4.042674,-0.025656,-0.078038,0.143248,30.95,66.0831429307335
6532,-8.365907,-3.60718,4.051049,-0.022144,-0.06857,0.148593,30.89,66.0271985813834
6542,-8.383254,-3.614957,4.064807,-0.021991,-0.057879,0.152564,30.89,65.9994035853611
6552,-8.408379,-3.614359,4.073781,-0.021838,-0.047189,0.155465,30.92,66.005650324802
6562,-8.41436,-3.603591,4.08395,-0.022602,-0.035888,0.155923,30.92,65.9554517878203
6572,-8.417352,-3.608377,4.086941,-0.026267,-0.025198,0.154549,30.95,65.9506361357148
6582,-8.443074,-3.604189,4.098905,-0.029932,-0.015272,0.152564,30.95,65.9394707471587
6592,-8.754739,-3.523431,3.968496,-0.032834,-0.008247,0.143553,30.9,67.1923719692867
6602,-8.460423,-3.6006,4.1007,-0.022907,-0.011606,0.103542,30.9,65.9639082712124
6612,-8.457432,-3.597011,4.089334,-0.032376,0.002902,0.090866,30.91,66.013388436825
6622,-8.478967,-3.595216,4.088736,-0.040164,0.009774,0.089186,30.95,66.0606915804565
6632,-8.599206,-3.580261,4.015755,-0.045662,0.016035,0.082925,30.95,66.6782689230299
6642,-8.569296,-3.586243,4.024727,-0.042302,0.017104,0.059712,30.97,66.5749602197046
6652,-8.490931,-3.605386,4.049254,-0.043371,0.019853,0.043982,30.97,66.3005068445969
6662,-8.520842,-3.610171,4.038486,-0.048564,0.022144,0.038485,30.91,66.4235256549272
6672,-8.556733,-3.585046,3.956532,-0.050549,0.025504,0.029474,30.91,66.9032207162085
6682,-8.53161,-3.589234,3.997808,-0.045357,0.034819,0.014966,30.87,66.6394331020608
6692,-8.52144,-3.596412,4.004987,-0.044593,0.042913,0.005345,30.87,66.5871265333158
6702,-8.538787,-3.574279,3.986442,-0.045051,0.046884,-0.002291,30.93,66.7006242576168
6712,-8.536395,-3.579663,3.979264,-0.044746,0.050855,-0.012065,30.93,66.7378310041224
6722,-8.544769,-3.599404,3.97388,-0.044288,0.052534,-0.020922,30.9,66.8003998732147
6732,-8.53819,-3.591627,3.976273,-0.045815,0.052229,-0.028711,30.9,66.7675646856801
6742,-8.53819,-3.602993,3.964309,-0.046273,0.05116,-0.038179,30.94,66.8399527328816
6752,-8.547162,-3.596412,3.967898,-0.046884,0.04948,-0.047037,30.94,66.8339708233158
6762,-8.548359,-3.58744,3.952345,-0.0478,0.045968,-0.057116,30.93,66.9099583148037
6772,-8.542974,-3.602395,3.954738,-0.047953,0.041539,-0.068111,30.93,66.8993074694766
6782,-8.526226,-3.608377,3.934398,-0.047953,0.032223,-0.083841,30.94,66.9765929784104
6792,-8.507083,-3.610171,3.937988,-0.048258,0.026725,-0.091019,30.89,66.9199915078487
6802,-8.497512,-3.606582,3.926024,-0.048717,0.021075,-0.098044,30.89,66.9599896782858
6812,-8.489137,-3.608975,3.926024,-0.048869,0.015119,-0.101404,30.95,66.9448404163994
6822,-8.474181,-3.619742,3.926024,-0.048258,0.009621,-0.104611,30.95,66.9234743533316
6832,-8.455637,-3.602395,3.912265,-0.047495,0.002902,-0.105374,30.92,66.9424285773909
6842,-8.434101,-3.591627,3.905685,-0.045968,-0.003207,-0.104153,30.92,66.9231174098273
6852,-8.429914,-3.598207,3.901497,-0.04444,-0.009774,-0.101709,30.94,66.9424126071053
6862,-8.420342,-3.591029,3.888935,-0.041997,-0.015424,-0.0956,30.94,66.9827780446415
6872,-8.397612,-3.598207,3.890131,-0.039859,-0.021838,-0.087812,30.91,66.9356372765114
6882,-8.391031,-3.592823,3.886542,-0.037568,-0.027947,-0.078191,30.91,66.9362245192163
6892,-8.364112,-3.586841,3.881158,-0.035736,-0.034056,-0.067195,30.9,66.9034319520289
6902,-8.374879,-3.580859,3.882953,-0.032529,-0.039401,-0.053145,30.9,66.9110001140364
6912,-8.356335,-3.580859,3.894917,-0.028558,-0.045204,-0.036805,30.89,66.8085146638974
6922,-8.332406,-3.576672,3.891926,-0.025198,-0.05116,-0.020617,30.89,66.7704179253449
6932,-8.347363,-3.570091,3.89073,-0.021838,-0.056505,-0.002443,30.93,66.8023177167089
6942,-8.356933,-3.574279,3.904488,-0.018631,-0.06185,0.013744,30.93,66.7529068458778
6952,-8.348558,-3.56411,3.91406,-0.01573,-0.067042,0.047342,30.96,66.6751726800716
6962,-8.367103,-3.558726,3.917051,-0.009927,-0.076053,0.063988,30.91,66.6935346624703
6972,-8.363514,-3.562913,3.9338,-0.007636,-0.07926,0.07926,30.91,66.600754530083
6982,-8.395817,-3.559324,3.955336,-0.006261,-0.081551,0.09163,30.94,66.5516691264593
6992,-8.395817,-3.557529,3.976871,-0.004429,-0.082467,0.102625,30.94,66.4362740314509
7002,-8.404191,-3.559324,3.994817,-0.004123,-0.082467,0.112246,30.93,66.3610100435264
7012,-8.421539,-3.56052,4.007978,-0.005192,-0.081856,0.118813,30.93,66.329652914053
7022,-8.42812,-3.556931,4.027121,-0.006109,-0.078954,0.123395,30.88,66.2398879120644
7032,-8.441879,-3.549752,4.044468,-0.007636,-0.074678,0.125075,30.88,66.1718348119928
7042,-8.456833,-3.552743,4.063013,-0.010996,-0.07086,0.125075,30.94,66.1094316719663
7052,-8.461619,-3.562315,4.078567,-0.01573,-0.064141,0.121562,30.94,66.0470842539439
7062,-8.478967,-3.554538,4.102495,-0.020769,-0.055894,0.116675,30.93,65.9526302572102
7072,-8.490333,-3.556333,4.095914,-0.025351,-0.045968,0.10965,30.93,66.012706777247
7082,-8.491529,-3.565904,4.110869,-0.031918,-0.036194,0.10064,30.9,65.946182427189
7092,-8.503493,-3.552743,4.128217,-0.038332,-0.025045,0.091783,30.9,65.8700606743794
7102,-8.491529,-3.561118,4.135396,-0.044288,-0.012065,0.082467,30.89,65.8147665397748
7112,-8.487941,-3.574279,4.131807,-0.051771,0,0.070402,30.89,65.8375149330244
7122,-8.487941,-3.579663,4.122834,-0.058338,0.012981,0.058032,30.91,65.8888513244304
7132,-8.495118,-3.579065,4.119842,-0.071624,0.039095,0.036499,30.93,65.9191403950101
7142,-8.484949,-3.580859,4.110271,-0.07758,0.049786,0.025504,30.93,65.9486781287233
7152,-8.476574,-3.58744,4.1007,-0.08323,0.061087,0.01573,30.91,65.9864341023485
7162,-8.479566,-3.597609,4.088138,-0.087812,0.070555,0.005956,30.91,66.0672268091815
7172,-8.478967,-3.591627,4.070191,-0.091477,0.078802,-0.002291,30.91,66.1539188459813
7182,-8.484351,-3.603591,4.04387,-0.094837,0.085368,-0.00901,30.91,66.3131066897394
7192,-8.480165,-3.606582,4.029513,-0.097433,0.090561,-0.014203,30.95,66.3818647679195
7202,-8.479566,-3.611368,4.010969,-0.099418,0.094073,-0.018784,30.95,66.4817368391705
7212,-8.474181,-3.614957,3.983452,-0.100945,0.09499,-0.022602,30.94,66.6176856293993
7222,-8.474181,-3.619742,3.965506,-0.100793,0.093615,-0.025198,30.94,66.7160222378748
7232,-8.492725,-3.620341,3.940381,-0.100487,0.090408,-0.026267,30.95,66.8867680993751
7242,-8.474181,-3.615555,3.921238,-0.100335,0.085827,-0.027489,30.95,66.9449820969379
7252,-8.502895,-3.625725,3.898506,-0.099113,0.078649,-0.027489,30.93,67.1324375736303
7262,-8.502296,-3.620939,3.893721,-0.096975,0.069791,-0.027336,30.93,67.152238875711
7272,-8.500502,-3.626323,3.872783,-0.096211,0.059865,-0.02642,30.93,67.2635908783115
7282,-8.522038,-3.628716,3.865605,-0.09499,0.047037,-0.02474,30.93,67.3471644884557
7292,-8.523833,-3.635296,3.850052,-0.093004,0.034361,-0.023824,30.93,67.438422429598
7302,-8.827123,-3.36371,3.531208,-0.091477,0.004581,-0.025198,30.93,69.5032997854672
7315,-8.697312,-3.457031,3.721437,-0.043371,0.009163,-0.075747,30.91,68.3160369060685
7322,-8.430512,-3.65384,3.827918,-0.02138,0.002902,-0.096975,30.89,67.3829123919189
7332,-8.493324,-3.644269,3.848257,-0.020769,-0.010996,-0.08659,30.89,67.3940652344814
7342,-8.457432,-3.622734,3.851846,-0.021228,-0.025045,-0.078649,30.93,67.2834571278058
7352,-8.495717,-3.635296,3.853043,-0.021533,-0.038943,-0.072998,30.93,67.3658449007032
7362,-8.481958,-3.655036,3.858427,-0.021991,-0.053756,-0.06521,30.94,67.3267070717478
7372,-8.471789,-3.636492,3.858427,-0.022602,-0.067042,-0.05849,30.94,67.2898717127315
7382,-8.479566,-3.641278,3.866203,-0.022449,-0.080634,-0.051924,30.94,67.2687683679985
7392,-8.469396,-3.646064,3.874578,-0.022755,-0.092852,-0.04612,30.94,67.2080217787371
7402,-8.47119,-3.629314,3.899105,-0.023213,-0.104,-0.039248,30.91,67.0675486641703
7412,-8.460423,-3.635296,3.896712,-0.024893,-0.113621,-0.035736,30.91,67.0633512466097
7422,-8.462815,-3.620341,3.918845,-0.025198,-0.12202,-0.028711,30.93,66.9383673256087
7432,-8.430512,-3.629314,3.927818,-0.026573,-0.129198,-0.023671,30.93,66.8322079688809
7442,-8.449057,-3.628716,3.952943,-0.027642,-0.132558,-0.017715,30.93,66.7378173777931
7452,-8.425727,-3.620939,3.958327,-0.027184,-0.135001,-0.011912,30.93,66.6539299409419
7462,-8.423933,-3.61077,3.994219,-0.027336,-0.136223,-0.006109,30.89,66.4522243562989
7472,-8.417951,-3.61735,4.003192,-0.026878,-0.135001,0.00672,30.89,66.3984437514216
7482,-8.387442,-3.616153,4.013362,-0.026725,-0.127671,0.012981,30.91,66.2793992416756
7492,-8.382656,-3.609573,4.022335,-0.025351,-0.12202,0.019853,30.9,66.2160331707628
7502,-8.375478,-3.59402,4.0337,-0.024587,-0.114537,0.026573,30.9,66.1267194462638
7512,-8.349156,-3.601198,4.028915,-0.022907,-0.105832,0.034208,30.89,66.1021653608944
7522,-8.350951,-3.586841,4.048656,-0.021838,-0.0956,0.041081,30.89,65.9888360491449
7532,-8.341978,-3.589234,4.054638,-0.020006,-0.085216,0.050244,30.89,65.9402463744271
7542,-8.330612,-3.583252,4.061816,-0.018937,-0.07422,0.05849,30.89,65.8723518523383
7552,-8.332406,-3.575475,4.058825,-0.016952,-0.061697,0.067348,30.91,65.8847442040602
7562,-8.333604,-3.578466,4.069593,-0.016341,-0.049633,0.074984,30.91,65.8334670467115
7572,-8.340183,-3.571288,4.065406,-0.014355,-0.037721,0.083078,30.92,65.8630740666972
7582,-8.340183,-3.576073,4.057031,-0.013134,-0.025351,0.089644,30.92,65.9115697454153
7592,-8.360522,-3.569493,4.077968,-0.012981,-0.013592,0.097433,30.94,65.8394677570633
7602,-8.359925,-3.563511,4.074977,-0.012981,-0.002443,0.102778,30.94,65.8483473830666
7612,-8.374281,-3.574877,4.063013,-0.011912,0.009163,0.10797,30.93,65.9526106922403
7622,-8.376674,-3.566502,4.069593,-0.01237,0.019853,0.112094,30.93,65.9155512200349
7632,-8.385648,-3.552145,4.067799,-0.012981,0.030085,0.116064,30.91,65.93116690541
7642,-8.418548,-3.552145,4.076173,-0.014813,0.038026,0.117286,30.91,65.9581546782625
7652,-8.446664,-3.555735,4.070191,-0.018479,0.056352,0.118813,30.95,66.0529253048906
7662,-8.455637,-3.547958,4.063013,-0.021075,0.063988,0.115301,30.89,66.1025948590085
7672,-8.469995,-3.551547,4.071388,-0.023976,0.070402,0.112399,30.89,66.0927229822085
7682,-8.487342,-3.557529,4.056432,-0.027336,0.077427,0.107818,30.94,66.212893055277
7692,-8.510672,-3.559324,4.056432,-0.030849,0.082314,0.102014,30.94,66.2638323401115
7702,-8.508877,-3.558726,4.055834,-0.034819,0.087048,0.095295,30.91,66.2626265081901
7712,-8.526226,-3.562315,4.051049,-0.039554,0.090713,0.084605,30.91,66.3272555843535
7722,-8.53819,-3.552743,4.042674,-0.043219,0.094226,0.074373,30.95,66.3875719716047
7732,-8.566903,-3.56052,4.037888,-0.048869,0.096364,0.062614,30.95,66.4793127828693
7742,-8.557332,-3.564708,4.031906,-0.053451,0.097738,0.05116,30.93,66.4940522610487
7752,-8.574679,-3.56411,4.015755,-0.059712,0.097891,0.037568,30.93,66.6135872790535
7762,-8.587242,-3.56411,4.012166,-0.064599,0.097128,0.024129,30.91,66.6582829383541
7772,-8.586046,-3.576073,3.995416,-0.069791,0.094837,0.009316,30.91,66.7531527849007
7782,-8.583653,-3.583252,3.99063,-0.075136,0.092088,-0.004429,30.92,66.7792841694301
7792,-8.583653,-3.582056,3.976871,-0.080634,0.088117,-0.018173,30.92,66.8498745714242
7802,-8.586046,-3.578466,3.954139,-0.085216,0.082925,-0.030238,30.92,66.9702011522304
7812,-8.569296,-3.580261,3.936193,-0.090103,0.0759,-0.04383,30.92,67.0312000717952
7822,-8.574679,-3.588636,3.918247,-0.098655,0.05849,-0.067653,30.93,67.1432196460907
7832,-8.574679,-3.597011,3.89731,-0.102473,0.048717,-0.076664,30.94,67.260002434685
7842,-8.556733,-3.588037,3.89073,-0.105985,0.037263,-0.084605,30.94,67.2504906218972
7852,-8.545966,-3.579663,3.869792,-0.109039,0.025962,-0.090408,30.91,67.3316173794502
7862,-8.541779,-3.582056,3.853641,-0.111025,0.012828,-0.095142,30.91,67.4102701569183
7872,-8.528021,-3.593421,3.848257,-0.112705,-0.00168,-0.098655,30.94,67.4205075591309
7882,-8.511868,-3.59402,3.838088,-0.113774,-0.01741,-0.100335,30.94,67.4420645819707
7892,-8.505887,-3.591029,3.824927,-0.114537,-0.032376,-0.098502,30.91,67.4970686256282
7902,-8.492128,-3.591627,3.82732,-0.113926,-0.048258,-0.0956,30.91,67.4570524003431
7912,-8.467003,-3.59402,3.812365,-0.113468,-0.063835,-0.092088,30.93,67.4875572177818
7922,-8.476574,-3.58744,3.828516,-0.112399,-0.079718,-0.085368,30.93,67.4155454665931
7932,-8.46102,-3.598207,3.821338,-0.111025,-0.094837,-0.077885,30.9,67.4313324029286
7942,-8.449057,-3.596412,3.819543,-0.109345,-0.10965,-0.068875,30.9,67.414988450469
7952,-8.437093,-3.582056,3.829713,-0.106749,-0.123242,-0.057116,30.89,67.323999020493
7962,-8.432905,-3.601198,3.835097,-0.104611,-0.137139,-0.045204,30.89,67.303464312143
7972,-8.423334,-3.586841,3.84048,-0.10064,-0.149051,-0.032529,30.91,67.2426596662015
7982,-8.404191,-3.589234,3.869194,-0.097738,-0.159283,-0.01909,30.91,67.0525541568609
7992,-8.389835,-3.594618,3.890131,-0.09331,-0.176235,0.008399,30.93,66.916267409293
8002,-8.509476,-3.491727,3.77049,-0.084147,-0.181122,0.021075,30.93,67.7100665887699
8012,-8.427522,-3.533601,3.902694,-0.064446,-0.173028,0.013744,30.93,66.8742405506626
8022,-8.36112,-3.601198,3.942175,-0.055283,-0.171806,0.018173,30.91,66.5858917660982
8032,-8.361719,-3.601796,3.958327,-0.051618,-0.169973,0.033139,30.91,66.5021538688118
8042,-8.352147,-3.589234,3.979862,-0.0478,-0.167072,0.047342,30.95,66.3564593495798
8052,-8.36112,-3.604189,3.999603,-0.043677,-0.162337,0.058643,30.95,66.2849743192784
8062,-8.363514,-3.605984,4.012166,-0.040775,-0.155312,0.069486,30.92,66.2254918139566
8072,-8.362915,-3.602993,4.038486,-0.037568,-0.145844,0.07926,30.92,66.0829309536518
8082,-8.374879,-3.606582,4.053442,-0.034514,-0.135765,0.086132,30.93,66.0333137639677
8092,-8.357532,-3.614957,4.079762,-0.032376,-0.124158,0.092241,30.93,65.8658003004131
8102,-8.376674,-3.611368,4.092923,-0.030696,-0.110872,0.096975,30.93,65.8348146495989
8112,-8.370093,-3.619144,4.097709,-0.029474,-0.095753,0.098807,30.93,65.8028457915794
8122,-8.38445,-3.614957,4.113262,-0.029016,-0.079871,0.100029,30.95,65.7486968743333
8132,-8.383853,-3.616153,4.11745,-0.029016,-0.063225,0.09896,30.95,65.7266784620313
8142,-8.391031,-3.612564,4.123432,-0.029322,-0.045968,0.097433,30.89,65.7076593016713
8152,-8.383254,-3.61376,4.134798,-0.031001,-0.028863,0.094684,30.89,65.6327455428855
8162,-8.401799,-3.622734,4.13719,-0.033445,-0.01069,0.087506,30.89,65.6687677045401
8172,-8.413763,-3.619144,4.141378,-0.038332,0.023976,0.084452,30.93,65.6694872145914
8182,-8.423334,-3.614957,4.126423,-0.042608,0.039401,0.079412,30.93,65.763925878899
8192,-8.429317,-3.614359,4.121039,-0.0478,0.054367,0.07422,30.88,65.8042118221857
8202,-8.437692,-3.619144,4.112664,-0.051771,0.068111,0.069028,30.88,65.8700890254742
8212,-8.453843,-3.616751,4.101896,-0.055741,0.080329,0.064446,30.93,65.9583568752648
8222,-8.449656,-3.616751,4.09053,-0.059865,0.090561,0.059865,30.93,66.0085418723389
8232,-8.455637,-3.615555,4.082156,-0.065057,0.099876,0.0562,30.96,66.0637512459784
8242,-8.475977,-3.605984,4.055236,-0.07025,0.10736,0.052076,30.96,66.2383669895881
8252,-8.477173,-3.619144,4.049852,-0.074526,0.112705,0.047953,30.93,66.2807638284079
8262,-8.508877,-3.618546,4.029513,-0.078802,0.114995,0.043982,30.93,66.4526536656769
8272,-8.511271,-3.622135,4.005585,-0.081856,0.116828,0.041539,30.9,66.5855306448927
8282,-8.518449,-3.61376,3.988237,-0.085979,0.115606,0.037263,30.9,66.683580268338
8292,-8.519646,-3.619144,3.972086,-0.08995,0.112399,0.033903,30.93,66.7751651347861
8302,-8.522038,-3.619742,3.961318,-0.092699,0.107665,0.030696,30.93,66.836927359462
8312,-8.872587,-3.332604,3.641278,-0.089644,0.105374,0.021838,30.92,68.9837513738769
8322,-8.583055,-3.525824,3.872185,-0.054672,0.128587,-0.030849,30.92,67.3489665249849
8332,-8.508877,-3.628716,3.888337,-0.043524,0.129045,-0.045509,30.91,67.2007518218645
8342,-8.523234,-3.620341,3.896114,-0.046426,0.109192,-0.039554,30.91,67.1818104150762
8352,-8.544769,-3.627519,3.875176,-0.047342,0.097128,-0.040317,30.95,67.3417179411117
8362,-8.540583,-3.62393,3.856034,-0.047189,0.08323,-0.039095,30.94,67.4309088441023
8372,-8.505288,-3.626323,3.848855,-0.047189,0.069028,-0.040317,30.94,67.3995771896163
8382,-8.548957,-3.627519,3.841677,-0.04612,0.053603,-0.040623,30.92,67.5264256786835
8392,-8.520243,-3.619144,3.829114,-0.045204,0.037263,-0.041233,30.92,67.5278813980911
8402,-8.547162,-3.61735,3.831507,-0.043524,0.020464,-0.041997,30.95,67.5677912048434
8412,-8.512466,-3.62393,3.830909,-0.043219,0.003665,-0.044746,30.95,67.5068343628519
8422,-8.529815,-3.615555,3.82732,-0.041997,-0.012523,-0.04444,30.94,67.5535458618314
8432,-8.52144,-3.608377,3.823731,-0.04047,-0.02978,-0.047342,30.94,67.5495606118517
8442,-8.514261,-3.605386,3.827918,-0.039401,-0.044288,-0.047189,30.94,67.5104009090847
8452,-8.502895,-3.604787,3.839284,-0.037415,-0.059865,-0.047953,30.94,67.4267966264341
8462,-8.491529,-3.593421,3.853043,-0.03543,-0.072846,-0.047647,30.91,67.3211630671644
8472,-8.488539,-3.604189,3.848855,-0.034667,-0.086285,-0.046426,30.91,67.3465233322433
8482,-8.472985,-3.602993,3.854239,-0.032681,-0.098044,-0.043524,30.93,67.2853183677932
8492,-8.461619,-3.591029,3.872185,-0.031154,-0.107818,-0.040164,30.93,67.1566465482221
8502,-8.444869,-3.576672,3.892524,-0.029474,-0.117133,-0.035888,30.95,67.0019123366964
8512,-8.420941,-3.57727,3.896114,-0.027489,-0.130267,-0.023518,30.95,66.9338099842103
8522,-8.406584,-3.582056,3.915854,-0.023671,-0.13439,-0.014508,30.95,66.8035393336178
8532,-8.405987,-3.562315,3.915256,-0.021533,-0.137292,-0.005651,30.95,66.7879213713341
8542,-8.385049,-3.562913,3.939184,-0.020006,-0.137597,0.005345,30.95,66.6176587848882
8552,-8.378469,-3.566502,3.942175,-0.018631,-0.138056,0.014966,30.91,66.5911493236754
8562,-8.382057,-3.571886,3.962514,-0.016493,-0.137139,0.025656,30.91,66.4959113823245
8572,-8.367103,-3.558127,3.985246,-0.014508,-0.135765,0.036194,30.91,66.3315224559795
8582,-8.382656,-3.56052,3.988835,-0.012828,-0.132252,0.046273,30.91,66.3478587283605
8592,-8.380263,-3.561717,4.010371,-0.013439,-0.127976,0.0562,30.93,66.2302541709598
8602,-8.385648,-3.547958,4.015755,-0.012828,-0.123853,0.065515,30.93,66.2009249331583
8612,-8.387442,-3.554538,4.028915,-0.012217,-0.118202,0.073609,30.9,66.1414533972324
8622,-8.392825,-3.546762,4.046263,-0.014203,-0.111177,0.081092,30.9,66.0547515025392
8632,-8.395219,-3.556931,4.056432,-0.01405,-0.104611,0.086285,30.92,66.0157632807481
8642,-8.408977,-3.540779,4.071388,-0.015882,-0.095753,0.089034,30.92,65.9522951290468
8652,-8.420342,-3.553342,4.083352,-0.018631,-0.08659,0.091477,30.91,65.9255677822707
8662,-8.412566,-3.56052,4.08754,-0.021228,-0.076205,0.091935,30.91,65.8934747588956
8672,-8.432307,-3.549752,4.116253,-0.025504,-0.064752,0.090713,30.94,65.7764490158133
8682,-8.440084,-3.558127,4.119842,-0.029016,-0.053145,0.085521,30.94,65.7821633447127
8692,-8.434101,-3.571288,4.128816,-0.038026,-0.026878,0.079871,30.96,65.7345786731128
8702,-8.440681,-3.568297,4.118646,-0.042913,-0.013897,0.074831,30.92,65.7989231861366
8712,-8.451449,-3.575475,4.118646,-0.047953,-0.000611,0.068417,30.92,65.8286105658576
8722,-8.463414,-3.574877,4.116851,-0.053603,0.012523,0.060781,30.92,65.8630696181825
8732,-8.459227,-3.585046,4.127619,-0.057574,0.025045,0.052076,30.92,65.8074182772011
8742,-8.455039,-3.582654,4.110271,-0.06185,0.037721,0.044288,30.99,65.8863607765986
8752,-8.466404,-3.581457,4.106084,-0.065973,0.050091,0.037415,30.99,65.9313563713721
8762,-8.452048,-3.586243,4.091727,-0.069791,0.061392,0.029474,30.89,65.9796879585495
8772,-8.464012,-3.598805,4.071986,-0.071777,0.072235,0.021228,30.89,66.1193215407339
8782,-8.455637,-3.60718,4.071986,-0.073457,0.081092,0.015577,30.93,66.109116284028
8792,-8.467003,-3.601796,4.039085,-0.075289,0.089034,0.008399,30.93,66.2999117437295
8802,-8.474779,-3.61077,4.032505,-0.076358,0.09499,0.002443,30.91,66.358676959722
8812,-8.468199,-3.604787,4.015755,-0.076664,0.100029,-0.004123,30.91,66.4270138537227
8822,-8.466404,-3.617948,4.001398,-0.076816,0.104305,-0.008552,30.93,66.5101327528644
8832,-8.485548,-3.620341,3.991228,-0.078191,0.105527,-0.013286,30.93,66.6054328211135
8842,-8.485548,-3.627519,3.981059,-0.078496,0.106596,-0.017868,30.89,66.6650199404549
8852,-8.500502,-3.623332,3.954139,-0.07758,0.106138,-0.021686,30.89,66.8332693498745
8862,-8.513663,-3.628716,3.933203,-0.079107,0.098044,-0.028863,30.9,66.9748094179087
8872,-8.528618,-3.624528,3.914658,-0.079565,0.091783,-0.031612,30.94,67.0990195993577
8882,-8.519047,-3.629912,3.913461,-0.078954,0.084147,-0.033903,30.94,67.0904475962102
8892,-8.531011,-3.633501,3.896114,-0.080176,0.074067,-0.036499,30.94,67.2089999772328
8902,-8.525627,-3.628716,3.885346,-0.08094,0.062156,-0.038637,30.94,67.2505274221976
8912,-8.534599,-3.626921,3.874578,-0.081703,0.04948,-0.039248,30.92,67.3237927120915
8922,-8.539985,-3.61735,3.867998,-0.082314,0.036194,-0.040164,30.92,67.3610919635431
8932,-8.726027,-3.337988,3.677768,-0.079871,0.024129,-0.04215,30.94,68.5128083724306
8942,-8.683554,-3.391826,3.774678,-0.05681,0.02642,-0.074526,30.94,67.9569394922105
8952,-8.457432,-3.628716,3.841677,-0.044746,0.021991,-0.090103,30.95,67.3425782203599
8962,-8.516654,-3.633501,3.853043,-0.045357,0.008552,-0.081551,30.95,67.4066247933385
8972,-8.46102,-3.625126,3.85723,-0.046426,-0.004887,-0.074984,30.93,67.2643461501661
8982,-8.493324,-3.635296,3.853043,-0.047189,-0.018631,-0.068417,30.93,67.360998680988
8992,-8.484949,-3.631108,3.858427,-0.047037,-0.03146,-0.06017,30.89,67.3119288949415
9002,-8.464012,-3.624528,3.855436,-0.047189,-0.04444,-0.052687,30.89,67.2794222200826
9012,-8.453244,-3.625725,3.85723,-0.046884,-0.0562,-0.044899,30.91,67.2490028787039
9022,-8.449057,-3.620939,3.879962,-0.046578,-0.067959,-0.035736,30.91,67.1158875657033
9032,-8.438888,-3.61735,3.884149,-0.045051,-0.087659,-0.020006,30.93,67.0696689676565
9042,-8.443673,-3.620939,3.89073,-0.04383,-0.095753,-0.010996,30.93,67.0478668838462
9052,-8.416754,-3.620939,3.894319,-0.041386,-0.101098,-0.001069,30.93,66.9733387186601
9062,-8.42453,-3.625126,3.923033,-0.03879,-0.106749,0.006872,30.93,66.8413176265127
9072,-8.408977,-3.631706,3.929613,-0.036805,-0.110108,0.015119,30.93,66.7801401306849
9082,-8.429914,-3.611966,3.943372,-0.034056,-0.112705,0.022907,30.9,66.73343818839
9092,-8.412566,-3.616153,3.959523,-0.03146,-0.112552,0.029474,30.9,66.6158026707592
9102,-8.417951,-3.609573,3.966104,-0.029169,-0.11133,0.036957,30.89,66.5864872397956
9112,-8.399406,-3.606582,3.981657,-0.026267,-0.109039,0.043677,30.89,66.4628618160409
9122,-8.395219,-3.612564,3.987041,-0.023976,-0.104763,0.048717,30.93,66.4310928634199
9132,-8.395817,-3.602395,3.996612,-0.020311,-0.099418,0.055741,30.93,66.3727273049808
9142,-8.389835,-3.599404,4.010969,-0.018173,-0.093462,0.060628,30.91,66.2817732099733
9152,-8.4012,-3.61077,4.022335,-0.016493,-0.085674,0.064294,30.91,66.2565287560503
9162,-8.401799,-3.598207,4.027121,-0.014355,-0.077122,0.068417,30.89,66.2212276570384
9172,-8.403594,-3.579065,4.036692,-0.013134,-0.068875,0.072846,30.89,66.1574021900782
9182,-8.408977,-3.591029,4.042076,-0.012217,-0.059865,0.074678,30.91,66.1515229510291
9192,-8.408977,-3.596412,4.059424,-0.010996,-0.049633,0.078191,30.91,66.0655667363469
9202,-8.407183,-3.580261,4.057031,-0.011301,-0.039859,0.081398,30.91,66.0595259862498
9212,-8.42453,-3.583252,4.052245,-0.011301,-0.022755,0.082161,30.91,66.1243467884573
9222,-8.431709,-3.582654,4.052843,-0.010996,-0.013744,0.08323,30.91,66.1359720723295
9232,-8.42453,-3.578466,4.041477,-0.011606,-0.005345,0.083078,30.92,66.1763925305178
9242,-8.432307,-3.574877,4.046861,-0.013286,0.002138,0.08323,30.92,66.1615158958114
9252,-8.435298,-3.564708,4.034299,-0.015272,0.008858,0.083383,30.93,66.2245069314377
9262,-8.435897,-3.565904,4.03729,-0.016646,0.014813,0.082467,30.93,66.2111861123224
9272,-8.453244,-3.566502,4.0337,-0.018937,0.019853,0.08094,30.95,66.267352412263
9282,-8.455637,-3.573681,4.031906,-0.02138,0.024129,0.078802,30.95,66.2882307807968
9292,-8.468798,-3.577868,4.026522,-0.023671,0.028558,0.077274,30.92,66.3479432067172
9302,-8.471789,-3.5671,4.020541,-0.02642,0.031918,0.074526,30.92,66.3759568694438
9316,-8.483154,-3.571288,4.010371,-0.031918,0.036346,0.066737,30.93,66.4568012713741
9322,-8.483154,-3.571288,4.010371,-0.031918,0.036346,0.066737,30.93,66.4568012713741
9332,-8.511868,-3.578466,4.015156,-0.035277,0.038179,0.062766,30.97,66.4983259130816
9342,-8.497512,-3.573082,4.007978,-0.038179,0.038943,0.056963,30.97,66.5010225250076
9352,-8.507083,-3.565904,4.00379,-0.041233,0.04047,0.050702,30.91,66.5366427875504
9362,-8.516056,-3.571288,3.988835,-0.044288,0.040164,0.042761,30.91,66.638268965359
9372,-8.532208,-3.573681,3.983452,-0.049633,0.039401,0.027642,30.91,66.7020721185495
9382,-8.539985,-3.571288,3.997808,-0.057116,0.038179,0.01909,30.91,66.6411944751791
9392,-8.535198,-3.568297,3.981657,-0.062003,0.036346,0.009621,30.91,66.712980802919
9402,-8.539386,-3.570091,3.981657,-0.066279,0.033598,0.000153,30.9,66.7232228812717
9412,-8.547761,-3.565904,3.97747,-0.07086,0.030696,-0.010232,30.9,66.7588208824245
9422,-8.548957,-3.570091,3.964907,-0.074984,0.027031,-0.020617,30.92,66.8305482056682
9432,-8.553144,-3.569493,3.951746,-0.07926,0.022907,-0.030085,30.92,66.9074840376209
9442,-8.547162,-3.579065,3.951746,-0.083841,0.01741,-0.039554,30.92,66.9034076899102
9452,-8.532805,-3.578466,3.940381,-0.088575,0.012523,-0.049938,30.92,66.9328556747769
9462,-8.545966,-3.571886,3.937988,-0.091477,0.00672,-0.058185,30.93,66.9667989424374
9472,-8.540583,-3.578466,3.932006,-0.094531,0.000916,-0.065363,30.93,66.9927470278895
9482,-8.525627,-3.573681,3.920042,-0.098197,-0.006567,-0.072082,30.91,67.0206969389775
9492,-8.520243,-3.5671,3.91406,-0.100793,-0.013439,-0.077122,30.91,67.0354090669642
9502,-8.505887,-3.583252,3.908676,-0.102625,-0.021228,-0.081551,30.95,67.048174405213
9512,-8.486146,-3.576073,3.900899,-0.103847,-0.028405,-0.083078,30.95,67.0423317960583
9522,-8.480762,-3.579663,3.894319,-0.104153,-0.036194,-0.083536,30.96,67.0690903560704
9532,-8.47119,-3.573681,3.893721,-0.104,-0.043524,-0.080634,30.96,67.0473335672899
9542,-8.436494,-3.579663,3.88714,-0.102473,-0.05116,-0.078343,30.93,67.0157232365464
9552,-8.432905,-3.58385,3.884149,-0.096669,-0.065821,-0.06689,30.93,67.0278284840133
9562,-8.41137,-3.569493,3.886542,-0.093768,-0.072998,-0.059101,30.95,66.9578387545832
9572,-8.417352,-3.583252,3.896712,-0.089339,-0.078343,-0.04948,30.92,66.9284684737042
9582,-8.397612,-3.580261,3.900301,-0.084299,-0.082467,-0.03879,30.92,66.8656846836303
9592,-8.390432,-3.57727,3.91406,-0.07926,-0.086285,-0.027794,30.88,66.7750068563748
9602,-8.373085,-3.578466,3.92064,-0.074067,-0.089186,-0.015119,30.88,66.7047701557261
9612,-8.379066,-3.589832,3.923033,-0.069486,-0.090255,-0.003054,30.94,66.7148445646673
9622,-8.369495,-3.580859,3.945167,-0.064599,-0.090866,0.009316,30.94,66.5692851226382
9632,-8.369495,-3.588037,3.949952,-0.058796,-0.089797,0.02138,30.89,66.5504284244858
9642,-8.373683,-3.58385,3.954139,-0.05452,-0.087506,0.033903,30.89,66.5333181439132
9652,-8.371889,-3.595216,3.978666,-0.05116,-0.08323,0.045815,30.92,66.4101538271959
9662,-8.373683,-3.589832,3.996014,-0.047495,-0.078954,0.055741,30.92,66.3174990198371
9672,-8.370093,-3.59043,4.012166,-0.044593,-0.073609,0.064446,30.91,66.2252570386452
9682,-8.38445,-3.595814,4.017549,-0.041844,-0.066432,0.073457,30.91,66.2324340384339
9692,-8.375478,-3.600002,4.022335,-0.041539,-0.058796,0.079718,30.9,66.1919715411743
9702,-8.39462,-3.606582,4.03729,-0.041233,-0.049022,0.085368,30.9,66.160226836138
9712,-8.39821,-3.60718,4.04746,-0.040775,-0.04047,0.090103,30.89,66.1150966788761
9722,-8.42812,-3.603591,4.064807,-0.041081,-0.022297,0.094531,30.89,66.0847985719803
9732,-8.426923,-3.611966,4.072584,-0.043982,-0.011759,0.094379,30.91,66.04927919886
9742,-8.438289,-3.6006,4.061816,-0.045815,-0.002138,0.092546,30.88,66.1193414281212
9752,-8.447262,-3.608377,4.065406,-0.048411,0.007636,0.090866,30.88,66.1267243218139
9762,-8.456235,-3.628117,4.057629,-0.051313,0.017104,0.088117,30.89,66.2041750628115
9772,-8.465807,-3.615555,4.051049,-0.053298,0.024893,0.083994,30.89,66.2473372959702
9782,-8.478967,-3.615555,4.050451,-0.05681,0.032834,0.079412,30.93,66.2781961040816
9792,-8.48136,-3.617948,4.051049,-0.059254,0.038943,0.074067,30.93,66.2822677651132
9802,-8.475378,-3.621537,4.035496,-0.062308,0.043677,0.067195,30.91,66.3539813572893
9812,-8.488539,-3.622734,4.013362,-0.06521,0.048258,0.061697,30.91,66.4981230191971
9822,-8.514261,-3.613162,4.001996,-0.067806,0.050702,0.056047,30.9,66.6025432601415
9832,-8.513064,-3.625725,3.997808,-0.07025,0.051771,0.04948,30.9,66.6329998341949
9842,-8.505887,-3.632305,3.989433,-0.072693,0.051313,0.042761,30.9,66.6676610464073
9852,-8.512466,-3.631706,3.975675,-0.074984,0.049175,0.03711,30.9,66.7526229284112
9862,-8.529815,-3.622135,3.949952,-0.076358,0.04612,0.031612,30.94,66.9144694126924
9872,-8.538787,-3.619742,3.939782,-0.077733,0.041233,0.025351,30.94,66.9839969392384
9882,-8.541181,-3.629314,3.927818,-0.079718,0.034819,0.01909,30.91,67.0598173390446
9892,-8.544172,-3.625725,3.917051,-0.08094,0.027794,0.010079,30.91,67.119202864131
9902,-8.809774,-3.315854,3.625725,-0.078038,0.016341,0.003054,30.92,68.9344412919135
9912,-8.547761,-3.526422,3.872783,-0.046273,0.045662,-0.039859,30.9,67.2744773892817
9922,-8.490333,-3.628716,3.891328,-0.035583,0.048258,-0.051924,30.9,67.1471939705361
9932,-8.504092,-3.631108,3.882953,-0.035736,0.039554,-0.048258,30.91,67.221442596122
9942,-8.492128,-3.611368,3.88714,-0.035736,0.02978,-0.044593,30.91,67.1578271006095
9952,-8.514859,-3.625725,3.881158,-0.036346,0.018479,-0.042608,30.94,67.2481173232625
9962,-8.510075,-3.626921,3.877569,-0.037415,0.007636,-0.040317,30.94,67.258335537989
9972,-8.483753,-3.620341,3.877569,-0.037263,-0.00336,-0.037568,30.92,67.1990248183436
9982,-8.501699,-3.62393,3.872185,-0.036957,-0.015119,-0.034514,30.92,67.2671034335228
9992,-8.470592,-3.634698,3.873382,-0.036652,-0.026267,-0.032223,30.92,67.206816340288
10002,-8.497512,-3.621537,3.88056,-0.036346,-0.037568,-0.029016,30.92,67.2123447422991
10012,-8.491529,-3.62393,3.876373,-0.035277,-0.048411,-0.027336,30.93,67.2243164407484
10022,-8.492725,-3.607778,3.88056,-0.034667,-0.059101,-0.025656,30.93,67.1906367970685
10032,-8.544769,-3.456432,3.863212,-0.034208,-0.068417,-0.023671,30.91,67.2603308917025
10042,-8.474779,-3.59043,3.889533,-0.031154,-0.077274,-0.027947,30.91,67.0914228475809
10052,-8.478967,-3.619144,3.903292,-0.030085,-0.084452,-0.02642,30.9,67.0525085538989
10062,-8.46461,-3.6006,3.927818,-0.029627,-0.090866,-0.02306,30.9,66.8773980150805
10072,-8.447262,-3.602395,3.938586,-0.028253,-0.100487,-0.018784,30.88,66.7862589718571
10082,-8.439486,-3.596412,3.951149,-0.027489,-0.102473,-0.016188,30.89,66.698551849089
10092,-8.410771,-3.592823,3.959523,-0.02642,-0.104305,-0.013286,30.89,66.5910711928027
10102,-8.439486,-3.600002,3.973282,-0.025504,-0.104153,-0.010385,30.91,66.5852575249562
10112,-8.413164,-3.597609,3.980461,-0.025198,-0.102014,-0.008399,30.91,66.4900514145066
10122,-8.413763,-3.592823,3.995416,-0.024282,-0.09896,-0.005498,30.9,66.4083010555548
10132,-8.395817,-3.586841,3.999005,-0.023671,-0.094684,-0.002596,30.9,66.3460206703343
10142,-8.39821,-3.575475,4.006782,-0.02306,-0.08995,0.00168,30.92,66.2998695558402
10152,-8.402397,-3.585645,4.019942,-0.020922,-0.083078,0.005956,30.92,66.2487838620099
10162,-8.391629,-3.575475,4.028915,-0.019242,-0.075289,0.008858,30.91,66.1694392591526
10172,-8.377871,-3.579065,4.030112,-0.018479,-0.066737,0.01405,30.91,66.1370092295395
10182,-8.383853,-3.582056,4.030112,-0.017257,-0.057116,0.018784,30.92,66.152533385181
10192,-8.373683,-3.58385,4.038486,-0.016646,-0.048258,0.02138,30.92,66.0883889087172
10202,-8.378469,-3.570091,4.054638,-0.017104,-0.038485,0.025656,30.93,66.0011914196288
10212,-8.382656,-3.571886,4.04746,-0.016341,-0.029016,0.030391,30.93,66.0495219044368
10222,-8.375478,-3.570091,4.056432,-0.016035,-0.018326,0.035125,30.92,65.9853374498021
10232,-8.395219,-3.562315,4.067201,-0.016035,-0.008094,0.04047,30.92,65.9642095357588
10242,-8.383254,-3.571288,4.058825,-0.014966,0.010996,0.049633,30.89,65.9906010320299
10252,-8.398808,-3.564708,4.050451,-0.016799,0.020311,0.05284,30.88,66.0619197968433
10262,-8.412566,-3.569493,4.048058,-0.018326,0.028711,0.056352,30.88,66.1082629929956
10272,-8.42453,-3.571886,4.057629,-0.019395,0.037415,0.059865,30.91,66.0858731987654
10282,-8.427522,-3.561717,4.053442,-0.020769,0.045509,0.063988,30.91,66.1049827290344
10292,-8.432307,-3.573082,4.044468,-0.022602,0.052687,0.065821,30.92,66.1724225554638
10302,-8.44427,-3.577868,4.032505,-0.025045,0.059712,0.066279,30.92,66.2647715908436
10312,-8.455637,-3.564708,4.038486,-0.026573,0.065515,0.066584,30.85,66.2457819350877
10322,-8.456235,-3.573681,4.033103,-0.028711,0.070708,0.066279,30.85,66.2832341972213
10332,-8.480762,-3.588636,4.019942,-0.031918,0.074831,0.063683,30.94,66.4171136022475
10342,-8.474181,-3.583252,4.015755,-0.034208,0.078191,0.061392,30.94,66.4203855504225
10352,-8.489137,-3.580859,4.0008,-0.036805,0.080329,0.057879,30.94,66.5278815521657
10362,-8.508279,-3.592225,3.991827,-0.039248,0.081551,0.053756,30.94,66.624777147612
10372,-8.517252,-3.599404,3.988835,-0.040928,0.081398,0.047495,30.92,66.6653680132729
10382,-8.513064,-3.59402,3.979862,-0.043371,0.080481,0.041081,30.92,66.6988593035966
10392,-8.52144,-3.597609,3.971487,-0.044899,0.078649,0.034208,30.94,66.7631569581016
10402,-8.53161,-3.597609,3.958327,-0.046731,0.076511,0.027031,30.94,66.8529964948512
10412,-8.528021,-3.596412,3.948158,-0.048717,0.072846,0.012065,30.9,66.8977956222742
10422,-8.53161,-3.602993,3.926622,-0.051313,0.063835,0.004276,30.92,67.0237327097435
10432,-8.530412,-3.608975,3.914658,-0.051771,0.057421,-0.003207,30.92,67.0892194088317
10442,-8.541181,-3.60718,3.911667,-0.053145,0.049786,-0.01069,30.95,67.125343067422
10452,-8.534599,-3.61077,3.901497,-0.053298,0.042455,-0.017257,30.95,67.1684049619224
10462,-8.537591,-3.611368,3.893123,-0.05452,0.032376,-0.023671,30.9,67.2189947589344
10472,-8.542377,-3.60718,3.887738,-0.054214,0.02306,-0.029322,30.9,67.253416485548
10482,-8.545368,-3.62393,3.874578,-0.055894,0.013134,-0.034667,30.91,67.3429952138508
10492,-8.541779,-3.611966,3.876373,-0.056505,0.001833,-0.038332,30.91,67.3160521759577
10502,-8.534599,-3.610171,3.879364,-0.056047,-0.009927,-0.040928,30.91,67.2842302456979
10512,-8.534599,-3.609573,3.874578,-0.056658,-0.022297,-0.042913,30.91,67.3089011252764
10522,-8.534002,-3.613162,3.869792,-0.057574,-0.034667,-0.045509,30.92,67.3359605309902
10532,-8.527422,-3.598805,3.878167,-0.05849,-0.046426,-0.045968,30.92,67.2662054904506
10542,-8.528618,-3.598207,3.872783,-0.059101,-0.058643,-0.045662,30.91,67.2964788719617
10552,-8.523234,-3.60718,3.881158,-0.060018,-0.07086,-0.045662,30.91,67.2491383721462
10562,-8.510672,-3.601198,3.885346,-0.061239,-0.081703,-0.043982,30.92,67.1963412932265
10572,-8.498111,-3.602993,3.896712,-0.062156,-0.091477,-0.042302,30.92,67.1123401062842
10582,-8.495717,-3.601796,3.902096,-0.063377,-0.101404,-0.039095,30.94,67.0780325531407
10592,-8.477173,-3.595216,3.907479,-0.065057,-0.117439,-0.033903,30.88,67.0058156830621
10602,-8.469396,-3.591029,3.921836,-0.066279,-0.124006,-0.029169,30.88,66.910411702295
10612,-8.448458,-3.58744,3.927818,-0.065821,-0.128282,-0.022907,30.93,66.8322959893376
10622,-8.438888,-3.585046,3.939782,-0.066279,-0.131489,-0.01909,30.93,66.7471350003032
10632,-8.440681,-3.593421,3.954139,-0.065668,-0.133016,-0.01405,30.93,66.682636569015
10642,-8.428718,-3.595216,3.964907,-0.065363,-0.132558,-0.007483,30.93,66.6024914681727
10652,-8.418548,-3.598207,3.976273,-0.064446,-0.131489,-0.002291,30.96,66.5239700648502
10662,-8.405987,-3.583252,3.988237,-0.063072,-0.12874,0.004887,30.96,66.4210205768745
10672,-8.397612,-3.573681,3.996014,-0.061697,-0.124158,0.010079,30.93,66.353676676964
10682,-8.377273,-3.588636,4.006782,-0.059254,-0.118355,0.016188,30.93,66.2672848793651
10692,-8.38146,-3.574877,4.018147,-0.057727,-0.111636,0.020617,30.95,66.2038197812979
10702,-8.362316,-3.577868,4.022933,-0.055131,-0.102167,0.027184,30.95,66.1404011560063
10712,-8.353344,-3.57727,4.036094,-0.051771,-0.09331,0.032376,30.92,66.0512701260144
10722,-8.362316,-3.585046,4.046263,-0.04948,-0.082467,0.037874,30.92,66.0242100172054
10732,-8.355738,-3.585645,4.048058,-0.046884,-0.070555,0.042608,30.96,66.0011793266475
10742,-8.363514,-3.589234,4.066004,-0.045051,-0.057727,0.047189,30.96,65.9269585727512
10752,-8.360522,-3.585645,4.068995,-0.042455,-0.044593,0.051007,30.95,65.9014909023138
10762,-8.365308,-3.582056,4.073781,-0.040164,-0.01741,0.057574,30.95,65.8833892619881
10772,-8.35813,-3.588636,4.080361,-0.03711,-0.003512,0.059865,30.95,65.8394704447988
10782,-8.377273,-3.582056,4.071388,-0.036957,0.009621,0.061239,30.9,65.9217352942832
10792,-8.379665,-3.589234,4.064807,-0.036194,0.023366,0.062919,30.9,65.9679899841917
10802,-8.389835,-3.589234,4.071986,-0.035583,0.036805,0.064141,30.93,65.9522266898209
10812,-8.443074,-3.57069,4.057031,-0.034972,0.047953,0.064446,30.93,66.1274801032689
10822,-8.463414,-3.563511,4.051647,-0.03375,0.058338,0.053756,30.89,66.1924295902978
10832,-8.402397,-3.589234,4.052843,-0.03375,0.068417,0.04612,30.89,66.0794154737758
10842,-8.416155,-3.596412,4.052245,-0.034361,0.078343,0.047495,30.94,66.1184547810348
10852,-8.432905,-3.595216,4.03071,-0.03543,0.08491,0.048258,30.94,66.2657124352228
10862,-8.44427,-3.591029,4.026522,-0.03711,0.091324,0.048717,30.9,66.3079225515038
10872,-8.519646,-3.567699,3.989433,-0.037874,0.095295,0.04612,30.9,66.6394871462402
10882,-8.462815,-3.604189,3.995416,-0.037263,0.099418,0.03543,30.92,66.5216651268265
10892,-8.490333,-3.594618,3.97747,-0.038943,0.100793,0.034056,30.92,66.6646642071815
10902,-8.526823,-3.59043,3.965506,-0.039859,0.101251,0.029932,30.91,66.7993149906351
10912,-8.490333,-3.603591,3.968496,-0.040164,0.102167,0.022449,30.91,66.7195987920458
10922,-8.553144,-3.620939,3.923631,-0.040317,0.099724,0.019395,30.91,67.0988787512461
10932,-8.545966,-3.607778,3.910471,-0.040012,0.094073,0.005498,30.91,67.1418819954347
10942,-8.539985,-3.616153,3.89731,-0.037568,0.090408,-0.00168,30.95,67.2059827474282
10952,-8.534599,-3.611966,3.888337,-0.036194,0.085827,-0.008247,30.91,67.2385829569701
10962,-8.553743,-3.59043,3.878766,-0.034056,0.081092,-0.012981,30.91,67.3093253190885
10972,-8.541779,-3.604189,3.878766,-0.031612,0.074678,-0.01573,30.92,67.2968110163062
10982,-8.548359,-3.606582,3.874578,-0.032529,0.064599,-0.018326,30.92,67.3342067146191
10992,-8.552546,-3.599404,3.873382,-0.032223,0.05284,-0.020769,30.9,67.3428474027168
11002,-8.544769,-3.611966,3.863212,-0.031612,0.040928,-0.023213,30.9,67.3913419072701
11012,-8.541779,-3.611966,3.865007,-0.031612,0.028253,-0.028253,30.92,67.3758547354027
11022,-8.547162,-3.598805,3.864408,-0.03146,0.015424,-0.031307,30.92,67.378663555625
11032,-8.548359,-3.604787,3.861418,-0.030849,0.002138,-0.03375,30.93,67.4019135630888
11042,-8.538787,-3.611368,3.866203,-0.031001,-0.011148,-0.035736,30.93,67.3630000384144
11052,-8.541181,-3.62393,3.856632,-0.031001,-0.024587,-0.036652,30.92,67.4289647808059
11062,-8.542377,-3.627519,3.867998,-0.030849,-0.037263,-0.038943,30.92,67.3746315459463
11072,-8.542974,-3.624528,3.862016,-0.030849,-0.050091,-0.043066,30.92,67.404748100392
11082,-8.536993,-3.620939,3.870989,-0.031154,-0.062156,-0.045204,30.92,67.342379852927
11092,-8.525627,-3.628117,3.879364,-0.03207,-0.073151,-0.048717,30.95,67.2814768430191
11102,-8.500502,-3.619144,3.889533,-0.03146,-0.083994,-0.051007,30.95,67.1690742970341
11112,-8.484351,-3.632903,3.896114,-0.030543,-0.102625,-0.052382,30.94,67.1134119954422
11122,-8.475378,-3.619742,3.912863,-0.029932,-0.109956,-0.050702,30.96,66.9952317011856
11132,-8.467602,-3.614957,3.919443,-0.028711,-0.115912,-0.050244,30.96,66.9403445058143
11142,-8.463414,-3.626921,3.92064,-0.028253,-0.120799,-0.048717,30.95,66.9359552006855
11152,-8.434101,-3.614957,3.93739,-0.026878,-0.124464,-0.044746,30.95,66.7763650888145
11162,-8.413164,-3.622734,3.948158,-0.024587,-0.126144,-0.041233,30.94,66.6829046618545
11172,-8.413763,-3.619144,3.958327,-0.022297,-0.125991,-0.034208,30.94,66.6273053304561
11182,-8.402995,-3.607778,3.966702,-0.020311,-0.124311,-0.027642,30.95,66.5503239855816
11192,-8.388638,-3.611966,3.988835,-0.018173,-0.121562,-0.020769,30.95,66.4072007000061
11202,-8.382656,-3.609573,3.993621,-0.014508,-0.11805,-0.012523,30.93,66.3671503309643
11212,-8.368897,-3.612564,4.00379,-0.011759,-0.111788,-0.003818,30.93,66.2871192508263
11222,-8.363514,-3.595814,4.016353,-0.010385,-0.104153,0.005345,30.95,66.1940924436164
11232,-8.355139,-3.588037,4.020541,-0.007178,-0.095753,0.014661,30.95,66.1469701120092
11242,-8.344969,-3.588636,4.028317,-0.003971,-0.086132,0.024587,30.93,66.0847288541173
11252,-8.341978,-3.578466,4.042076,-0.002138,-0.076053,0.033598,30.93,65.9963966497093
11262,-8.347363,-3.582654,4.048656,0.000153,-0.064446,0.043524,30.96,65.9772344114147
11272,-8.349156,-3.565306,4.069593,0.001985,-0.051465,0.051771,30.96,65.8549597714946
11282,-8.350951,-3.574877,4.064209,0.004123,-0.026878,0.068111,30.95,65.8959938308686
11292,-8.356933,-3.575475,4.082156,0.004123,-0.013439,0.074067,30.94,65.8152616214024
11302,-8.373683,-3.565306,4.070191,0.003971,-0.000916,0.079871,30.94,65.9048609870969
11312,-8.370691,-3.578466,4.094718,0.003818,0.012065,0.083383,30.91,65.7819974239005
11322,-8.386844,-3.561717,4.08395,0.003054,0.025045,0.087354,30.91,65.8578719138456
11332,-8.402397,-3.565306,4.082754,0.001985,0.037568,0.089186,30.93,65.9009650511242
11342,-8.416754,-3.561118,4.070191,0.000458,0.048564,0.088423,30.93,65.9937342315877
11352,-8.423933,-3.556333,4.064807,-0.002138,0.058796,0.087048,30.96,66.0329599452241
11362,-8.4347,-3.558726,4.067201,-0.00504,0.06857,0.085063,30.96,66.0456567044623
11372,-8.432905,-3.572484,4.055834,-0.007483,0.078496,0.082161,30.93,66.1136811206123
11382,-8.453244,-3.565306,4.052245,-0.010385,0.086743,0.077885,30.93,66.1692995792785
11392,-8.460423,-3.558726,4.050451,-0.01405,0.094073,0.072082,30.92,66.1880444354869
11402,-8.475378,-3.568297,4.039683,-0.016646,0.10064,0.066126,30.92,66.2845369831579
11412,-8.489736,-3.563511,4.033103,-0.020159,0.104763,0.059407,30.94,66.3449676167615
11422,-8.499306,-3.562315,4.017549,-0.023518,0.108276,0.052076,30.94,66.4452872829383
11432,-8.515458,-3.567699,4.006782,-0.027489,0.110261,0.04383,30.95,66.5400989005973
11442,-8.52144,-3.555136,3.985246,-0.030849,0.111025,0.034972,30.95,66.6541806845381
11452,-8.53161,-3.574279,3.97747,-0.033903,0.107665,0.018631,30.96,66.7326147785735
11462,-8.541779,-3.578466,3.960122,-0.039554,0.104611,0.009927,30.95,66.8479841273472
11472,-8.547162,-3.576672,3.945765,-0.041997,0.098807,0.00168,30.95,66.9326464119083
11482,-8.556733,-3.580261,3.923631,-0.04444,0.091477,-0.007483,30.93,67.0712680041398
11492,-8.560921,-3.574877,3.924827,-0.046426,0.083994,-0.015119,30.93,67.0689640115861
11502,-8.572886,-3.576073,3.910471,-0.048106,0.074526,-0.022755,30.91,67.1696065438421
11512,-8.56451,-3.579663,3.899105,-0.050244,0.063988,-0.031001,30.91,67.2152084544575
11522,-8.569296,-3.576672,3.890131,-0.051924,0.052382,-0.03711,30.95,67.2694873539997
11532,-8.574082,-3.582654,3.88056,-0.053756,0.04047,-0.043219,30.95,67.3344905570301
11542,-8.568698,-3.588037,3.88056,-0.056047,0.027336,-0.048258,30.98,67.328153170238
11552,-8.560921,-3.582056,3.864408,-0.056658,0.013592,-0.053145,30.98,67.3922655849154
11562,-8.559725,-3.58744,3.863212,-0.058185,-0.000153,-0.057574,30.93,67.4006976140373
11572,-8.541779,-3.594618,3.867399,-0.059559,-0.014355,-0.060476,30.93,67.3484575149877
11582,-8.544769,-3.592823,3.869194,-0.059254,-0.027184,-0.063072,30.95,67.3435339616933
11592,-8.528618,-3.595216,3.858427,-0.06017,-0.041539,-0.064446,30.95,67.3695881204985
11602,-8.535198,-3.597609,3.873382,-0.061239,-0.054367,-0.06521,30.93,67.3061681219579
11612,-8.510672,-3.595814,3.881757,-0.062156,-0.067195,-0.064752,30.93,67.2106107399863
11622,-8.49452,-3.608377,3.88056,-0.063072,-0.078802,-0.060781,30.9,67.1948216720636
11632,-8.480165,-3.605386,3.881757,-0.062614,-0.098502,-0.056963,30.94,67.1565579517912
11642,-8.584252,-3.425924,3.834498,-0.060781,-0.106443,-0.054214,30.94,67.4678768025715
11652,-8.488539,-3.526422,3.889533,-0.054062,-0.108123,-0.064599,30.95,67.0644417052489
11662,-8.420342,-3.61376,3.908676,-0.049938,-0.111636,-0.063835,30.95,66.8983839616399
11672,-8.419147,-3.614359,3.924827,-0.048564,-0.114843,-0.05452,30.95,66.8110442702483
11682,-8.41137,-3.611368,3.935595,-0.046426,-0.118202,-0.046731,30.95,66.7352752214293
11692,-8.403594,-3.628716,3.945765,-0.044288,-0.11805,-0.037721,30.95,66.6809314657281
11702,-8.402397,-3.621537,3.958327,-0.042455,-0.117286,-0.029627,30.95,66.605661090499
11712,-8.385648,-3.619144,3.969095,-0.039859,-0.115759,-0.022297,30.95,66.5115016742008
11722,-8.385648,-3.619144,3.981059,-0.037721,-0.112246,-0.014203,30.95,66.4484009606665
11732,-8.37129,-3.611966,4.002594,-0.035888,-0.107818,-0.007789,30.96,66.2979562421133
11742,-8.392825,-3.611966,4.007978,-0.032987,-0.100487,-0.000916,30.96,66.3152992280815
11752,-8.380263,-3.628117,4.010969,-0.031154,-0.092852,0.003971,30.92,66.2877203740604
11762,-8.398808,-3.624528,4.019344,-0.028558,-0.08491,0.008399,30.92,66.2797210546517
11772,-8.386245,-3.631108,4.03729,-0.027336,-0.075747,0.012065,30.96,66.1649161789444
11782,-8.391629,-3.622734,4.045665,-0.025351,-0.065363,0.016341,30.96,66.1247535597122
11792,-8.396414,-3.625126,4.052843,-0.023366,-0.055283,0.019853,30.93,66.0995406898524
11802,-8.390432,-3.631108,4.057629,-0.02138,-0.034514,0.02474,30.93,66.0672415205398
11812,-8.395817,-3.626323,4.064209,-0.020006,-0.023366,0.026267,30.93,66.0398788437894
11822,-8.39821,-3.628117,4.062415,-0.018937,-0.011454,0.027794,30.94,66.0560229114254
11832,-8.4012,-3.614359,4.070789,-0.018479,0,0.029932,30.94,66.0059456390027
11842,-8.402397,-3.613162,4.057031,-0.018021,0.010843,0.03207,30.94,66.0793794196107
11852,-8.407781,-3.619742,4.063013,-0.01741,0.020464,0.034056,30.94,66.0656010696739
11862,-8.423334,-3.626323,4.053442,-0.016799,0.030391,0.037721,30.9,66.1547404571158
11872,-8.397013,-3.614359,4.051647,-0.016493,0.039095,0.040164,30.9,66.0971880644696
11882,-8.405388,-3.608975,4.04746,-0.016188,0.0478,0.043524,30.94,66.1320360910938
11892,-8.41137,-3.62393,4.032505,-0.016341,0.054672,0.046884,30.94,66.2367570014494
11902,-8.415558,-3.612564,4.03071,-0.016341,0.062461,0.05116,30.94,66.2446802718889
11912,-8.427522,-3.61077,4.027121,-0.01573,0.067806,0.055283,30.94,66.2871885326845
11922,-8.432307,-3.610171,4.009174,-0.016341,0.072693,0.059101,30.93,66.3908183018578
11932,-8.438888,-3.605984,3.999603,-0.01741,0.075442,0.061697,30.93,66.4511075520744
11942,-8.458628,-3.61376,3.991827,-0.018021,0.077122,0.064141,30.94,66.5402565411471
11952,-8.455039,-3.608377,3.978068,-0.019395,0.079565,0.06689,30.94,66.600123331984
11962,-8.456833,-3.607778,3.963113,-0.019853,0.079412,0.068722,30.91,66.6818835778106
11972,-8.480165,-3.600002,3.960122,-0.019548,0.076969,0.071777,30.91,66.7392466426314
11982,-8.487941,-3.597011,3.945765,-0.021838,0.074526,0.069944,30.95,66.8281299742269
11992,-8.504689,-3.589832,3.949354,-0.02306,0.071777,0.06857,30.95,66.8376584759525
12002,-8.512466,-3.592823,3.9338,-0.025045,0.066584,0.064904,30.95,66.9379385283569
12012,-8.518449,-3.580859,3.928416,-0.026267,0.061087,0.061392,30.95,66.9681495067475
12022,-8.758926,-3.484548,3.853641,-0.027184,0.055283,0.054367,30.95,67.7650198771777
12032,-8.612367,-3.518646,3.914658,-0.020464,0.050549,0.013286,30.94,67.1798121219333
12042,-8.481958,-3.602993,3.907479,-0.01909,0.043219,-0.005498,30.94,67.0224588623035
12052,-8.512466,-3.591029,3.916452,-0.019242,0.036041,-0.006414,30.91,67.0275149674895
12062,-8.498111,-3.59043,3.89731,-0.019853,0.0281,-0.00901,30.91,67.0982929842896
12072,-8.520842,-3.597011,3.892524,-0.020617,0.020311,-0.012065,30.93,67.1756832345113
12082,-8.518449,-3.592225,3.888935,-0.020769,0.011148,-0.015119,30.93,67.1855720623971
12092,-8.558528,-3.492325,3.892524,-0.020922,0.001985,-0.018784,30.93,67.1638799761054
12102,-8.566903,-3.517449,3.90389,-0.021533,-0.01069,-0.029016,30.93,67.1423677391639
12112,-8.498111,-3.600002,3.892524,-0.022449,-0.023518,-0.035888,30.93,67.1318135811135
12122,-8.525627,-3.58744,3.901497,-0.022297,-0.032987,-0.038179,30.93,67.1300130404876
12132,-8.504689,-3.598805,3.902694,-0.022755,-0.042302,-0.041539,30.93,67.090677189244
12142,-8.513663,-3.59402,3.919443,-0.023518,-0.050702,-0.048106,30.93,67.0168440460356
12152,-8.534002,-3.546163,3.915256,-0.025809,-0.066584,-0.050244,30.94,67.0394548826596
12162,-8.505887,-3.565306,3.930809,-0.027031,-0.075747,-0.056352,30.94,66.9162054845929
12172,-8.489137,-3.592225,3.922434,-0.028558,-0.082009,-0.059865,30.94,66.9490838327673
12182,-8.501699,-3.59402,3.943372,-0.030238,-0.087659,-0.060781,30.95,66.8665279733723
12192,-8.468798,-3.577868,3.953541,-0.031612,-0.09163,-0.060781,30.95,66.7306800887633
12202,-8.470592,-3.595216,3.954139,-0.032987,-0.095142,-0.061392,30.91,66.7465586600794
12212,-8.449656,-3.586243,3.980461,-0.035125,-0.097586,-0.059407,30.91,66.5565682042018
12222,-8.458628,-3.59043,3.982255,-0.035888,-0.09728,-0.056505,30.93,66.5696731626079
12232,-8.438888,-3.588037,3.972684,-0.037874,-0.096517,-0.053909,30.93,66.5764691724989
12242,-8.432307,-3.591627,3.990032,-0.037874,-0.09499,-0.049938,30.92,66.4746343596599
12252,-8.413763,-3.592225,3.999603,-0.037568,-0.092241,-0.045051,30.92,66.3857431566508
12262,-8.413164,-3.59043,4.006782,-0.038179,-0.087965,-0.039706,30.93,66.3451175304511
12272,-8.394022,-3.598207,4.011567,-0.037568,-0.082925,-0.033292,30.93,66.2864292450975
12282,-8.387442,-3.594618,4.014558,-0.035125,-0.076664,-0.025656,30.93,66.2534440995835
12292,-8.392226,-3.597011,4.018745,-0.034056,-0.068875,-0.018784,30.93,66.2437825046729
12302,-8.377871,-3.593421,4.035496,-0.031612,-0.060934,-0.011912,30.96,66.1218464567316
12312,-8.362316,-3.592823,4.037888,-0.029627,-0.051465,-0.004276,30.96,66.0754163491188
12322,-8.358727,-3.594618,4.04746,-0.025351,-0.03146,0.010537,30.94,66.0190366218748
12332,-8.363514,-3.601198,4.043272,-0.021533,-0.020617,0.017257,30.95,66.0573983480335
12342,-8.360522,-3.60718,4.037888,-0.019548,-0.008705,0.024587,30.95,66.0848166321097
12352,-8.363514,-3.594618,4.055236,-0.017562,0.001527,0.029932,30.93,65.9884653839342
12362,-8.359326,-3.608975,4.054638,-0.01405,0.013744,0.034056,30.93,65.9958945993041
12372,-8.379066,-3.601796,4.050451,-0.012981,0.025656,0.039095,30.92,66.0535642576784
12382,-8.36471,-3.611966,4.068397,-0.010996,0.037874,0.04383,30.92,65.9380380666322
12392,-8.380861,-3.612564,4.060022,-0.009774,0.048717,0.047342,30.91,66.0171403126244
12402,-8.391031,-3.600002,4.051647,-0.008094,0.060476,0.04948,30.91,66.0712414084054
12412,-8.405388,-3.608975,4.049852,-0.007789,0.069639,0.050702,30.94,66.1195077945629
12422,-8.414959,-3.607778,4.042076,-0.007789,0.077885,0.051771,30.94,66.17950387941
12432,-8.425727,-3.605386,4.029513,-0.007789,0.087201,0.052382,30.94,66.265979597756
12442,-8.433504,-3.608975,4.024727,-0.008552,0.093462,0.050855,30.94,66.3107489991223
12452,-8.455039,-3.617948,4.009772,-0.009927,0.098807,0.050244,30.93,66.4424863133811
12462,-8.455637,-3.605386,3.993023,-0.011606,0.102931,0.048717,30.93,66.5202416898114
12472,-8.476574,-3.605984,3.993621,-0.012981,0.105222,0.047037,30.88,66.5614417606917
12482,-8.509476,-3.609573,3.974478,-0.014661,0.105527,0.043982,30.88,66.7332280026665
12492,-8.498708,-3.605984,3.952345,-0.018326,0.103236,0.040317,30.94,66.8237353535261
12502,-8.517851,-3.604189,3.949354,-0.021075,0.098807,0.036652,30.95,66.8773509327306
12512,-8.528021,-3.60718,3.940979,-0.023671,0.093615,0.034056,30.95,66.9447509835121
12522,-8.537591,-3.607778,3.923631,-0.025656,0.086132,0.030696,30.92,67.0557893212754
12532,-8.532208,-3.617948,3.913461,-0.027336,0.078343,0.027031,30.92,67.1069250624815
12542,-8.540583,-3.605386,3.917051,-0.029016,0.069333,0.024129,30.89,67.0943381768884
12552,-8.548957,-3.597609,3.896712,-0.031154,0.058643,0.020617,30.89,67.2114479582891
12562,-8.56152,-3.597609,3.88714,-0.032376,0.047495,0.017715,30.93,67.2872004552205
12572,-8.551949,-3.605386,3.869194,-0.034208,0.035583,0.014661,30.93,67.3687592047145
12582,-8.563314,-3.589234,3.876971,-0.035736,0.022449,0.012217,30.94,67.3371265298219
12592,-8.550752,-3.597609,3.873382,-0.036805,0.009468,0.009927,30.94,67.337688472603
12602,-8.546564,-3.595814,3.877569,-0.038332,-0.003207,0.00672,30.96,67.3056535394684
12612,-8.543573,-3.599404,3.876971,-0.038637,-0.016341,0.00336,30.96,67.3057994636655
12622,-8.556136,-3.604189,3.864408,-0.039554,-0.02978,0.000458,30.91,67.4013674460117
12632,-8.538787,-3.580859,3.869792,-0.039859,-0.042608,-0.00168,30.91,67.3180659317732
12642,-8.544769,-3.594618,3.865007,-0.040164,-0.055436,-0.005192,30.94,67.3671056935387
12652,-8.545966,-3.588037,3.882355,-0.041233,-0.067501,-0.006872,30.94,67.2726366080499
12662,-8.518449,-3.580261,3.884748,-0.040775,-0.089797,-0.012523,30.91,67.1973439029725
12672,-8.522038,-3.583252,3.894319,-0.040623,-0.099113,-0.014966,30.93,67.1568400640013
12682,-8.502296,-3.581457,3.900301,-0.040775,-0.107512,-0.017104,30.93,67.0833520905861
12692,-8.504092,-3.579663,3.909274,-0.041692,-0.114079,-0.019395,30.92,67.0382317465023
12702,-8.498708,-3.579065,3.921836,-0.041539,-0.120035,-0.021686,30.92,66.9605121160011
12712,-8.472386,-3.573681,3.934398,-0.041997,-0.125686,-0.024435,30.93,66.8352193286331
12722,-8.71825,-3.232105,3.900301,-0.040775,-0.128129,-0.031765,30.93,67.2432381674289
12732,-8.407781,-3.555735,3.952943,-0.036652,-0.128129,-0.057269,30.94,66.5863562268176
12742,-8.454441,-3.580859,3.974478,-0.035583,-0.12706,-0.056047,30.94,66.5932521836584
12752,-8.397013,-3.577868,3.984648,-0.036041,-0.125533,-0.054367,30.92,66.4160883458596
12762,-8.410173,-3.572484,3.999005,-0.035277,-0.121104,-0.051007,30.92,66.363492085714
12772,-8.388638,-3.585046,4.014558,-0.035125,-0.115301,-0.0478,30.93,66.2472711516904
12782,-8.386245,-3.576672,4.009772,-0.034514,-0.109345,-0.043524,30.93,66.2597529019922
12792,-8.366504,-3.577868,4.023531,-0.034972,-0.101709,-0.039554,30.93,66.1462211569563
12802,-8.393424,-3.583252,4.041477,-0.033292,-0.092699,-0.034972,30.93,66.1143816087304
12812,-8.360522,-3.583252,4.044468,-0.033598,-0.083383,-0.031154,30.9,66.0281404500325
12822,-8.371889,-3.591627,4.061218,-0.033139,-0.072235,-0.026573,30.9,65.9723055853363
12832,-8.368299,-3.585645,4.064807,-0.032834,-0.060781,-0.016493,30.9,65.9402319111654
12842,-8.362915,-3.595216,4.070789,-0.032223,-0.036652,-0.011912,30.93,65.9060993143395
12852,-8.368299,-3.589832,4.074977,-0.031918,-0.02306,-0.007025,30.93,65.8907597271265
12862,-8.379665,-3.598207,4.071986,-0.030543,-0.010385,-0.001985,30.95,65.9386379199954
12872,-8.356933,-3.593421,4.073183,-0.030085,0.002443,0.003665,30.95,65.87897576468
12882,-8.377273,-3.596412,4.067799,-0.030238,0.015119,0.007941,30.93,65.9537800974232
12892,-8.366504,-3.597011,4.069593,-0.028711,0.026878,0.012828,30.93,65.9217646406369
12902,-8.380263,-3.604787,4.066004,-0.027642,0.039248,0.017715,30.89,65.9773342022321
12912,-8.38445,-3.586243,4.055236,-0.027794,0.050702,0.021838,30.89,66.025706557426
12922,-8.393424,-3.607778,4.04746,-0.027184,0.060934,0.025809,30.97,66.1054357222059
12932,-8.402397,-3.614359,4.052843,-0.026878,0.07086,0.031001,30.97,66.1024022830159
12942,-8.419147,-3.616153,4.033103,-0.025504,0.079565,0.034819,30.96,66.2430128626868
12952,-8.413763,-3.61376,4.038486,-0.02474,0.088423,0.038179,30.96,66.2012189306244
12962,-8.420342,-3.621537,4.021737,-0.024435,0.095295,0.041539,30.89,66.3099940877964
12972,-8.442476,-3.618546,4.007978,-0.023671,0.100487,0.043677,30.89,66.4260378025075
12982,-8.443673,-3.626323,4.001996,-0.023824,0.105374,0.046426,30.89,66.466904540045
12992,-8.467602,-3.621537,3.999603,-0.023976,0.10797,0.046731,30.89,66.5252414092353
13002,-8.474181,-3.622734,3.964309,-0.024282,0.110108,0.048106,30.89,66.7249557134888
13012,-8.487342,-3.619144,3.952345,-0.024282,0.108734,0.047953,30.89,66.8118108666317
13022,-8.496913,-3.626921,3.948158,-0.025198,0.104916,0.046578,30.93,66.8603804100926
13032,-8.501699,-3.622734,3.932006,-0.025656,0.100793,0.045357,30.91,66.951301464911
13042,-8.511868,-3.625725,3.921836,-0.025809,0.095753,0.043066,30.91,67.0281603357334
13052,-8.515458,-3.639483,3.911667,-0.027031,0.090103,0.040317,30.95,67.1008767653395
13062,-8.520243,-3.625126,3.907479,-0.026878,0.082009,0.036957,30.95,67.1201421558541
13072,-8.52443,-3.619742,3.892524,-0.027489,0.073151,0.032987,30.94,67.2026001783262
13082,-8.541779,-3.634698,3.89073,-0.028253,0.06353,0.029932,30.94,67.2601356629695
13092,-8.544769,-3.622135,3.878766,-0.028405,0.052534,0.025809,30.92,67.3182332611573
13102,-8.550154,-3.621537,3.878766,-0.029627,0.040928,0.021686,30.92,67.3286070738264
13112,-8.541181,-3.632903,3.872185,-0.030849,0.028405,0.016952,30.93,67.3548165990653
13122,-8.545368,-3.608377,3.862614,-0.031001,0.015882,0.012828,30.93,67.3926374616703
13132,-8.55135,-3.602993,3.870989,-0.031918,0.003512,0.008399,30.93,67.3560695836287
13142,-8.557332,-3.612564,3.865605,-0.032681,-0.010232,0.003818,30.93,67.4046072409441
13152,-8.547761,-3.603591,3.866203,-0.034056,-0.02306,-0.000153,30.91,67.3745026282593
13162,-8.544769,-3.605984,3.872185,-0.034667,-0.036194,-0.003818,30.91,67.339018217009
13172,-8.548359,-3.585645,3.871587,-0.034514,-0.0478,-0.007178,30.9,67.3321047242833
13182,-8.542974,-3.598805,3.882355,-0.036041,-0.071624,-0.012981,30.9,67.2757562495924
13192,-8.523833,-3.584448,3.888337,-0.038179,-0.082009,-0.014355,30.91,67.1930253271961
13202,-8.527422,-3.59043,3.896114,-0.038485,-0.092088,-0.01573,30.93,67.1645619261175
13212,-8.511868,-3.580859,3.90389,-0.039095,-0.101251,-0.016646,30.93,67.0835761664228
13222,-8.504689,-3.578466,3.906881,-0.040012,-0.109192,-0.016341,30.95,67.0510228654914
13232,-8.484351,-3.579663,3.913461,-0.041081,-0.116064,-0.016035,30.95,66.9755164244406
13242,-8.671589,-3.273979,3.878167,-0.039554,-0.121715,-0.018326,30.93,67.2955968438095
13252,-8.513663,-3.488736,3.938586,-0.034667,-0.120951,-0.039554,30.93,66.8255674889712
13262,-8.429317,-3.581457,3.936791,-0.032681,-0.122326,-0.043677,30.91,66.7397570688222
13272,-8.422137,-3.578466,3.948158,-0.032834,-0.123395,-0.036346,30.91,66.6620614553637
13282,-8.411968,-3.565904,3.975077,-0.031612,-0.123089,-0.030849,30.94,66.487427508226
13292,-8.404789,-3.582056,3.97747,-0.031307,-0.120646,-0.025962,30.94,66.4741482067588
13302,-8.399406,-3.568895,3.984648,-0.030085,-0.117897,-0.018631,30.93,66.4130699867396
13312,-8.377871,-3.573681,4.001996,-0.029016,-0.113163,-0.013744,30.93,66.2801665931694
13322,-8.406584,-3.58385,4.010969,-0.028253,-0.108276,-0.009163,30.92,66.3032116831107
13332,-8.37129,-3.573681,4.012764,-0.027184,-0.100945,-0.00336,30.92,66.2093595193441
13342,-8.392825,-3.573082,4.046861,-0.026114,-0.092852,0.000764,30.95,66.075563343256
13352,-8.394022,-3.579663,4.057031,-0.025809,-0.083689,0.008552,30.95,66.0307928801533
13362,-8.382656,-3.569493,4.053442,-0.024587,-0.062919,0.008705,30.93,66.0159233784174
13372,-8.396414,-3.58744,4.060022,-0.024893,-0.051618,0.011301,30.94,66.0273582363389
13382,-8.38445,-3.582654,4.067799,-0.02474,-0.039706,0.012065,30.94,65.9565410085781
13392,-8.402397,-3.582056,4.071388,-0.023976,-0.027031,0.012981,30.94,65.9757455921825
13402,-8.403594,-3.594618,4.083352,-0.02474,-0.014355,0.01237,30.94,65.9272629119436
13412,-8.402995,-3.58385,4.079165,-0.024435,-0.000916,0.012065,30.93,65.9379889319642
13422,-8.4012,-3.589832,4.074977,-0.023976,0.012217,0.011148,30.93,65.9615208681956
13432,-8.402397,-3.59402,4.073183,-0.024587,0.025504,0.010232,30.95,65.9773109506495
13442,-8.408977,-3.59043,4.077968,-0.025656,0.037568,0.009774,30.95,65.9631084984539
13452,-8.41137,-3.595814,4.06062,-0.025504,0.050549,0.008705,30.93,66.0638728020398
13462,-8.416754,-3.604189,4.063013,-0.026267,0.062003,0.008399,30.93,66.0704946463416
13472,-8.423933,-3.59402,4.052843,-0.027031,0.07254,0.00733,30.92,66.1297184796908
13482,-8.426325,-3.601796,4.050451,-0.027031,0.082009,0.007789,30.92,66.1543853591062
13492,-8.437093,-3.60718,4.042076,-0.0281,0.090103,0.005192,30.93,66.2259199953339
13502,-8.442476,-3.593421,4.028915,-0.027947,0.096975,0.005192,30.93,66.2937523429013
13512,-8.435298,-3.607778,4.021138,-0.028253,0.103542,0.006261,30.98,66.3322563124592
13522,-8.460423,-3.613162,3.99063,-0.028405,0.107665,0.006872,30.98,66.5497508779322
13532,-8.46461,-3.611966,3.968496,-0.0281,0.110414,0.009163,30.87,66.6735295332305
13542,-8.471789,-3.610171,3.966702,-0.029016,0.111177,0.009774,30.94,66.6962915269033
13552,-8.471789,-3.617948,3.954139,-0.029169,0.108581,0.011454,30.94,66.7691365637346
13562,-8.487342,-3.622734,3.938586,-0.029016,0.105832,0.013592,30.92,66.8872011598092
13572,-8.488539,-3.62393,3.919443,-0.028558,0.101251,0.015577,30.92,66.9913248727854
13582,-8.491529,-3.612564,3.913461,-0.029322,0.094684,0.017715,30.92,67.0189878620593
13592,-8.501101,-3.620341,3.906283,-0.029169,0.087201,0.019242,30.92,67.0831626975873
13602,-8.508279,-3.61735,3.886542,-0.029169,0.077733,0.019853,30.93,67.1991295953375
13612,-8.516056,-3.629912,3.88056,-0.028863,0.068264,0.021075,30.93,67.2573187210627
13622,-8.515458,-3.614359,3.878167,-0.028863,0.058796,0.021686,30.94,67.2552668925479
13632,-8.534002,-3.616751,3.866203,-0.028711,0.047342,0.021991,30.94,67.35793263854
13642,-8.52144,-3.61735,3.866203,-0.028405,0.035736,0.022602,30.91,67.333020405138
13652,-8.525627,-3.61376,3.873382,-0.028405,0.023518,0.022449,30.91,67.3006014758259
13662,-8.536993,-3.617948,3.858427,-0.027336,0.010537,0.021228,30.92,67.4059512543414
13672,-8.531011,-3.618546,3.866203,-0.027794,-0.00168,0.018937,30.92,67.3534226229482
13682,-8.545368,-3.620939,3.859025,-0.0281,-0.014661,0.017104,30.95,67.4222481191869
13692,-8.537591,-3.612564,3.870989,-0.028863,-0.026267,0.015272,30.95,67.3364120764066
13702,-8.528618,-3.61077,3.878167,-0.029016,-0.050091,0.008705,30.95,67.2789078951117
13712,-8.529815,-3.608975,3.87398,-0.029474,-0.060628,0.00504,30.91,67.3018367303869
13722,-8.520243,-3.610171,3.88714,-0.030085,-0.071319,0.000611,30.91,67.2141411722905
13732,-8.522635,-3.597011,3.89731,-0.030696,-0.080787,-0.001222,30.93,67.1541619239361
13742,-8.507083,-3.591627,3.89073,-0.03146,-0.088728,-0.004123,30.93,67.1523784255199
13752,-8.510075,-3.59402,3.905685,-0.03207,-0.095142,-0.00733,30.93,67.0818271214301
13762,-8.505288,-3.591029,3.92064,-0.032376,-0.102778,-0.010232,30.93,66.9907455816702
13772,-8.491529,-3.597011,3.934997,-0.032834,-0.107207,-0.012675,30.95,66.8921283173566
13782,-8.480762,-3.58744,3.934398,-0.034056,-0.112399,-0.014203,30.95,66.8646369031378
13792,-8.48136,-3.582056,3.942175,-0.033139,-0.114995,-0.015577,30.91,66.8202503556899
13802,-8.462217,-3.585645,3.949952,-0.033903,-0.115912,-0.017257,30.91,66.7427073513635
13812,-8.469396,-3.579663,3.96072,-0.034056,-0.117744,-0.016952,30.91,66.6957620257289
13822,-8.450253,-3.573082,3.974478,-0.034208,-0.116523,-0.016035,30.91,66.577572498563
13832,-8.447262,-3.571886,3.983452,-0.033903,-0.11469,-0.015882,30.94,66.5230521609823
13842,-8.438289,-3.568895,3.993621,-0.033903,-0.111941,-0.014203,30.94,66.448047150092
13852,-8.435298,-3.576073,3.999603,-0.032834,-0.108123,-0.012217,30.92,66.4167205943993
13862,-8.598608,-3.273979,4.010371,-0.03207,-0.102778,-0.013592,30.92,66.4489959062354
13872,-8.416155,-3.558726,4.031308,-0.030849,-0.096975,-0.02306,30.92,66.194042151748
13882,-8.370093,-3.565904,4.027121,-0.029016,-0.081398,-0.017562,30.92,66.1240627883573
13893,-8.389835,-3.561118,4.042076,-0.027489,-0.07254,-0.012217,30.92,66.083378096778
13902,-8.368897,-3.574279,4.042674,-0.026878,-0.062461,-0.008399,30.92,66.0473216505547
13912,-8.377273,-3.568297,4.052245,-0.02474,-0.051465,-0.000305,30.92,66.009542365274
