t_ms,ax,ay,az,gx,gy,gz,temp,ang_deg
12,-8.472386,-3.697509,3.833302,-0.081856,-0.150578,0.140346,31.5,67.4773536898211
22,-8.469396,-3.699304,3.866203,-0.080176,-0.175318,0.142332,31.54,67.299108066344
32,-8.471789,-3.7005,3.892524,-0.079565,-0.196851,0.143095,31.54,67.1662988566164
42,-8.459825,-3.699902,3.922434,-0.078496,-0.21533,0.14279,31.54,66.9840349636294
52,-8.448458,-3.701099,3.953541,-0.077885,-0.22938,0.138819,31.54,66.7983935712316
62,-8.443673,-3.698706,3.987041,-0.077427,-0.239459,0.135612,31.51,66.610731841069
72,-8.438888,-3.689733,4.022933,-0.077885,-0.247706,0.129045,31.51,66.4048705130906
82,-8.446664,-3.688536,4.051647,-0.077427,-0.251371,0.12034,31.54,66.2702649476257
92,-8.439486,-3.689733,4.076771,-0.077733,-0.251218,0.110567,31.54,66.1254769357383
102,-8.432307,-3.699902,4.10728,-0.079412,-0.248469,0.099266,31.55,65.9612019009552
112,-8.413164,-3.706482,4.125825,-0.080481,-0.24175,0.087812,31.55,65.8304469293522
122,-8.382656,-3.694518,4.177869,-0.082314,-0.232282,0.074831,31.56,65.4839552607493
132,-8.378469,-3.703491,4.186841,-0.089034,-0.203418,0.048106,31.54,65.4370289522212
142,-8.360522,-3.70409,4.205984,-0.092699,-0.186619,0.033445,31.54,65.2996578705968
152,-8.360522,-3.699902,4.226922,-0.097586,-0.168446,0.020006,31.59,65.187421633291
162,-8.346166,-3.704688,4.22094,-0.103389,-0.149662,0.005803,31.59,65.1916124142648
172,-8.349156,-3.695715,4.22752,-0.109345,-0.131641,-0.006567,31.52,65.1554441648704
182,-8.341978,-3.718446,4.211368,-0.117133,-0.114537,-0.018173,31.52,65.2453296883506
192,-8.342576,-3.707679,4.211368,-0.124006,-0.098502,-0.027947,31.56,65.23618569692
202,-8.340183,-3.709473,4.201797,-0.131641,-0.084605,-0.036805,31.56,65.2822581979004
212,-8.33121,-3.714857,4.198207,-0.13943,-0.072998,-0.044593,31.57,65.2865342605455
222,-8.333005,-3.711866,4.16411,-0.147677,-0.063835,-0.052076,31.57,65.46451889348
232,-8.325229,-3.711866,4.163511,-0.153785,-0.055436,-0.057421,31.54,65.4507711328403
242,-8.305488,-3.716054,4.133003,-0.160047,-0.049175,-0.060018,31.54,65.5710029014886
252,-8.307282,-3.72383,4.131208,-0.16585,-0.04444,-0.060476,31.56,65.5917832300834
262,-8.295319,-3.725625,4.105485,-0.170431,-0.041386,-0.058643,31.56,65.7021403937173
272,-8.285149,-3.714259,4.088138,-0.173486,-0.039095,-0.055741,31.54,65.7601277522322
282,-8.279166,-3.726223,4.080959,-0.175013,-0.038026,-0.050091,31.54,65.7964943291678
292,-8.25165,-3.719045,4.057629,-0.175013,-0.036957,-0.041539,31.55,65.8530153017943
302,-8.257033,-3.721437,4.04387,-0.174097,-0.03543,-0.020311,31.55,65.9394597438314
312,-8.234302,-3.722634,4.04746,-0.168141,-0.034972,-0.008247,31.51,65.8727760257493
322,-8.245667,-3.72383,4.04387,-0.163254,-0.034208,0.00504,31.54,65.9173584344275
332,-8.252846,-3.722634,4.042076,-0.15913,-0.032834,0.018326,31.54,65.9410925001176
342,-8.247462,-3.726223,4.042674,-0.154702,-0.031765,0.031154,31.61,65.92985215691
352,-8.249854,-3.722036,4.063013,-0.148593,-0.029932,0.043219,31.61,65.823678419107
362,-8.265409,-3.726223,4.064209,-0.142484,-0.027794,0.053909,31.58,65.8549398251617
372,-8.262416,-3.729812,4.076173,-0.136987,-0.024435,0.063225,31.58,65.7890546533359
382,-8.276175,-3.725027,4.079762,-0.131947,-0.020617,0.07025,31.57,65.7951833760641
392,-8.295319,-3.716054,4.093522,-0.126449,-0.015119,0.075442,31.57,65.7555431212193
402,-8.31147,-3.709473,4.107878,-0.122631,-0.008858,0.079107,31.54,65.7088465121424
412,-8.313264,-3.726223,4.121637,-0.119271,-0.002138,0.079412,31.54,65.6569672660826
422,-8.327621,-3.72383,4.123432,-0.115759,0.005803,0.077733,31.54,65.6762140625722
432,-8.336594,-3.721437,4.125825,-0.112246,0.013439,0.074678,31.54,65.6807422824167
442,-8.344969,-3.720839,4.13719,-0.109498,0.023518,0.07086,31.56,65.6390005470958
452,-8.352745,-3.721437,4.139583,-0.107207,0.032987,0.064904,31.56,65.643853223603
462,-8.370691,-3.720241,4.134798,-0.104916,0.043219,0.060476,31.54,65.7061105259434
472,-8.371889,-3.731009,4.116253,-0.103542,0.05284,0.049175,31.54,65.8153381079898
482,-8.390432,-3.742374,4.101298,-0.098197,0.069791,0.043982,31.54,65.9433381883926
492,-8.398808,-3.744169,4.088138,-0.094226,0.076816,0.040012,31.52,66.0312079505863
502,-8.4012,-3.748955,4.065406,-0.091324,0.081092,0.03711,31.52,66.1591026639614
512,-8.420342,-3.760321,4.04387,-0.087659,0.083078,0.034819,31.52,66.3220438200764
522,-8.419147,-3.766901,4.018745,-0.083841,0.081856,0.034514,31.52,66.456728916247
532,-8.425727,-3.765106,4.0008,-0.081245,0.077733,0.034208,31.57,66.5624388073909
542,-8.432905,-3.771687,3.987041,-0.078038,0.069486,0.035125,31.57,66.655250881157
552,-8.460423,-3.677171,4.077968,-0.08094,0.062156,0.035583,31.55,66.1518449494104
562,-8.443673,-3.798606,3.929613,-0.092393,0.057879,0.035583,31.55,67.0026546458226
572,-8.451449,-3.792624,3.918845,-0.090561,0.043371,0.040775,31.54,67.0694475764371
582,-8.472386,-3.698706,4.0008,-0.091935,0.028405,0.042302,31.54,66.5983039136519
592,-8.453244,-3.773481,3.894319,-0.101556,0.02306,0.041844,31.52,67.1845713729829
602,-8.487342,-3.713661,3.934997,-0.103847,0.010996,0.045815,31.52,66.9865967943623
612,-8.469396,-3.74058,3.902694,-0.111483,0.003665,0.043677,31.54,67.1436686077524
622,-8.467602,-3.722036,3.912863,-0.115912,-0.007636,0.043066,31.54,67.070003236502
632,-8.458628,-3.753142,3.921238,-0.121715,-0.017104,0.043524,31.52,67.0357095251332
642,-8.459227,-3.749553,3.911069,-0.127824,-0.031154,0.043982,31.52,67.0870932893277
652,-8.460423,-3.748955,3.923631,-0.141415,-0.061239,0.043219,31.54,67.0230245036053
662,-8.446664,-3.766303,3.932604,-0.148898,-0.077885,0.042455,31.51,66.9636267792525
672,-8.447861,-3.773481,3.949354,-0.154702,-0.093768,0.040623,31.51,66.8847916598814
682,-8.436494,-3.78724,3.945765,-0.159894,-0.109345,0.037568,31.51,66.8929729275681
692,-8.425727,-3.779463,3.975675,-0.163254,-0.122937,0.034514,31.51,66.7071057077819
702,-8.401799,-3.808775,3.978068,-0.167224,-0.133932,0.030696,31.51,66.6725511934425
712,-8.402397,-3.79741,3.991228,-0.167835,-0.143248,0.027184,31.51,66.5942877436152
722,-8.377273,-3.818347,4.0008,-0.168446,-0.147982,0.024893,31.54,66.511895703959
732,-8.342576,-3.823133,4.021737,-0.16753,-0.148746,0.022907,31.54,66.3346988275394
742,-8.327023,-3.830909,4.042674,-0.165239,-0.14615,0.02138,31.53,66.2000237746087
752,-8.309675,-3.850052,4.04746,-0.162643,-0.139888,0.020769,31.53,66.1571246502284
762,-8.283354,-3.853043,4.065406,-0.15913,-0.130878,0.022449,31.54,66.0106910273261
772,-8.266006,-3.84048,4.082156,-0.157145,-0.11973,0.025656,31.54,65.873850438899
782,-8.259426,-3.836891,4.095914,-0.152869,-0.105985,0.031154,31.55,65.7842646498111
792,-8.245069,-3.836891,4.095316,-0.149357,-0.09163,0.03543,31.55,65.7567216588536
802,-8.22772,-3.834498,4.095914,-0.145997,-0.0759,0.041539,31.53,65.7140441476475
812,-8.246863,-3.81057,4.08754,-0.142637,-0.060628,0.048869,31.53,65.7751950331714
822,-8.23131,-3.80399,4.078567,-0.135612,-0.032834,0.064904,31.54,65.7824399892414
832,-8.255836,-3.78724,4.061218,-0.132405,-0.02138,0.072846,31.54,65.9096299877871
842,-8.285748,-3.784249,4.05404,-0.129198,-0.012217,0.081245,31.54,66.008162965622
852,-8.298308,-3.776472,4.032505,-0.125838,-0.006872,0.089339,31.55,66.1404054430576
862,-8.305488,-3.772285,4.017549,-0.122784,-0.004734,0.096517,31.55,66.2301973289566
872,-8.331809,-3.755535,4.00379,-0.119882,-0.006261,0.102931,31.52,66.3420274354285
882,-8.338987,-3.750151,3.988237,-0.117439,-0.010232,0.108887,31.52,66.4338428198662
892,-8.368299,-3.742973,3.963711,-0.114995,-0.018326,0.114385,31.55,66.6174146465907
902,-8.385049,-3.731607,3.951149,-0.112857,-0.028253,0.120951,31.55,66.7078010461249
912,-8.399406,-3.715455,3.929613,-0.110414,-0.040775,0.125227,31.55,66.836158528903
922,-8.410173,-3.707679,3.921836,-0.108123,-0.055436,0.129045,31.55,66.892283738256
932,-8.435298,-3.701697,3.908078,-0.104916,-0.070402,0.133169,31.51,67.0110095668653
942,-8.423334,-3.687938,3.908676,-0.102473,-0.087659,0.13607,31.51,66.9709413895962
952,-8.454441,-3.681956,3.902694,-0.100487,-0.105069,0.137597,31.53,67.0608964977109
962,-8.464012,-3.673581,3.912265,-0.097586,-0.122937,0.139125,31.53,67.022623473853
972,-8.477771,-3.659822,3.916452,-0.095448,-0.141568,0.139735,31.49,67.0165724100965
982,-8.496315,-3.661617,3.936193,-0.093157,-0.159589,0.136681,31.49,66.9524759396843
992,-8.501101,-3.647858,3.956532,-0.090255,-0.19227,0.129351,31.52,66.8435809211137
1002,-8.505887,-3.646662,3.982853,-0.084605,-0.207389,0.122326,31.5,66.7147405457252
1012,-8.501699,-3.643671,4.00379,-0.081398,-0.219301,0.115148,31.5,66.5941163494795
1022,-8.499306,-3.641278,4.024727,-0.080023,-0.228769,0.105069,31.55,66.4778571366724
1032,-8.487342,-3.639483,4.051049,-0.07758,-0.234267,0.094837,31.55,66.3141907656282
1042,-8.475378,-3.644269,4.089932,-0.075747,-0.237321,0.082772,31.53,66.0912588441957
1052,-8.440681,-3.632903,4.112065,-0.074067,-0.235947,0.072693,31.53,65.8922268901353
1062,-8.423334,-3.651447,4.141976,-0.073457,-0.230907,0.062003,31.54,65.7169957929856
1072,-8.413763,-3.643072,4.168297,-0.072693,-0.22205,0.051618,31.54,65.5521729901255
1082,-8.380861,-3.638287,4.197609,-0.07254,-0.209221,0.040317,31.56,65.3244348488242
1092,-8.349156,-3.643072,4.208377,-0.073762,-0.191964,0.032223,31.56,65.2038186386591
1102,-8.322237,-3.658028,4.239483,-0.074678,-0.172569,0.023824,31.54,64.9978220054938
1112,-8.295319,-3.659822,4.241877,-0.075595,-0.149967,0.016952,31.54,64.9275550167705
1122,-8.279166,-3.671786,4.264608,-0.078191,-0.124311,0.011606,31.54,64.7856234368695
1132,-8.253444,-3.681956,4.280162,-0.081398,-0.096975,0.00733,31.54,64.6577181175994
1142,-8.232506,-3.673581,4.284947,-0.085368,-0.068264,0.00336,31.54,64.5775306340987
1152,-8.219346,-3.688536,4.273581,-0.089186,-0.038943,0.001833,31.54,64.6219539135187
1162,-8.18764,-3.719643,4.269393,-0.09331,-0.008858,0.002138,31.54,64.6040280520786
1172,-8.204989,-3.716054,4.252644,-0.101556,0.050091,0.003054,31.54,64.7263804505192
1182,-8.202596,-3.721437,4.237091,-0.10568,0.076358,0.005956,31.54,64.8074394951086
1192,-8.213365,-3.725625,4.214957,-0.109192,0.099876,0.009316,31.55,64.9509765408531
1202,-8.216354,-3.732804,4.202993,-0.113468,0.120035,0.01237,31.55,65.0272202123887
1212,-8.243275,-3.74058,4.177869,-0.116675,0.138514,0.016646,31.55,65.2253810546416
1222,-8.257631,-3.744768,4.156931,-0.118966,0.151953,0.0197,31.55,65.3702180063605
1232,-8.279166,-3.745964,4.135396,-0.120951,0.162796,0.023671,31.57,65.5306558370791
1242,-8.307282,-3.75075,4.11745,-0.123853,0.170737,0.026267,31.57,65.6896995055707
1252,-8.329416,-3.754339,4.092923,-0.125533,0.173333,0.026878,31.53,65.8686371809801
1262,-8.348558,-3.759723,4.073183,-0.12706,0.174249,0.027031,31.53,66.0176008930272
1272,-8.369495,-3.768098,4.050451,-0.129198,0.173333,0.027184,31.56,66.1885118100611
1282,-8.38804,-3.76391,4.032505,-0.131031,0.16921,0.024893,31.56,66.3172327342623
1292,-8.4012,-3.765106,4.017549,-0.1321,0.161727,0.022144,31.53,66.4239913818645
1302,-8.426923,-3.759125,3.999005,-0.133474,0.153785,0.0197,31.53,66.5687709497559
1312,-8.429914,-3.757928,3.975675,-0.135001,0.143706,0.014355,31.55,66.6959037057348
1322,-8.443074,-3.762115,3.964309,-0.135154,0.130114,0.009927,31.55,66.7863024053341
1332,-8.465807,-3.767499,3.940381,-0.135307,0.115759,0.005192,31.54,66.9629231578153
1342,-8.462815,-3.75733,3.928416,-0.133779,0.084452,-0.005803,31.54,67.0103428153236
1352,-8.455039,-3.754339,3.921836,-0.131489,0.067653,-0.010537,31.58,67.0263522748758
1362,-8.450253,-3.753142,3.924229,-0.12874,0.050702,-0.013439,31.55,67.0029648170385
1372,-8.456833,-3.738187,3.913461,-0.125838,0.032987,-0.016952,31.55,67.0594352351315
1382,-8.456833,-3.744169,3.917051,-0.122173,0.016341,-0.018784,31.52,67.0459567717982
1392,-8.44128,-3.75075,3.918247,-0.118355,-0.000916,-0.019548,31.52,67.0139484878789
1402,-8.4347,-3.729214,3.917649,-0.114232,-0.016035,-0.018784,31.55,66.9841772294051
1412,-8.431709,-3.736392,3.911667,-0.109192,-0.03146,-0.017868,31.55,67.0160480732528
1422,-8.427522,-3.727419,3.930809,-0.105527,-0.045815,-0.01573,31.57,66.8986029059112
1432,-8.414959,-3.725625,3.929613,-0.102014,-0.057879,-0.013134,31.57,66.8774614839082
1442,-8.401799,-3.718446,3.936791,-0.098502,-0.069944,-0.00901,31.53,66.8059940797887
1452,-8.394022,-3.723232,3.938586,-0.094837,-0.079718,-0.004123,31.53,66.7848531550825
1462,-8.398808,-3.719045,3.952943,-0.090408,-0.08995,0.00168,31.52,66.7153037630558
1472,-8.376076,-3.705286,3.952943,-0.086285,-0.09896,0.007789,31.52,66.6554651442221
1482,-8.390432,-3.702893,3.954139,-0.08323,-0.106901,0.013439,31.57,66.6768182176911
1492,-8.379066,-3.708277,3.945765,-0.079871,-0.114843,0.020769,31.57,66.7022914064822
1502,-8.379066,-3.721437,3.965506,-0.074678,-0.12202,0.027184,31.52,66.6103934595575
1512,-8.368897,-3.708277,3.961916,-0.069944,-0.138666,0.040928,31.52,66.5959545459653
1522,-8.377273,-3.72383,3.960122,-0.060934,-0.14615,0.047953,31.57,66.6372263070565
1532,-8.379665,-3.718446,3.961318,-0.054978,-0.154549,0.054825,31.53,66.6309289503208
1542,-8.373683,-3.722634,3.958925,-0.048717,-0.163559,0.061087,31.53,66.6349610458408
1552,-8.389236,-3.720241,3.972086,-0.043066,-0.17318,0.066737,31.5,66.5958305267743
1562,-8.385648,-3.726821,3.964907,-0.036957,-0.182191,0.072082,31.5,66.6322048128293
1572,-8.382057,-3.71725,3.97747,-0.030696,-0.191201,0.076053,31.55,66.5498015136471
1582,-8.385648,-3.731607,4.0008,-0.024435,-0.200364,0.07926,31.55,66.4480706963363
1592,-8.391031,-3.729214,4.006782,-0.018479,-0.208305,0.084605,31.54,66.4257273216522
1602,-8.380263,-3.729214,4.025924,-0.013592,-0.214872,0.085827,31.54,66.3028703201242
1612,-8.383853,-3.732205,4.046263,-0.009927,-0.219911,0.086437,31.54,66.2067986036725
1622,-8.38146,-3.731607,4.069593,-0.007025,-0.223424,0.086437,31.54,66.079340739157
1632,-8.379066,-3.731607,4.092325,-0.005498,-0.224951,0.086132,31.54,65.95574523214
1642,-8.374281,-3.732205,4.108477,-0.005956,-0.222966,0.083841,31.54,65.8620337388931
1652,-8.36112,-3.731009,4.138387,-0.005803,-0.219606,0.081551,31.55,65.6772219330573
1662,-8.349156,-3.738786,4.164708,-0.007483,-0.212887,0.078649,31.55,65.5223106507181
1672,-8.339585,-3.734,4.218546,-0.010385,-0.203265,0.075595,31.54,65.2181358061568
1682,-8.315059,-3.74058,4.24068,-0.014355,-0.173638,0.065057,31.54,65.0566260074114
1692,-8.295916,-3.731607,4.259224,-0.02474,-0.154396,0.059712,31.59,64.909859086489
1702,-8.283952,-3.731607,4.284349,-0.031001,-0.133321,0.052687,31.54,64.7536852410907
1712,-8.289336,-3.741776,4.294518,-0.036957,-0.10965,0.047342,31.54,64.7233704020447
1722,-8.276773,-3.737589,4.307679,-0.043677,-0.083536,0.041386,31.54,64.6234692491277
1732,-8.265409,-3.735795,4.31725,-0.050549,-0.055283,0.034819,31.54,64.5470271773935
1742,-8.258228,-3.738187,4.319643,-0.058032,-0.026573,0.028405,31.52,64.5210712020365
1752,-8.249854,-3.733402,4.319045,-0.064294,0.003207,0.021533,31.52,64.5005645596035
1762,-8.252846,-3.731009,4.307679,-0.070555,0.033292,0.014813,31.52,64.563451010457
1772,-8.236693,-3.734598,4.314857,-0.076511,0.062308,0.008399,31.52,64.4938829195768
1782,-8.243275,-3.728018,4.290929,-0.08262,0.091324,0.002291,31.54,64.6255429368796
1792,-8.253444,-3.728018,4.269992,-0.087659,0.117897,-0.003207,31.54,64.7565185171629
1802,-8.255239,-3.719643,4.255037,-0.093157,0.143706,-0.009621,31.54,64.8295714739145
1812,-8.253444,-3.722036,4.232903,-0.096517,0.167835,-0.013592,31.54,64.9428189760969
1822,-8.26481,-3.739383,4.206582,-0.099266,0.188146,-0.016952,31.55,65.1219112375886
1832,-8.269596,-3.717848,4.183851,-0.101709,0.204793,-0.021838,31.55,65.2293942229323
1842,-8.285748,-3.722634,4.156931,-0.103084,0.218995,-0.023976,31.56,65.4097083010169
1852,-8.315658,-3.719045,4.094718,-0.104,0.228769,-0.02642,31.56,65.7958974463149
1862,-8.324032,-3.721437,4.064209,-0.101404,0.237932,-0.026878,31.47,65.9758952673183
1872,-8.338987,-3.708875,4.03729,-0.100793,0.236863,-0.026878,31.52,66.1370232551246
1882,-8.344969,-3.709473,4.007978,-0.097891,0.233809,-0.025198,31.52,66.3042951239314
1892,-8.355139,-3.699304,3.987639,-0.0956,0.227089,-0.02306,31.55,66.4232754051405
1902,-8.363514,-3.708875,3.962514,-0.093157,0.217468,-0.019242,31.55,66.5821206066932
1912,-8.370691,-3.695116,3.955934,-0.090561,0.205862,-0.014508,31.58,66.6191007310836
1922,-8.383254,-3.69392,3.9338,-0.087354,0.19227,-0.008858,31.58,66.7609716462234
1932,-8.398808,-3.684947,3.913461,-0.083536,0.178067,-0.003512,31.52,66.892447625551
1942,-8.405987,-3.686741,3.91406,-0.079718,0.160658,0.003512,31.52,66.9057229444672
1952,-8.407781,-3.675375,3.896114,-0.076053,0.142942,0.012217,31.52,66.9940281878374
1962,-8.41436,-3.683152,3.894319,-0.072998,0.124769,0.018173,31.52,67.0240415942297
1972,-8.430512,-3.671188,3.875774,-0.069791,0.106443,0.026878,31.54,67.1445251329748
1982,-8.438888,-3.674777,3.888337,-0.066584,0.086285,0.033445,31.54,67.0984372825856
1992,-8.456833,-3.663411,3.87398,-0.063988,0.066584,0.040623,31.51,67.2008438853964
2002,-8.455039,-3.665804,3.870989,-0.061392,0.046578,0.046884,31.51,67.2151065260519
2012,-8.467003,-3.665804,3.864408,-0.058032,0.02642,0.052076,31.51,67.2742112260616
2022,-8.502895,-3.677171,3.876971,-0.056047,0.005345,0.055436,31.51,67.2906529634811
2032,-8.489137,-3.676572,3.877569,-0.053298,-0.035736,0.060476,31.53,67.2591347026317
2042,-8.505887,-3.667599,3.882355,-0.047189,-0.055741,0.059712,31.56,67.2600121843931
2052,-8.512466,-3.676572,3.89073,-0.043219,-0.076205,0.058185,31.56,67.2371369154274
2062,-8.526823,-3.678366,3.889533,-0.040317,-0.096059,0.053603,31.55,67.2740079357364
2072,-8.513663,-3.681956,3.905087,-0.037874,-0.115454,0.048717,31.55,67.1688936169536
2082,-8.516654,-3.684349,3.91406,-0.033903,-0.133627,0.042761,31.54,67.1300017847097
2092,-8.522635,-3.68734,3.927818,-0.030085,-0.151342,0.035583,31.54,67.072712222158
2102,-8.505887,-3.690929,3.934398,-0.027184,-0.167988,0.026878,31.55,67.0073471729526
2112,-8.506484,-3.70409,3.942773,-0.024435,-0.182801,0.017104,31.55,66.9763923814039
2122,-8.492128,-3.704688,3.957131,-0.021228,-0.196546,0.008247,31.56,66.8725006444685
2132,-8.486743,-3.713661,3.961318,-0.018326,-0.209679,-0.001374,31.56,66.8476056939259
2142,-8.468798,-3.725027,3.975675,-0.016188,-0.220522,-0.010843,31.55,66.745948651447
2152,-8.465807,-3.711268,3.99721,-0.014661,-0.229533,-0.019242,31.55,66.6148053741625
2162,-8.447861,-3.737589,4.017549,-0.012675,-0.236558,-0.027947,31.53,66.4954970766543
2172,-8.425727,-3.736991,4.026522,-0.012675,-0.242361,-0.036652,31.53,66.4020991138213
2182,-8.401799,-3.734598,4.049254,-0.011606,-0.246026,-0.042455,31.55,66.2311544777959
2192,-8.394022,-3.741179,4.084548,-0.011912,-0.248317,-0.046273,31.55,66.0369625367439
2202,-8.356933,-3.756732,4.1007,-0.012065,-0.247248,-0.053756,31.55,65.8889715403205
2212,-8.323434,-3.77408,4.11386,-0.01405,-0.240223,-0.053756,31.57,65.7656707337993
2222,-8.308478,-3.783053,4.13719,-0.016341,-0.233351,-0.052687,31.57,65.6208178198796
2232,-8.288139,-3.788436,4.163511,-0.018021,-0.22266,-0.050244,31.55,65.445310684385
2242,-8.262416,-3.801597,4.17069,-0.019242,-0.211054,-0.045815,31.55,65.3653349008562
2252,-8.253444,-3.784249,4.202394,-0.022297,-0.19792,-0.04047,31.56,65.1635531316384
2262,-8.231908,-3.795615,4.208975,-0.024587,-0.180969,-0.034208,31.56,65.0936321519445
2272,-8.203195,-3.799803,4.217948,-0.027336,-0.161879,-0.025809,31.54,64.9880975818667
2282,-8.136195,-3.516851,4.716852,-0.04383,-0.143095,-0.014508,31.54,61.9802637112972
2292,-8.148159,-3.814159,4.211967,-0.104305,-0.127365,0.001833,31.53,64.9124687834521
2302,-8.186445,-3.805784,4.226922,-0.110567,-0.106749,0.015577,31.53,64.9105490325781
2312,-8.149356,-3.814758,4.228117,-0.108429,-0.084452,0.026267,31.53,64.8314453527694
2322,-8.160722,-3.804588,4.243671,-0.106596,-0.061087,0.035736,31.53,64.7650864757995
2332,-8.156534,-3.805186,4.234099,-0.10568,-0.037415,0.045509,31.57,64.8062618225943
2342,-8.167302,-3.803392,4.253242,-0.103694,-0.013134,0.053756,31.57,64.7286823320949
2352,-8.172686,-3.802195,4.252644,-0.102014,0.013439,0.061545,31.54,64.742530583362
2362,-8.17448,-3.795017,4.244269,-0.101404,0.038026,0.067501,31.54,64.7826631262564
2372,-8.197212,-3.768696,4.237091,-0.10064,0.063225,0.072693,31.52,64.8434957566366
2382,-8.209774,-3.650251,4.400401,-0.106443,0.115454,0.07422,31.56,63.905940443376
2392,-8.217552,-3.782454,4.197011,-0.125227,0.149357,0.069944,31.56,65.1111040930383
2402,-8.246863,-3.76391,4.193422,-0.124617,0.170737,0.069333,31.54,65.1754542235296
2412,-8.261221,-3.751946,4.173083,-0.122173,0.188757,0.068111,31.54,65.3008924189684
2422,-8.277372,-3.753741,4.156931,-0.120035,0.203876,0.064752,31.55,65.4220265896334
2432,-8.302496,-3.748955,4.133003,-0.117286,0.217926,0.061239,31.55,65.5964894739176
2442,-8.321041,-3.743571,4.129414,-0.114385,0.228769,0.056963,31.54,65.6499198436804
2452,-8.340781,-3.751946,4.098307,-0.111636,0.236252,0.052687,31.54,65.8624713610178
2462,-8.368299,-3.732205,4.079762,-0.110414,0.241292,0.047189,31.57,65.9989601571966
2472,-8.39462,-3.722036,4.046263,-0.108429,0.242514,0.041997,31.57,66.219953878952
2482,-8.420342,-3.715455,4.027121,-0.105374,0.239001,0.036194,31.5,66.3678329871342
2492,-8.446067,-3.70409,3.998407,-0.102473,0.233503,0.031154,31.5,66.5611219157693
2502,-8.458031,-3.702893,3.972684,-0.099724,0.224188,0.0281,31.57,66.7194076800569
2512,-8.478967,-3.696313,3.940979,-0.096822,0.210901,0.023213,31.57,66.922652452189
2522,-8.489137,-3.709473,3.921836,-0.094837,0.195019,0.020311,31.52,67.0555135461145
2532,-8.507681,-3.686741,3.893721,-0.09163,0.176082,0.018479,31.52,67.2206430643876
2542,-8.52144,-3.692126,3.855436,-0.087659,0.154243,0.017257,31.54,67.4543529117467
2552,-8.526823,-3.692724,3.845266,-0.081551,0.103084,0.016952,31.54,67.5191779212524
2562,-8.52144,-3.692724,3.829713,-0.078191,0.074373,0.017868,31.53,67.5903707348389
2572,-8.532208,-3.686741,3.821338,-0.075442,0.045662,0.020769,31.55,67.6508286382464
2582,-8.52443,-3.692724,3.79741,-0.071929,0.015119,0.023671,31.55,67.7668328792511
2592,-8.515458,-3.683152,3.808775,-0.067806,-0.014508,0.028558,31.55,67.6807156221319
2602,-8.507083,-3.685545,3.811767,-0.064294,-0.045509,0.032529,31.55,67.650275397703
2612,-8.504689,-3.690929,3.816552,-0.060476,-0.075136,0.037415,31.54,67.6248658568903
2622,-8.485548,-3.698706,3.821936,-0.055894,-0.104458,0.043066,31.54,67.5649094426219
2632,-8.472386,-3.702893,3.836293,-0.05284,-0.131336,0.048258,31.54,67.4662644919362
2642,-8.453843,-3.698706,3.851846,-0.048411,-0.156534,0.054062,31.54,67.3429580244546
2652,-8.444869,-3.702295,3.866802,-0.043982,-0.178984,0.060018,31.54,67.2489026098596
2662,-8.429914,-3.707081,3.893721,-0.040775,-0.199753,0.063377,31.54,67.0805627275837
2672,-8.425727,-3.704688,3.917649,-0.036346,-0.215941,0.068111,31.58,66.9436320347921
2682,-8.412566,-3.713661,3.942175,-0.032987,-0.228158,0.071471,31.58,66.7955018767882
2692,-8.38804,-3.705884,3.976273,-0.029322,-0.237474,0.07422,31.57,66.5580821303761
2702,-8.376076,-3.713063,4.002594,-0.026267,-0.242514,0.075289,31.57,66.4013793694792
2712,-8.370093,-3.718446,4.057031,-0.024282,-0.243888,0.075136,31.56,66.1085297417727
2722,-8.349755,-3.722634,4.079165,-0.022755,-0.236252,0.071777,31.56,65.953578993068
2732,-8.338388,-3.713661,4.106084,-0.021533,-0.227089,0.067501,31.54,65.7801181712836
2742,-8.338987,-3.726223,4.11386,-0.022297,-0.217315,0.06185,31.51,65.7528492059255
2752,-8.322835,-3.729812,4.143172,-0.023213,-0.203724,0.057727,31.51,65.568797187693
2762,-8.31446,-3.732205,4.158128,-0.024587,-0.187994,0.051313,31.57,65.4751540767274
2772,-8.324032,-3.722634,4.172484,-0.027642,-0.17089,0.044593,31.57,65.4119645910713
2782,-8.315658,-3.733402,4.183851,-0.031001,-0.153022,0.037721,31.52,65.345218531618
2792,-8.315658,-3.739982,4.188038,-0.034208,-0.135612,0.029322,31.52,65.3299135379708
2802,-8.310871,-3.725625,4.192225,-0.038637,-0.118202,0.022297,31.51,65.283727015466
2812,-8.319845,-3.729214,4.191029,-0.042761,-0.100335,0.013897,31.51,65.3129858280254
2822,-8.329416,-3.73041,4.188636,-0.047342,-0.085368,0.007025,31.54,65.3473712908884
2832,-8.324032,-3.734598,4.186841,-0.051007,-0.070708,-0.000458,31.54,65.3490645123973
2842,-8.328817,-3.725027,4.185047,-0.056963,-0.057269,-0.006109,31.54,65.359452644298
2852,-8.338987,-3.738786,4.169494,-0.061392,-0.04612,-0.012523,31.54,65.4755333606602
2862,-8.34138,-3.729812,4.159324,-0.066737,-0.036499,-0.017562,31.54,65.52482455872
2872,-8.346166,-3.735795,4.154539,-0.070097,-0.028405,-0.021991,31.54,65.5657684017424
2882,-8.336594,-3.727419,4.141378,-0.075136,-0.020464,-0.02642,31.56,65.6054991562338
2892,-8.345568,-3.725027,4.13719,-0.078649,-0.014203,-0.030696,31.56,65.6443088599586
2902,-8.340781,-3.721437,4.12403,-0.086437,-0.006414,-0.032834,31.55,65.6990970765706
2912,-8.337791,-3.722634,4.121039,-0.089339,-0.002902,-0.033139,31.59,65.7094096910238
2922,-8.340183,-3.717848,4.119842,-0.091935,0.000305,-0.032987,31.59,65.7162016568772
2932,-8.333005,-3.720241,4.118048,-0.092699,0.003971,-0.03146,31.56,65.7124263948559
2942,-8.335996,-3.71725,4.113262,-0.094073,0.007483,-0.031765,31.56,65.740953903609
2952,-8.324032,-3.715455,4.118646,-0.095142,0.011912,-0.029016,31.51,65.6854036558081
2962,-8.318049,-3.716054,4.11386,-0.094226,0.01741,-0.025504,31.51,65.6980860600247
2972,-8.317451,-3.709473,4.110869,-0.093921,0.022297,-0.024587,31.55,65.7060983816093
2982,-8.31446,-3.707679,4.116851,-0.091783,0.029322,-0.021991,31.55,65.6666630988388
2992,-8.310272,-3.701697,4.112065,-0.090103,0.036499,-0.019395,31.57,65.6768856335716
3002,-8.300103,-3.70409,4.110869,-0.086743,0.044746,-0.014966,31.57,65.6634786812473
3012,-8.303095,-3.701697,4.115057,-0.082925,0.053451,-0.011912,31.57,65.6457280318949
3022,-8.292925,-3.698706,4.115655,-0.078649,0.063988,-0.007636,31.57,65.6176970190084
3032,-8.304291,-3.697509,4.119842,-0.074067,0.074067,-0.005192,31.53,65.6192536332302
3042,-8.309077,-3.702893,4.109673,-0.069028,0.084452,-0.003054,31.53,65.6879668333059
3052,-8.288737,-3.705286,4.100101,-0.064294,0.094226,0,31.52,65.6964656939936
3062,-8.30489,-3.701697,4.094718,-0.058948,0.104763,0.00336,31.52,65.7560748206065
3072,-8.322835,-3.698107,4.073781,-0.0478,0.120646,0.00733,31.54,65.9009257726992
3082,-8.329416,-3.692724,4.067799,-0.041692,0.126449,0.00901,31.56,65.9412646737004
3092,-8.34138,-3.70409,4.055834,-0.036652,0.132252,0.010385,31.56,66.0402994214474
3102,-8.34138,-3.7005,4.038486,-0.032529,0.135612,0.011301,31.53,66.1279260837281
3112,-8.365907,-3.692126,4.03729,-0.028863,0.135918,0.012217,31.53,66.1783635813717
3122,-8.37129,-3.702295,4.015755,-0.024435,0.135154,0.010996,31.54,66.3122017856804
3132,-8.391629,-3.707081,4.00379,-0.020006,0.13271,0.01237,31.54,66.4221498956755
3143,-8.4012,-3.71725,3.982255,-0.016493,0.126602,0.013592,31.57,66.5645387078392
3152,-8.404789,-3.710072,3.961916,-0.012981,0.118661,0.013744,31.57,66.6722733034187
3162,-8.426325,-3.724428,3.94397,-0.010537,0.107818,0.014203,31.53,66.8242219806802
3172,-8.427522,-3.731009,3.94397,-0.007483,0.094684,0.014508,31.53,66.832672553118
3182,-8.432905,-3.724428,3.925426,-0.005192,0.078954,0.01573,31.53,66.9352501468193
3192,-8.459825,-3.744169,3.921238,-0.002291,0.06185,0.016799,31.53,67.0300564284528
3202,-8.464012,-3.744768,3.905685,-0.000764,0.042455,0.017562,31.54,67.1207909020289
3212,-8.449656,-3.75733,3.898506,0.001222,0.023213,0.020159,31.54,67.140729707961
3222,-8.47119,-3.760919,3.891926,0.003054,0.001985,0.021838,31.53,67.2220865645863
3232,-8.468199,-3.762714,3.905685,0.004887,-0.018937,0.023518,31.53,67.1453833116293
3242,-8.461619,-3.766901,3.918247,0.006261,-0.060781,0.027031,31.55,67.0698956172115
3252,-8.455637,-3.772883,3.926622,0.007483,-0.079412,0.028558,31.55,67.0192318643705
3262,-8.438289,-3.742973,4.021737,0.008094,-0.096669,0.031001,31.55,66.4587317866099
3272,-8.453244,-3.649653,4.269992,-0.025198,-0.104611,0.03207,31.56,65.1203189374916
3282,-8.42812,-3.786044,3.934997,-0.060476,-0.108887,0.032223,31.56,66.9312778500278
3292,-8.416754,-3.77049,3.946961,-0.057727,-0.122784,0.033903,31.56,66.8309551054165
3302,-8.404191,-3.788436,3.968496,-0.054062,-0.134238,0.036805,31.56,66.7087164438547
3312,-8.395817,-3.778267,3.988237,-0.051313,-0.143401,0.038026,31.51,66.5785037063339
3322,-8.276175,-4.061218,4.612764,-0.018784,-0.14508,0.022755,31.51,63.4185341979884
3332,-8.379665,-3.619144,4.191627,-0.014203,-0.134848,-0.011912,31.53,65.3347139434731
3342,-8.33121,-3.823133,3.970291,-0.04444,-0.140194,-0.007941,31.53,66.5811757388731
3352,-8.355738,-3.766901,3.999603,-0.036346,-0.147066,-0.002749,31.57,66.4248939879693
3362,-8.352745,-3.768098,4.013362,-0.032529,-0.152105,-0.000305,31.57,66.3475443968094
3372,-8.324032,-3.779463,4.030112,-0.0281,-0.154549,0.003512,31.54,66.2101511407204
3382,-8.323434,-3.753741,4.045665,-0.024893,-0.154243,0.006109,31.54,66.1027014742714
3392,-8.291729,-3.776472,4.063013,-0.023366,-0.152105,0.007483,31.53,65.9662523417532
3402,-8.302496,-3.753741,4.115057,-0.023213,-0.145844,0.009468,31.53,65.6948129279871
3412,-8.28156,-3.748357,4.116851,-0.023213,-0.13775,0.010385,31.5,65.6351030617918
3422,-8.303095,-3.732804,4.14736,-0.027794,-0.115606,0.010385,31.53,65.5072000589655
3432,-8.273782,-3.734,4.159324,-0.032376,-0.102931,0.010537,31.53,65.3823120914957
3442,-8.286345,-3.721437,4.168896,-0.036346,-0.087506,0.010079,31.52,65.3474667973305
3452,-8.267202,-3.719643,4.174878,-0.040164,-0.072082,0.009316,31.52,65.2726856994413
3462,-8.277372,-3.721437,4.179663,-0.043219,-0.056047,0.007941,31.57,65.2717757776897
3472,-8.280961,-3.704688,4.189833,-0.04612,-0.039248,0.008247,31.57,65.2102257204263
3482,-8.272586,-3.706482,4.182056,-0.048258,-0.021533,0.008858,31.53,65.2341166867075
3492,-8.28156,-3.691527,4.179663,-0.04948,-0.004887,0.00901,31.53,65.2516139815615
3502,-8.272586,-3.680161,4.16411,-0.04948,0.010537,0.009163,31.56,65.3019595318941
3512,-8.288139,-3.680161,4.154539,-0.049786,0.025045,0.009927,31.56,65.3860176778385
3522,-8.302496,-3.671188,4.141976,-0.048106,0.040317,0.010385,31.55,65.4742993091368
3532,-8.301898,-3.677171,4.142574,-0.046578,0.053145,0.010843,31.55,65.4756429278586
3542,-8.321639,-3.680759,4.12044,-0.044288,0.063683,0.012217,31.57,65.6375874176105
3552,-8.321639,-3.658626,4.107878,-0.04047,0.073304,0.012828,31.57,65.6821556147217
3562,-8.33121,-3.667599,4.092923,-0.036194,0.081703,0.01237,31.53,65.7896432303281
3572,-8.35454,-3.662813,4.092325,-0.03146,0.087201,0.012981,31.53,65.8384416893883
3582,-8.387442,-3.657429,4.064209,-0.02642,0.090408,0.01405,31.54,66.0508038333985
3592,-8.38146,-3.649653,4.05404,-0.017562,0.092088,0.013439,31.53,66.0840718880888
3602,-8.390432,-3.659224,4.050451,-0.012828,0.090408,0.011454,31.53,66.1308098110065
3612,-8.409575,-3.663411,4.039683,-0.008399,0.088575,0.009927,31.5,66.2315618823381
3622,-8.417352,-3.652644,4.032505,-0.004887,0.084758,0.007789,31.5,66.2756562555944
3632,-8.423933,-3.649653,4.031308,-0.002443,0.079565,0.006567,31.56,66.2930642805572
3642,-8.432905,-3.655635,4.021737,0.000916,0.074678,0.004887,31.56,66.3674758422523
3652,-8.4347,-3.658028,4.028317,0.002749,0.068417,0.000916,31.54,66.3390128594498
3662,-8.457432,-3.665804,4.027719,0.003512,0.063225,-0.001374,31.54,66.3968776549425
3672,-8.44128,-3.674777,4.021737,0.004887,0.05681,-0.00504,31.57,66.402473558913
3682,-8.444869,-3.675974,4.023531,0.005651,0.050244,-0.008094,31.57,66.4017015582743
3692,-8.448458,-3.669394,4.030112,0.004734,0.044135,-0.011454,31.52,66.3688569530989
3702,-8.432307,-3.68734,4.022933,0.004429,0.037721,-0.014813,31.52,66.3889136330812
3712,-8.420941,-3.704688,4.035496,0.003054,0.032987,-0.018937,31.52,66.3154013812976
3722,-8.421539,-3.70409,4.028317,0.001985,0.027947,-0.022297,31.52,66.3536092687809
3732,-8.426325,-3.709473,4.022335,0.001222,0.023518,-0.025656,31.51,66.3998380543619
3742,-8.39821,-3.71067,4.03071,0.000764,0.019395,-0.0281,31.51,66.2982434081385
3752,-8.389236,-3.73041,4.027719,0,0.016646,-0.029627,31.49,66.313423757877
3762,-8.366504,-3.73041,4.034897,-0.000916,0.012217,-0.035583,31.49,66.2280452711087
3772,-8.357532,-3.741776,4.034897,-0.000458,0.011148,-0.035583,31.57,66.219839933402
3782,-8.349156,-3.753142,4.034897,-0.000305,0.011301,-0.03711,31.56,66.2129348210097
3792,-8.344371,-3.748357,4.03071,0.000458,0.011912,-0.038026,31.56,66.2202705502933
3802,-8.331809,-3.763312,4.040281,0.001985,0.012523,-0.037721,31.55,66.1577873936607
3812,-8.319845,-3.77049,4.039085,0.003207,0.014661,-0.03711,31.55,66.1456476354728
3822,-8.320443,-3.766901,4.036692,0.004581,0.016493,-0.035125,31.58,66.1560330388522
3832,-8.30788,-3.77408,4.034897,0.006414,0.020159,-0.032681,31.58,66.1457837688165
3842,-8.322835,-3.768098,4.033103,0.00672,0.022449,-0.030849,31.58,66.1810652755207
3852,-8.312666,-3.766303,4.041477,0.009163,0.025504,-0.028253,31.58,66.1138967911326
3862,-8.318647,-3.771687,4.028915,0.010843,0.027642,-0.025045,31.54,66.1976457412388
3872,-8.305488,-3.777669,4.027121,0.011759,0.029932,-0.021228,31.54,66.1850309492613
3882,-8.325827,-3.77049,4.03071,0.011912,0.030696,-0.01741,31.56,66.2022210975141
3892,-8.320443,-3.788436,4.03071,0.012828,0.031307,-0.01405,31.56,66.2080468735911
3902,-8.327023,-3.769294,4.029513,0.013439,0.031918,-0.009774,31.53,66.2098830130933
3912,-8.338388,-3.778267,4.025326,0.013592,0.031001,-0.005803,31.53,66.2643158924262
3922,-8.368299,-3.780062,4.023531,0.012523,0.029169,-0.003054,31.5,66.3381001584518
3932,-8.380861,-3.765106,4.022933,0.01237,0.025504,0.003665,31.5,66.3534044545292
3942,-8.402397,-3.757928,4.010371,0.008399,0.015882,0.005803,31.54,66.4573335260458
3952,-8.416754,-3.75075,4.015156,0.006872,0.009927,0.007178,31.54,66.4555151007942
3962,-8.427522,-3.757928,4.00379,0.004581,0.002902,0.009316,31.54,66.5438970086251
3972,-8.443074,-3.752544,4.009174,0.004123,-0.005345,0.009927,31.54,66.5430131992999
3982,-8.4347,-3.734598,4.002594,0.002902,-0.014355,0.008858,31.54,66.5435401756188
3992,-8.44427,-3.728616,4.006183,0.001374,-0.023671,0.006414,31.52,66.5391481800549
4002,-8.453843,-3.725625,4.009772,0.001069,-0.033292,0.004581,31.52,66.5375217024129
4012,-8.449656,-3.539583,4.310072,-0.003054,-0.041233,0.001069,31.55,64.8041153271579
4022,-8.435298,-3.656233,4.073781,-0.048564,-0.035583,-0.00504,31.55,66.1013648870657
4032,-8.441879,-3.722634,3.98405,-0.064599,-0.041692,-0.008858,31.53,66.6444559679661
4042,-8.427522,-3.719045,3.981657,-0.06017,-0.051924,-0.011148,31.53,66.6239889922415
4052,-8.446664,-3.714259,3.994219,-0.055131,-0.062308,-0.01237,31.55,66.5935246938113
4062,-8.419745,-3.723232,3.990032,-0.049327,-0.071777,-0.01573,31.55,66.5678060245034
4072,-8.422137,-3.714259,3.996612,-0.044746,-0.079718,-0.01909,31.59,66.5300731390593
4082,-8.418548,-3.714259,4.000201,-0.038637,-0.085521,-0.022907,31.59,66.5038055151002
4092,-8.416754,-3.713063,4.016353,-0.033903,-0.090713,-0.026573,31.59,66.4144212128636
4102,-8.37129,-3.698706,4.042674,-0.029322,-0.094073,-0.03146,31.59,66.1676952940484
4112,-8.366504,-3.686741,4.054638,-0.022144,-0.094837,-0.038332,31.55,66.0836850040293
4122,-8.367702,-3.68734,4.069593,-0.017868,-0.092699,-0.041386,31.55,66.0085300224541
4132,-8.348558,-3.705884,4.079762,-0.014355,-0.089186,-0.043524,31.55,65.9320152750227
4142,-8.328219,-3.697509,4.083352,-0.010996,-0.084147,-0.044593,31.52,65.8617531915739
4152,-8.319246,-3.699304,4.091727,-0.007483,-0.078038,-0.04444,31.52,65.8003468381183
4162,-8.309077,-3.68375,4.099504,-0.003818,-0.070555,-0.043219,31.55,65.7228242738083
4172,-8.294122,-3.704688,4.106084,-0.001374,-0.062461,-0.040164,31.55,65.6761787058001
4182,-8.289934,-3.707679,4.109075,0.002138,-0.052534,-0.035888,31.56,65.6543492189273
4192,-8.282756,-3.702295,4.110869,0.005498,-0.041997,-0.030085,31.56,65.6241968843902
4202,-8.259426,-3.706482,4.112065,0.008705,-0.031307,-0.023671,31.57,65.5713519743421
4212,-8.258228,-3.714857,4.110271,0.012523,-0.021075,-0.016188,31.57,65.5863374977624
4222,-8.263614,-3.711866,4.112065,0.015272,-0.010232,-0.007789,31.52,65.585704020295
4232,-8.259426,-3.718446,4.12044,0.018479,0.000764,0.000916,31.52,65.5391270058976
4242,-8.258827,-3.722036,4.118646,0.021838,0.011301,0.011148,31.57,65.5507422900811
4252,-8.256434,-3.721437,4.122235,0.024282,0.020769,0.020311,31.57,65.5261435675575
4262,-8.282157,-3.723232,4.112065,0.026267,0.030238,0.029016,31.53,65.6369551943823
4272,-8.3013,-3.736392,4.111467,0.028253,0.039401,0.038026,31.53,65.6941632989483
4282,-8.306085,-3.739383,4.109673,0.030543,0.05452,0.051618,31.52,65.7167320181711
4292,-8.321041,-3.738786,4.091727,0.032223,0.061697,0.057269,31.54,65.8420449524154
4302,-8.338388,-3.738187,4.103093,0.032376,0.066279,0.060476,31.54,65.8191993013895
4312,-8.346764,-3.742973,4.099504,0.03207,0.071013,0.062003,31.54,65.8603917612444
4322,-8.361719,-3.741179,4.095316,0.031307,0.075595,0.06185,31.54,65.9123728929275
4332,-8.375478,-3.749553,4.086941,0.029932,0.078954,0.06185,31.52,65.9931793149567
4342,-8.376674,-3.737589,4.09053,0.028558,0.081398,0.058643,31.52,65.9656797768307
4352,-8.382656,-3.741776,4.079762,0.02642,0.08262,0.054062,31.5,66.0384246059984
4362,-8.394022,-3.75075,4.082754,0.023824,0.083841,0.047647,31.5,66.0553224440611
4372,-8.406584,-3.754937,4.067799,0.021838,0.084452,0.040928,31.54,66.1635656841857
4382,-8.41436,-3.745365,4.066602,0.019242,0.083536,0.033292,31.54,66.1771648812528
4392,-8.411968,-3.743571,4.069593,0.01573,0.083994,0.025198,31.56,66.1548907160889
4402,-8.420941,-3.738786,4.066602,0.012217,0.083383,0.01573,31.56,66.1848421940511
4412,-8.411968,-3.741776,4.074379,0.008705,0.08262,0.005498,31.55,66.1283000668333
4422,-8.412566,-3.747759,4.067201,0.005192,0.080634,-0.004276,31.55,66.1725178159979
4432,-8.419745,-3.743571,4.057031,0.001833,0.07926,-0.013744,31.53,66.236624474289
4442,-8.410173,-3.739982,4.058825,-0.001069,0.078343,-0.023213,31.53,66.2038517745336
4452,-8.410173,-3.732205,4.051647,-0.004734,0.078038,-0.041386,31.52,66.2340214359431
4462,-8.406584,-3.732804,4.042674,-0.011301,0.074678,-0.047189,31.52,66.2738716006142
4472,-8.409575,-3.719643,4.029513,-0.01405,0.072998,-0.054214,31.52,66.3366672793782
4482,-8.405987,-3.711866,4.031906,-0.015577,0.070555,-0.060323,31.54,66.3094274723529
4492,-8.388638,-3.716652,4.021138,-0.016646,0.067195,-0.064904,31.54,66.3338122647939
4502,-8.403594,-3.706482,4.014558,-0.017257,0.063835,-0.067195,31.55,66.390211935961
4512,-8.405388,-3.705286,3.998407,-0.017868,0.060018,-0.06918,31.55,66.477503895125
4522,-8.408977,-3.707679,3.998407,-0.018479,0.054825,-0.069944,31.57,66.4871994729799
4532,-8.407781,-3.684947,4.004987,-0.018021,0.048564,-0.070555,31.57,66.4293049426863
4542,-8.370093,-3.512664,4.252046,-0.031765,0.038943,-0.065973,31.55,64.9003581521407
4552,-8.392226,-3.697509,3.969095,-0.057879,0.02642,-0.058948,31.55,66.5968666492853
4562,-8.408379,-3.692126,3.961318,-0.054825,0.016493,-0.054978,31.52,66.6664684887941
4572,-8.393424,-3.701697,3.941577,-0.049633,0.005345,-0.049786,31.52,66.7481377571051
4582,-8.402995,-3.697509,3.949952,-0.044746,-0.007636,-0.045204,31.52,66.7200262117174
4592,-8.39821,-3.68375,3.943372,-0.039554,-0.018173,-0.038026,31.52,66.732226427292
4602,-8.389236,-3.692724,3.949354,-0.03543,-0.029932,-0.033598,31.53,66.6902338545283
4612,-8.405388,-3.689135,3.947559,-0.030391,-0.041692,-0.028558,31.53,66.7299603827683
4622,-8.387442,-3.690331,3.953541,-0.024587,-0.052687,-0.022907,31.55,66.6622377110595
4632,-8.395817,-3.67418,3.963113,-0.015119,-0.074526,-0.012675,31.51,66.6144853708625
4642,-8.390432,-3.69392,3.967898,-0.011148,-0.083994,-0.00733,31.51,66.5961314375768
4652,-8.400003,-3.687938,3.985246,-0.007789,-0.091935,-0.00336,31.52,66.519389680016
4662,-8.389236,-3.687938,3.994817,-0.003818,-0.100029,-0.000153,31.52,66.4465664920045
4672,-8.391629,-3.692126,4.001996,0,-0.107054,0.002596,31.53,66.417745907542
4682,-8.404789,-3.681358,4.009174,0.003665,-0.112705,0.004734,31.53,66.3977798438425
4692,-8.392825,-3.692126,4.018745,0.007025,-0.11805,0.00672,31.54,66.3323993892437
4702,-8.392825,-3.690331,4.034897,0.010079,-0.120951,0.00733,31.54,66.2461228881976
4712,-8.380263,-3.705884,4.049852,0.012981,-0.123547,0.006261,31.55,66.1558151559426
4722,-8.377273,-3.712464,4.058825,0.016952,-0.124158,0.005498,31.55,66.108730715214
4732,-8.382656,-3.725625,4.06062,0.019548,-0.124006,0.00504,31.51,66.1230874545481
4742,-8.373085,-3.709473,4.079762,0.022449,-0.122631,0.002749,31.51,65.9876626724808
4752,-8.373085,-3.714857,4.102495,0.023976,-0.119577,0.000305,31.57,65.8741906268264
4762,-8.346764,-3.728018,4.109075,0.026725,-0.115301,-0.002138,31.57,65.7961795273607
4772,-8.348558,-3.734598,4.115057,0.0281,-0.10965,-0.005651,31.49,65.7751338432197
4782,-8.332406,-3.728616,4.121637,0.029932,-0.102014,-0.007789,31.49,65.7004671897297
4792,-8.325827,-3.75075,4.150949,0.031765,-0.093157,-0.01069,31.53,65.5550737200822
4802,-8.317451,-3.74716,4.157529,0.031612,-0.073304,-0.016646,31.53,65.4992904568486
4812,-8.297711,-3.761517,4.163511,0.03146,-0.060323,-0.01909,31.53,65.4395091908749
4822,-8.296515,-3.756134,4.171288,0.031612,-0.047189,-0.021075,31.52,65.3911793656897
4832,-8.293524,-3.758526,4.176074,0.031001,-0.033292,-0.022449,31.52,65.3621531242203
4842,-8.276773,-3.768696,4.182056,0.030085,-0.018479,-0.022755,31.53,65.3046742761134
4852,-8.263614,-3.760919,4.185645,0.0281,-0.002443,-0.023366,31.53,65.2495961187508
4862,-8.254042,-3.772883,4.186243,0.026878,0.013744,-0.022755,31.55,65.2374965783412
4872,-8.257033,-3.778267,4.18086,0.02474,0.030391,-0.02138,31.55,65.2774179537745
4882,-8.264212,-3.783053,4.185047,0.022755,0.0478,-0.019853,31.58,65.2760428574044
4892,-8.263015,-3.785445,4.182056,0.020311,0.064752,-0.018173,31.58,65.2913803375541
4902,-8.259426,-3.769294,4.179663,0.018631,0.081856,-0.014355,31.56,65.2799277109755
4912,-8.249854,-3.771687,4.169494,0.016188,0.096975,-0.013134,31.56,65.3144302224768
4922,-8.261221,-3.781258,4.159324,0.013592,0.112399,-0.009774,31.55,65.4017043300262
4932,-8.280961,-3.779463,4.15394,0.012065,0.12538,-0.00672,31.55,65.47075259529
4942,-8.283354,-3.774678,4.140181,0.010232,0.138819,-0.003665,31.52,65.542926194911
4952,-8.292327,-3.772883,4.134798,0.008705,0.15012,-0.001527,31.52,65.5885864663086
4962,-8.306085,-3.762714,4.103691,0.007636,0.159589,0.000764,31.57,65.770603011911
4972,-8.3348,-3.756732,4.088138,0.006872,0.171959,0.006109,31.57,65.9074012691262
4982,-8.352147,-3.75733,4.074379,0.005651,0.175471,0.007025,31.55,66.0166764205509
4992,-8.366504,-3.747759,4.059424,0.00504,0.176998,0.00733,31.53,66.1160799964535
5002,-8.376076,-3.743571,4.042076,0.00504,0.17654,0.007941,31.53,66.2229930765737
5012,-8.402397,-3.73041,4.022335,0.004581,0.173791,0.00672,31.55,66.3691634397529
5022,-8.410173,-3.726821,4.021138,0.004734,0.169362,0.006567,31.55,66.3883539578702
5032,-8.418548,-3.725625,4.006183,0.005498,0.162643,0.004734,31.55,66.4829502129072
5042,-8.426923,-3.720241,3.997808,0.006109,0.154243,0.000764,31.55,66.5392514835597
5052,-8.450851,-3.712464,3.979264,0.00672,0.144928,-0.001985,31.57,66.6788003677515
5062,-8.435298,-3.468396,4.312464,0.002902,0.133779,-0.00504,31.57,64.6937853857482
5072,-8.442476,-3.666403,3.984648,-0.040775,0.125533,-0.005345,31.54,66.5915038514578
5082,-8.453843,-3.695715,3.9338,-0.051007,0.112246,-0.006872,31.54,66.9082874984939
5092,-8.461619,-3.696911,3.906881,-0.046273,0.094531,-0.008705,31.58,67.0668330884449
5102,-8.478369,-3.684349,3.904488,-0.041081,0.076969,-0.009468,31.58,67.1024150310639
5112,-8.462217,-3.695715,3.913461,-0.036652,0.059101,-0.012523,31.53,67.0323671758202
5122,-8.479566,-3.680161,3.905087,-0.032376,0.041844,-0.012675,31.53,67.0979974153704
5132,-8.477173,-3.675974,3.915256,-0.029016,0.023518,-0.015577,31.54,67.035934034221
5144,-8.46461,-3.67059,3.906881,-0.021838,-0.010537,-0.019395,31.55,67.0495365720317
5152,-8.465208,-3.678366,3.911667,-0.019395,-0.027031,-0.019242,31.55,67.0324705099554
5162,-8.459825,-3.677171,3.923631,-0.016646,-0.042913,-0.020769,31.54,66.9574351640244
5172,-8.454441,-3.675375,3.921238,-0.014203,-0.057269,-0.022144,31.54,66.9573731026325
5182,-8.455039,-3.675974,3.932604,-0.011148,-0.072082,-0.022602,31.53,66.8993470607577
5192,-8.453843,-3.667599,3.938586,-0.008858,-0.085063,-0.021838,31.53,66.8579442509074
5202,-8.440084,-3.686144,3.949354,-0.007025,-0.097128,-0.022449,31.5,66.7896151202522
5212,-8.440681,-3.678965,3.958925,-0.004123,-0.108734,-0.022297,31.5,66.7340942509246
5222,-8.432307,-3.695715,3.970291,-0.001222,-0.118813,-0.021838,31.54,66.6722459274415
5232,-8.42453,-3.696911,3.966702,0.000458,-0.129656,-0.020311,31.54,66.6760518842351
5242,-8.420941,-3.690331,3.988835,0.004123,-0.136987,-0.01909,31.53,66.5464369273047
5252,-8.410173,-3.692724,3.994219,0.006261,-0.143401,-0.01909,31.53,66.4979203166325
5262,-8.399406,-3.697509,3.998407,0.007789,-0.14844,-0.018479,31.52,66.4578367326103
5272,-8.392825,-3.701697,4.019942,0.011148,-0.153327,-0.017257,31.52,66.3349879112061
5282,-8.377273,-3.709473,4.025326,0.013439,-0.156076,-0.015424,31.52,66.2812866014013
5292,-8.364112,-3.724428,4.043272,0.016188,-0.157145,-0.013897,31.52,66.1735103401136
5302,-8.359326,-3.722634,4.057031,0.018631,-0.157298,-0.013439,31.52,66.0896691460993
5312,-8.340183,-3.73041,4.091129,0.020617,-0.156076,-0.012828,31.52,65.8780563891127
5322,-8.320443,-3.732205,4.098307,0.024435,-0.149051,-0.012981,31.53,65.8000374087411
5332,-8.32463,-3.742973,4.122834,0.025809,-0.142637,-0.011454,31.54,65.6913561668595
5342,-8.32463,-3.735795,4.127619,0.026725,-0.135154,-0.01237,31.54,65.65948032681
5352,-8.301898,-3.762714,4.143172,0.027642,-0.126907,-0.013286,31.56,65.5556160124642
5362,-8.291729,-3.754937,4.151547,0.0281,-0.11637,-0.012981,31.56,65.4823933589481
5372,-8.282756,-3.753741,4.168297,0.027947,-0.103236,-0.011912,31.52,65.3745068906219
5382,-8.265409,-3.75733,4.175476,0.027642,-0.088881,-0.011912,31.52,65.3028978783102
5392,-8.2678,-3.751348,4.173083,0.027031,-0.074067,-0.01069,31.5,65.3146537301666
5402,-8.251051,-3.760919,4.192824,0.02642,-0.057879,-0.010537,31.5,65.1847531727825
5412,-8.251051,-3.764508,4.183252,0.025198,-0.040012,-0.009468,31.55,65.2381802510219
5422,-8.243275,-3.766901,4.201199,0.023518,-0.021686,-0.008094,31.55,65.1301031280448
5432,-8.237292,-3.762115,4.207779,0.022297,-0.00168,-0.007025,31.49,65.0779181050534
5442,-8.240881,-3.755535,4.208975,0.020464,0.017715,-0.005956,31.49,65.0729865709115
5452,-8.23131,-3.751348,4.203591,0.017868,0.037721,-0.003665,31.59,65.0757439063341
5462,-8.247462,-3.762115,4.199404,0.016341,0.057727,-0.001985,31.59,65.1438352140306
5472,-8.244471,-3.759723,4.198207,0.013592,0.076816,-0.000458,31.52,65.1411100058662
5482,-8.250452,-3.753741,4.189833,0.011606,0.09499,0.001222,31.52,65.191853687929
5492,-8.285748,-3.75075,4.182056,0.009621,0.128282,0.004276,31.54,65.3064759299469
5502,-8.297112,-3.754937,4.17069,0.005345,0.14279,0.005498,31.53,65.3944089655149
5512,-8.30489,-3.742374,4.142574,0.003512,0.154396,0.005956,31.53,65.5453462483239
5522,-8.323434,-3.739383,4.133601,0.00168,0.164628,0.005192,31.5,65.629199539717
5532,-8.343773,-3.728018,4.12403,-0.001069,0.173486,0.005345,31.5,65.7118319157811
5542,-8.363514,-3.74058,4.100101,-0.002443,0.178984,0.004276,31.54,65.8906851064476
5552,-8.395219,-3.728616,4.092923,-0.003818,0.182191,0.002596,31.54,65.9840734810292
5562,-8.408977,-3.726223,4.074977,-0.004429,0.183565,0.000305,31.56,66.1043383107974
5572,-8.421539,-3.722036,4.058825,-0.005956,0.181427,-0.00168,31.56,66.2110138574855
5582,-8.437692,-3.71725,4.034299,-0.006414,0.177151,-0.005345,31.54,66.3682778099936
5592,-8.445468,-3.719045,4.021138,-0.007178,0.171042,-0.009774,31.54,66.4547952499708
5602,-8.456833,-3.71067,3.999603,-0.007483,0.162948,-0.01405,31.54,66.5831872925791
5612,-8.46461,-3.713661,3.986442,-0.007025,0.152869,-0.018173,31.54,66.6707547596209
5622,-8.478967,-3.706482,3.979264,-0.006414,0.141263,-0.024282,31.53,66.7313822672793
5633,-8.486146,-3.696911,3.976871,-0.005956,0.128434,-0.029016,31.53,66.7500668866516
5642,-8.484351,-3.690929,3.960122,-0.005498,0.113468,-0.035736,31.56,66.8286109176914
5652,-8.492128,-3.687938,3.946362,-0.003971,0.099113,-0.040164,31.56,66.9139331180119
5662,-8.478967,-3.689135,3.94397,-0.001222,0.082772,-0.049327,31.56,66.900566294308
5672,-8.47119,-3.686741,3.937988,0.002443,0.051618,-0.052993,31.52,66.9138585698304
5682,-8.468798,-3.68734,3.936193,0.006261,0.035277,-0.057421,31.52,66.9189088516363
5692,-8.456235,-3.680161,3.938586,0.008705,0.019853,-0.059865,31.57,66.8741118446773
5702,-8.457432,-3.679563,3.93739,0.01237,0.005498,-0.060628,31.57,66.8823233834369
5712,-8.426923,-3.67418,3.952345,0.01573,-0.008858,-0.061087,31.56,66.7358578157843
5722,-8.421539,-3.682554,3.948756,0.0197,-0.021075,-0.060934,31.56,66.7511606523029
5732,-8.408977,-3.679563,3.964309,0.023824,-0.032223,-0.058948,31.54,66.6405255439898
5742,-8.379066,-3.692126,3.966702,0.027947,-0.042302,-0.057116,31.54,66.5770611753294
5752,-8.367702,-3.68734,3.97747,0.031612,-0.050244,-0.053145,31.52,66.492128329129
5762,-8.362316,-3.683152,3.97747,0.03543,-0.058643,-0.050091,31.52,66.476953054745
5772,-8.357532,-3.698706,3.98405,0.039706,-0.063988,-0.044593,31.57,66.4466523756875
5782,-8.34138,-3.692126,4.003192,0.043524,-0.067959,-0.040012,31.57,66.3056602044727
5792,-8.340781,-3.7005,3.994817,0.047495,-0.070402,-0.033903,31.55,66.3563489042204
5802,-8.343773,-3.701099,4.019942,0.051313,-0.07254,-0.029627,31.55,66.2309912979786
5812,-8.319845,-3.691527,4.02413,0.054672,-0.072693,-0.022602,31.54,66.1491640961524
5822,-8.337193,-3.70409,4.037888,0.057727,-0.072693,-0.016341,31.54,66.1255580570019
5832,-8.325229,-3.714259,4.046263,0.060476,-0.071471,-0.010843,31.52,66.0657679486426
5842,-8.325827,-3.73041,4.043272,0.064599,-0.06857,-0.001222,31.52,66.098090923086
5852,-8.329416,-3.724428,4.049254,0.066737,-0.067195,0.003665,31.52,66.068635219609
5862,-8.338388,-3.721437,4.057031,0.067959,-0.065973,0.007483,31.56,66.0440905858039
5872,-8.337791,-3.724428,4.061218,0.069028,-0.064752,0.009468,31.56,66.023724223144
5882,-8.34138,-3.741179,4.064209,0.069486,-0.063683,0.011759,31.54,66.031622507805
5892,-8.340183,-3.733402,4.074379,0.06918,-0.062766,0.013286,31.54,65.9684639238411
5902,-8.356933,-3.750151,4.073781,0.069791,-0.060934,0.013286,31.52,66.0231057996993
5912,-8.353942,-3.737589,4.092923,0.068111,-0.059101,0.012981,31.52,65.9048802145195
5922,-8.36471,-3.745964,4.09711,0.066584,-0.05849,0.012675,31.53,65.9139383531748
5932,-8.358727,-3.749553,4.106682,0.064141,-0.055436,0.009927,31.53,65.8547698510235
5942,-8.370093,-3.750151,4.109075,0.062461,-0.051618,0.007025,31.55,65.8670775141926
5952,-8.362915,-3.74716,4.107878,0.059407,-0.048564,0.002749,31.55,65.8551771432837
5962,-8.346764,-3.655036,4.415954,0.039859,-0.04047,-0.000764,31.55,64.1436454658126
5972,-8.348558,-3.762714,4.110869,0.002902,-0.025198,-0.007178,31.55,65.8239079969558
5982,-8.35155,-3.750151,4.113262,0.001527,-0.01909,-0.009774,31.54,65.8057742416466
5992,-8.343773,-3.760919,4.119244,0.000764,-0.013897,-0.011912,31.54,65.7683671380604
6002,-8.338987,-3.748955,4.141976,-0.000153,-0.007483,-0.014813,31.52,65.628310024098
6012,-8.308478,-3.6341,4.27717,-0.001833,0.007025,-0.020006,31.52,64.749002461455
6022,-8.332406,-3.755535,4.134199,-0.027489,0.014203,-0.020006,31.52,65.6609936713692
6032,-8.333005,-3.756732,4.141976,-0.029169,0.023518,-0.02306,31.51,65.6229803961211
6042,-8.315059,-3.753142,4.135396,-0.029627,0.03375,-0.026878,31.51,65.6151566397707
6052,-8.335398,-3.747759,4.138985,-0.030696,0.04383,-0.030849,31.53,65.6349992496838
6062,-8.336594,-3.733402,4.142574,-0.03146,0.054825,-0.033292,31.53,65.6050426067102
6072,-8.322237,-3.701697,4.176672,-0.033139,0.064599,-0.03711,31.51,65.3659985813794
6082,-8.326425,-3.742374,4.138985,-0.038332,0.071777,-0.038332,31.51,65.6104923982803
6092,-8.337193,-3.734,4.124628,-0.039554,0.082314,-0.040928,31.55,65.7003368546118
6102,-8.348558,-3.726223,4.116851,-0.040012,0.092088,-0.045815,31.55,65.757773804395
6112,-8.352147,-3.729812,4.110271,-0.04047,0.100335,-0.047037,31.57,65.8031738498957
6122,-8.35454,-3.725625,4.106084,-0.039554,0.107665,-0.048717,31.57,65.826119103591
6132,-8.359925,-3.711866,4.089334,-0.03879,0.113621,-0.049786,31.53,65.911926203388
6142,-8.361719,-3.719045,4.064209,-0.038026,0.117439,-0.050549,31.53,66.0538078361238
6152,-8.370691,-3.714259,4.052245,-0.036499,0.120493,-0.049786,31.54,66.1308956468339
6162,-8.366504,-3.716652,4.042076,-0.034972,0.120951,-0.048869,31.54,66.1775205366457
6172,-8.374879,-3.716054,4.022933,-0.032681,0.119119,-0.045815,31.55,66.2949324903732
6182,-8.392825,-3.717848,3.991228,-0.029627,0.115454,-0.038179,31.55,66.5005304510866
6192,-8.397612,-3.708875,3.97747,-0.022602,0.101862,-0.032529,31.57,66.5744941331247
6202,-8.397013,-3.7005,3.958925,-0.018021,0.092393,-0.027642,31.54,66.6630975993702
6212,-8.392226,-3.708277,3.944568,-0.013744,0.080023,-0.022449,31.54,66.735908217489
6222,-8.413763,-3.708875,3.941577,-0.009316,0.067806,-0.014966,31.57,66.7967621290215
6232,-8.403594,-3.714857,3.937988,-0.00504,0.053756,-0.00901,31.57,66.8001162520698
6242,-8.415558,-3.70409,3.930809,-0.000458,0.038943,-0.002443,31.55,66.8528237567949
6252,-8.420941,-3.698706,3.929015,0.003971,0.023366,0.002443,31.55,66.8684905405364
6262,-8.435298,-3.703491,3.932604,0.008094,0.008094,0.008247,31.55,66.8834734876379
6272,-8.416754,-3.706482,3.932604,0.011148,-0.007483,0.013286,31.55,66.8480043269267
6282,-8.42812,-3.708875,3.934997,0.015119,-0.023213,0.017715,31.52,66.8609860015499
6292,-8.430512,-3.702295,3.935595,0.018937,-0.038026,0.020159,31.52,66.8568091325156
6302,-8.416155,-3.710072,3.962514,0.022144,-0.052229,0.021838,31.51,66.6926908863006
6312,-8.423933,-3.72383,3.966104,0.025045,-0.064294,0.023976,31.51,66.7024990958511
6322,-8.429317,-3.71725,3.982255,0.026878,-0.075595,0.023824,31.54,66.6229342133687
6332,-8.420941,-3.72383,3.995416,0.029322,-0.085368,0.023213,31.54,66.5426384933869
6342,-8.410173,-3.718446,4.013362,0.031765,-0.093462,0.022602,31.55,66.4212885920576
6352,-8.390432,-3.71725,4.03729,0.033139,-0.099876,0.019548,31.55,66.2535876678076
6362,-8.386844,-3.728616,4.055236,0.036041,-0.105374,0.01405,31.54,66.1628521287041
6372,-8.36471,-3.736991,4.061816,0.036499,-0.104611,0.011606,31.54,66.0896059910397
6382,-8.35813,-3.736392,4.088138,0.037415,-0.102931,0.007636,31.54,65.9376200942668
6392,-8.343773,-3.727419,4.094718,0.039248,-0.097586,0.00504,31.54,65.8641242709831
6402,-8.337791,-3.741776,4.104887,0.040012,-0.09163,0.002749,31.54,65.81200445345
6412,-8.319845,-3.741776,4.113262,0.040164,-0.083841,-0.001069,31.54,65.7298595417649
6422,-8.308478,-3.746562,4.125825,0.040775,-0.074067,-0.003512,31.54,65.6444980447204
6432,-8.297711,-3.748357,4.133003,0.040775,-0.062919,-0.005345,31.54,65.5855827371364
6442,-8.290532,-3.748357,4.146762,0.040623,-0.050091,-0.005498,31.54,65.4982966266454
6452,-8.290532,-3.738786,4.150949,0.040623,-0.037721,-0.006567,31.57,65.4670987818155
6462,-8.283354,-3.744768,4.150949,0.039554,-0.02306,-0.007483,31.57,65.457385255897
6472,-8.27139,-3.732205,4.147958,0.038332,-0.009621,-0.007941,31.54,65.4346671697115
6482,-8.282756,-3.732205,4.151547,0.036194,0.004581,-0.007789,31.54,65.4406522653263
6492,-8.285149,-3.729812,4.149154,0.034056,0.018173,-0.007178,31.53,65.4559961369024
6502,-8.282756,-3.72383,4.145566,0.032681,0.030696,-0.006261,31.53,65.4636743071893
6512,-8.285748,-3.726821,4.13061,0.030696,0.043066,-0.005956,31.57,65.5512123323472
6522,-8.292327,-3.731607,4.124628,0.027489,0.054214,-0.004429,31.57,65.6013726561903
6532,-8.315658,-3.714857,4.106084,0.02138,0.07086,-0.003207,31.56,65.7324251044321
6542,-8.331809,-3.72383,4.107878,0.018631,0.076511,-0.00336,31.54,65.766371752056
6552,-8.332406,-3.714259,4.094718,0.015119,0.081398,-0.002596,31.54,65.8272389626383
6562,-8.350951,-3.707081,4.092923,0.012675,0.084758,-0.00168,31.57,65.8694822342747
6572,-8.368897,-3.696313,4.079165,0.01069,0.085979,-0.002443,31.57,65.9694757488236
6582,-8.382057,-3.701697,4.066004,0.008094,0.085674,-0.002596,31.54,66.0712590143896
6592,-8.392226,-3.705286,4.055236,0.005192,0.08323,-0.004581,31.54,66.1523951333148
6602,-8.404789,-3.705884,4.052843,0.003818,0.080481,-0.005192,31.59,66.1919624359575
6612,-8.413164,-3.69392,4.040879,0.002291,0.0759,-0.007636,31.59,66.2610035196514
6622,-8.421539,-3.678965,4.034897,0.001374,0.071929,-0.009927,31.57,66.2961052856929
6632,-8.437692,-3.685545,4.030112,0.000305,0.065515,-0.012828,31.57,66.3610400830405
6642,-8.42812,-3.684947,4.024727,-0.000916,0.060018,-0.015424,31.51,66.3685737205782
6652,-8.439486,-3.681358,4.022933,-0.000764,0.053909,-0.0197,31.51,66.398471006504
6662,-8.447861,-3.671188,4.016353,-0.001069,0.046578,-0.025504,31.54,66.4411124783186
6672,-8.446067,-3.675974,4.018745,-0.001374,0.039859,-0.030085,31.54,66.4292125745006
6682,-8.454441,-3.66042,4.033103,-0.001222,0.033139,-0.034056,31.52,66.3576277489345
6692,-8.435897,-3.502494,4.301099,-0.001222,0.026573,-0.039248,31.52,64.7850225463977
6702,-8.437093,-3.672983,4.010969,-0.018631,-0.004123,-0.037874,31.56,66.4483882116913
6712,-8.438888,-3.665206,4.007978,-0.041844,-0.010843,-0.040164,31.54,66.4607227758038
6722,-8.428718,-3.678366,4.023531,-0.038485,-0.01741,-0.045968,31.54,66.3700543551611
6732,-8.423933,-3.675974,4.013362,-0.035583,-0.022449,-0.050549,31.56,66.4110449521471
6742,-8.420342,-3.680759,4.022335,-0.031307,-0.027031,-0.054367,31.56,66.3609326678786
6752,-8.407781,-3.684349,4.025326,-0.027947,-0.030543,-0.058796,31.53,66.322194367299
6762,-8.407183,-3.695715,4.040879,-0.024129,-0.033139,-0.060628,31.53,66.2500748600765
6772,-8.386844,-3.695715,4.03729,-0.020922,-0.03543,-0.064294,31.5,66.2259756277798
6782,-8.38445,-3.707679,4.04746,-0.017868,-0.036041,-0.065973,31.5,66.1788521340533
6792,-8.368299,-3.701697,4.049852,-0.014661,-0.036041,-0.067348,31.58,66.1265690406141
6802,-8.359326,-3.714259,4.049852,-0.011454,-0.03543,-0.068417,31.58,66.1193561040017
6812,-8.355139,-3.709473,4.057629,-0.008247,-0.034056,-0.067959,31.54,66.065238827896
6822,-8.337193,-3.719045,4.064807,-0.006567,-0.032834,-0.066584,31.54,65.9985377439189
6832,-8.324032,-3.725027,4.052245,-0.004123,-0.030543,-0.065363,31.53,66.0420621715552
6842,-8.316256,-3.729812,4.067201,-0.001985,-0.027947,-0.062003,31.53,65.9516197512795
6852,-8.298907,-3.746562,4.06062,0.001222,-0.024587,-0.058185,31.55,65.9652024655773
6862,-8.300702,-3.750151,4.068397,0.003207,-0.021075,-0.053298,31.55,65.9316906435557
6872,-8.29472,-3.748955,4.071388,0.00504,-0.018021,-0.041844,31.54,65.9020706986254
6882,-8.267202,-3.768098,4.060022,0.011148,-0.011148,-0.034667,31.53,65.9215012662641
6892,-8.28455,-3.769294,4.066004,0.014203,-0.00733,-0.025962,31.53,65.9282953214451
6902,-8.286943,-3.772285,4.063013,0.017104,-0.003665,-0.018479,31.5,65.9519974014108
6912,-8.273185,-3.783651,4.057629,0.020006,0.000305,-0.009621,31.5,65.9619985261277
6922,-8.278568,-3.787838,4.058227,0.023366,0.00336,-0.002596,31.55,65.9743994604005
6932,-8.283952,-3.783053,4.056432,0.026114,0.006567,0.004734,31.55,65.9906248392378
6942,-8.288139,-3.777669,4.067201,0.028711,0.009163,0.012675,31.53,65.9378015784197
6952,-8.29472,-3.781856,4.060022,0.031307,0.012217,0.020617,31.53,65.9935208880091
6962,-8.310272,-3.777669,4.055834,0.034208,0.014966,0.027336,31.54,66.0444463476775
6972,-8.304291,-3.778865,4.065406,0.036041,0.017104,0.032681,31.54,65.9827419001046
6982,-8.322237,-3.781258,4.068995,0.037415,0.019548,0.037568,31.54,66.0043530529904
6992,-8.335398,-3.781856,4.08395,0.038485,0.021991,0.041386,31.54,65.9546848925322
7002,-8.335398,-3.778865,4.082156,0.038943,0.024587,0.045051,31.55,65.9611739808364
7012,-8.345568,-3.766901,4.079762,0.039401,0.027031,0.046273,31.55,65.9837644788785
7022,-8.362316,-3.777669,4.085146,0.038179,0.02978,0.046426,31.53,66.0014367926761
7032,-8.353942,-3.768098,4.079762,0.03711,0.03207,0.046273,31.53,66.0026523721383
7042,-8.374281,-3.765705,4.095914,0.035888,0.03543,0.045815,31.52,65.9592658259233
7052,-8.376674,-3.758526,4.093522,0.031918,0.040775,0.040012,31.52,65.9699552313001
7062,-8.379665,-3.748955,4.091129,0.02978,0.043219,0.036652,31.57,65.9796668750922
7072,-8.382057,-3.742973,4.088138,0.027031,0.045204,0.031765,31.54,65.9946467108513
7082,-8.386844,-3.734,4.088736,0.023976,0.048106,0.025962,31.54,65.9931974877639
7092,-8.400003,-3.739982,4.091727,0.022144,0.049786,0.020617,31.56,66.011121557368
7102,-8.391031,-3.738187,4.085745,0.019548,0.051313,0.016341,31.56,66.0215864501077
7112,-8.402995,-3.725027,4.084548,0.016188,0.054062,0.011301,31.56,66.0407542088074
7122,-8.4012,-3.722036,4.073781,0.014203,0.054367,0.003971,31.56,66.0902370799505
7132,-8.400601,-3.712464,4.073183,0.011606,0.054978,-0.000916,31.53,66.0831364262982
7145,-8.402397,-3.707081,4.066602,0.010385,0.055589,-0.005651,31.53,66.1162254437103
7152,-8.408977,-3.704688,4.065406,0.008094,0.055589,-0.010537,31.52,66.1341328790536
7162,-8.398808,-3.695715,4.055834,0.006567,0.054367,-0.015424,31.52,66.1542650314865
7172,-8.41137,-3.684947,4.045067,0.005803,0.051313,-0.019395,31.54,66.2270533577196
7182,-8.417352,-3.669992,4.031906,0.005498,0.049786,-0.022297,31.54,66.2946946936248
7192,-8.417951,-3.681956,4.027121,0.005345,0.045662,-0.026267,31.56,66.3319726342729
7202,-8.414959,-3.665804,4.016353,0.00504,0.041386,-0.02978,31.56,66.3672426936705
7212,-8.410771,-3.669394,4.013362,0.005345,0.036805,-0.032987,31.55,66.3774042877589
7222,-8.412566,-3.66042,4.0008,0.005803,0.025351,-0.03711,31.55,66.4388424867782
7232,-8.419745,-3.659224,4.001996,0.007025,0.018479,-0.038637,31.52,66.4465353220057
7242,-8.423334,-3.659822,4.000201,0.008247,0.010537,-0.040775,31.58,66.4640147749707
7252,-8.420941,-3.653242,3.998407,0.010232,0.003054,-0.042608,31.58,66.4624228155945
7262,-8.420342,-3.658626,3.99721,0.012217,-0.004276,-0.042913,31.53,66.4723462321935
7272,-8.416754,-3.652644,4.004389,0.014355,-0.012675,-0.043982,31.53,66.4217113560911
7282,-8.415558,-3.635296,3.999603,0.016493,-0.020464,-0.044899,31.54,66.4285299016161
7292,-8.370093,-3.556931,4.213162,0.014661,-0.030391,-0.043677,31.54,65.1434071794748
7302,-8.406584,-3.640081,4.015755,-0.007483,-0.0562,-0.032987,31.57,66.3292107903965
7312,-8.41137,-3.65384,4.021138,-0.009621,-0.069791,-0.030085,31.57,66.3236643616306
7322,-8.394022,-3.662215,4.009772,-0.005956,-0.076205,-0.030391,31.56,66.3544074202848
7332,-8.399406,-3.655036,4.031308,-0.003512,-0.081245,-0.030696,31.56,66.2462142749021
7342,-8.392825,-3.672983,4.039683,0,-0.085368,-0.031001,31.51,66.2049915966766
7352,-8.393424,-3.671188,4.044468,0.00336,-0.087506,-0.030849,31.51,66.1795476638843
7362,-8.380263,-3.669394,4.058227,0.004734,-0.088881,-0.031154,31.51,66.0779478103016
7372,-8.357532,-3.681956,4.074977,0.00733,-0.088575,-0.03146,31.51,65.9536113481981
7382,-8.361719,-3.678965,4.092325,0.008858,-0.087201,-0.032987,31.55,65.8690580857164
7392,-8.343773,-3.699304,4.105485,0.009927,-0.083841,-0.033292,31.55,65.7811106198912
7402,-8.327621,-3.692126,4.122834,0.011912,-0.072388,-0.032529,31.54,65.6488991681414
7412,-8.310871,-3.703491,4.125226,0.011606,-0.063988,-0.032376,31.57,65.6111216598632
7422,-8.297711,-3.718446,4.131208,0.011912,-0.055741,-0.030849,31.57,65.5658576902202
7432,-8.283952,-3.719643,4.135994,0.012065,-0.04444,-0.029932,31.53,65.5121835568005
7442,-8.280362,-3.729214,4.135994,0.012523,-0.033598,-0.028863,31.53,65.5137333665243
7452,-8.274381,-3.733402,4.141976,0.012675,-0.022449,-0.027336,31.52,65.4735917020811
7462,-8.271988,-3.744768,4.146163,0.01237,-0.009774,-0.025198,31.52,65.4576848321822
7472,-8.264212,-3.753741,4.148556,0.011759,0.002443,-0.023366,31.53,65.4371364452025
7482,-8.252846,-3.759723,4.141378,0.01237,0.014661,-0.019853,31.53,65.455856471169
7492,-8.270791,-3.755535,4.140181,0.012828,0.026878,-0.016035,31.53,65.4969175644374
7502,-8.264212,-3.754339,4.140181,0.012217,0.039248,-0.013286,31.53,65.481471898246
7512,-8.262416,-3.784249,4.137789,0.012065,0.051007,-0.010843,31.55,65.5196258093365
7522,-8.261818,-3.774678,4.131807,0.012217,0.061545,-0.00733,31.55,65.5401184090918
7532,-8.269596,-3.778865,4.12403,0.012065,0.071624,-0.004887,31.57,65.6016901895084
7542,-8.288139,-3.777071,4.118048,0.012675,0.080787,-0.001833,31.57,65.6710955684599
7552,-8.313264,-3.769892,4.104289,0.013286,0.088881,-0.000153,31.54,65.7898050182816
7562,-8.322835,-3.783053,4.09412,0.012828,0.095448,-0.000153,31.54,65.8760571373975
7572,-8.327621,-3.778865,4.08754,0.011301,0.105985,0.000916,31.49,65.9165460696446
7582,-8.358727,-3.783651,4.089334,0.010232,0.109498,0.000458,31.51,65.9777459711136
7592,-8.363514,-3.771687,4.080361,0.009316,0.112094,0,31.51,66.0232031784857
7602,-8.382057,-3.777071,4.072584,0.008705,0.112552,-0.002138,31.52,66.107958782782
7612,-8.383853,-3.764508,4.057629,0.007483,0.113163,-0.004123,31.52,66.1778214276754
7622,-8.392226,-3.75733,4.064209,0.006261,0.112399,-0.005345,31.53,66.1543421095085
7632,-8.400601,-3.761517,4.055236,0.004887,0.110414,-0.007789,31.53,66.2226374190846
7642,-8.420941,-3.751946,4.04387,0.003971,0.106749,-0.010843,31.58,66.3154960267682
7652,-8.425727,-3.75075,4.040879,0.002902,0.103236,-0.013897,31.58,66.3399629945039
7662,-8.432307,-3.751946,4.034897,0.000458,0.099113,-0.016646,31.55,66.3859620963654
7672,-8.435897,-3.735196,4.019942,0.000458,0.092852,-0.01909,31.55,66.4559626361083
7682,-8.440084,-3.738786,4.019344,-0.000764,0.08659,-0.022144,31.59,66.4710896623582
7692,-8.44128,-3.732804,4.012764,-0.00168,0.079718,-0.024587,31.59,66.5024180130919
7702,-8.447262,-3.727419,4.002594,-0.001833,0.071471,-0.026114,31.51,66.563001791534
7712,-8.445468,-3.722036,3.993621,-0.002443,0.062766,-0.028558,31.51,66.6012659481198
7722,-8.447861,-3.718446,3.979264,-0.002138,0.053298,-0.030085,31.52,66.6780576742641
7732,-8.444869,-3.716054,3.979264,-0.000153,0.043371,-0.031154,31.52,66.669700207061
7742,-8.449656,-3.704688,3.975077,0.000611,0.021075,-0.032834,31.55,66.6912027986694
7752,-8.449656,-3.710072,3.968496,0.003665,0.009621,-0.032376,31.57,66.7305573471679
7762,-8.434101,-3.69392,3.959523,0.006109,-0.003207,-0.032834,31.57,66.7308587742451
7772,-8.435897,-3.693322,3.955336,0.009621,-0.014661,-0.032223,31.58,66.7560215503258
7782,-8.417352,-3.689733,3.963113,0.013286,-0.026725,-0.031154,31.58,66.6734846887975
7792,-8.419745,-3.696313,3.956532,0.016646,-0.038485,-0.030238,31.55,66.7190303059533
7802,-8.370093,-3.592823,4.127619,0.018784,-0.050549,-0.027489,31.55,65.6220771621239
7812,-8.4012,-3.646064,4.019942,-0.001069,-0.076816,-0.016799,31.53,66.3013548733178
7822,-8.390432,-3.701099,3.965506,-0.007178,-0.094379,-0.011454,31.53,66.6153146442971
7832,-8.386844,-3.695715,3.970291,-0.001985,-0.104916,-0.008858,31.49,66.5777002193308
7842,-8.382057,-3.696911,3.985844,0.004734,-0.113774,-0.00733,31.49,66.4869686879637
7852,-8.377273,-3.693322,3.990032,0.009316,-0.122326,-0.005803,31.58,66.4516034956192
7862,-8.370691,-3.697509,4.01396,0.013439,-0.128129,-0.003971,31.58,66.3159078187258
7872,-8.368299,-3.696911,4.022933,0.018021,-0.1321,-0.000916,31.54,66.2632027939255
7882,-8.353344,-3.689733,4.04746,0.02138,-0.134848,-0.000611,31.54,66.0961329867283
7892,-8.330013,-3.69392,4.057031,0.02474,-0.134848,0.001069,31.54,66.0001575304738
7902,-8.330612,-3.696911,4.097709,0.027184,-0.13271,0.002749,31.54,65.7911922858377
7912,-8.315059,-3.701697,4.112065,0.029627,-0.129045,0.003818,31.49,65.6872183797328
7922,-8.306085,-3.713063,4.121637,0.031765,-0.116523,0.005192,31.54,65.6287607661962
7932,-8.299506,-3.698706,4.143172,0.031001,-0.107207,0.004581,31.54,65.4881385498546
7942,-8.304291,-3.715455,4.156931,0.030849,-0.095295,0.00504,31.51,65.4430398454048
7952,-8.288737,-3.704688,4.160521,0.030238,-0.082467,0.005192,31.51,65.3799716489082
7962,-8.285149,-3.714857,4.17069,0.027642,-0.067042,0.005956,31.5,65.3290640253356
7972,-8.283354,-3.713063,4.184449,0.027184,-0.052076,0.005803,31.5,65.251719602502
7982,-8.270791,-3.720839,4.189833,0.02474,-0.036346,0.005956,31.54,65.2038098311701
7992,-8.278568,-3.725625,4.195815,0.023366,-0.018784,0.005803,31.54,65.1944572748817
8002,-8.265409,-3.716652,4.193422,0.021686,-0.002138,0.006109,31.52,65.1691713612744
8012,-8.256434,-3.72383,4.179065,0.020006,0.015272,0.006414,31.52,65.2313836173307
8022,-8.265409,-3.739982,4.183851,0.018479,0.032681,0.006109,31.53,65.242090226944
8032,-8.273782,-3.732804,4.183252,0.017257,0.04948,0.006109,31.53,65.2564317498179
8042,-8.282157,-3.733402,4.176672,0.015272,0.065821,0.00504,31.5,65.3095756837325
8052,-8.274979,-3.738786,4.168896,0.013592,0.080634,0.00336,31.5,65.3397227562428
8062,-8.295319,-3.732205,4.165905,0.012828,0.094073,0.002596,31.57,65.3931323155277
8072,-8.3013,-3.720839,4.159324,0.011759,0.107207,0.001527,31.57,65.4293126347792
8082,-8.316854,-3.719643,4.125825,0.010232,0.118813,-0.000153,31.55,65.6364959977604
8092,-8.323434,-3.717848,4.122235,0.007941,0.136223,-0.005345,31.51,65.6676861408594
8102,-8.340183,-3.729812,4.106682,0.00672,0.142942,-0.008247,31.51,65.7962908604681
8112,-8.359326,-3.727419,4.085745,0.005803,0.147677,-0.010537,31.53,65.9441298433192
8122,-8.355139,-3.719643,4.083352,0.004429,0.151189,-0.012675,31.53,65.9403323746213
8132,-8.379066,-3.714857,4.058825,0.002902,0.151953,-0.01573,31.57,66.1147700852285
8142,-8.386844,-3.713063,4.061816,0.001222,0.150273,-0.018784,31.57,66.1139152438308
8152,-8.39462,-3.708875,4.044468,0.000611,0.148288,-0.021686,31.55,66.2170674784942
8162,-8.402397,-3.703491,4.038486,-0.001374,0.14447,-0.024282,31.55,66.2597154513399
8172,-8.423334,-3.702295,4.024727,-0.002596,0.139735,-0.025656,31.52,66.3744779531364
8182,-8.419745,-3.708875,4.004987,-0.00336,0.132405,-0.028405,31.52,66.4762926446209
8192,-8.440084,-3.716054,4.0008,-0.003665,0.124311,-0.030085,31.54,66.5471015467119
8202,-8.439486,-3.709473,3.985246,-0.005345,0.114995,-0.032223,31.54,66.6212452817193
8212,-8.455039,-3.71067,3.97747,-0.006414,0.104,-0.034208,31.55,66.695213231932
8222,-8.455039,-3.7005,3.976871,-0.008094,0.092699,-0.035888,31.55,66.6891417884913
8232,-8.452048,-3.699304,3.970291,-0.008247,0.081092,-0.036957,31.55,66.7163450329815
8242,-8.432905,-3.582056,4.121039,-0.010232,0.067806,-0.036499,31.55,65.7822869863983
8252,-8.456833,-3.695715,3.954139,-0.033903,0.048106,-0.033598,31.52,66.8076545918824
8262,-8.452645,-3.697509,3.934997,-0.043066,0.016646,-0.030696,31.52,66.9011488625266
8272,-8.461619,-3.701099,3.945765,-0.038485,0.001985,-0.03146,31.58,66.8662649316864
8282,-8.457432,-3.70409,3.940381,-0.036041,-0.011301,-0.03146,31.53,66.8886114089704
8292,-8.451449,-3.712464,3.952943,-0.033598,-0.025198,-0.032529,31.53,66.8179497291503
8302,-8.455039,-3.707081,3.957131,-0.030391,-0.03879,-0.032681,31.48,66.7985133506118
8312,-8.450851,-3.706482,3.964907,-0.027947,-0.05116,-0.033292,31.48,66.7485808959436
8322,-8.442476,-3.711866,3.969095,-0.024282,-0.062156,-0.034361,31.55,66.7142246419762
8332,-8.442476,-3.728616,3.976273,-0.021533,-0.072998,-0.035583,31.55,66.6918565828096
8342,-8.432905,-3.705286,3.976273,-0.017715,-0.082925,-0.036805,31.57,66.6508118290628
8352,-8.416754,-3.725625,3.988835,-0.014203,-0.091783,-0.038332,31.57,66.5700654394245
8362,-8.412566,-3.731607,3.985844,-0.01069,-0.099113,-0.039859,31.57,66.5825511505987
8372,-8.39462,-3.729812,4.006782,-0.005956,-0.105069,-0.040012,31.57,66.4337817427095
8382,-8.386844,-3.731009,4.009772,-0.003054,-0.109803,-0.041081,31.54,66.40296839106
8392,-8.386844,-3.725027,4.015156,0.000764,-0.11469,-0.042302,31.54,66.3691836242002
8402,-8.369495,-3.734,4.030112,0.004887,-0.117133,-0.041692,31.54,66.2627810382941
8412,-8.363514,-3.741179,4.040879,0.008858,-0.119271,-0.041997,31.54,66.200553266883
8422,-8.350951,-3.744169,4.06062,0.010996,-0.119882,-0.041539,31.54,66.0735355644553
8432,-8.316256,-3.734598,4.079165,0.014203,-0.115759,-0.038179,31.54,65.8935227631053
8442,-8.313264,-3.742374,4.082156,0.020769,-0.112552,-0.034972,31.54,65.8789403285918
8452,-8.307282,-3.748357,4.089932,0.022602,-0.107512,-0.031918,31.53,65.8312132917409
8462,-8.283952,-3.75075,4.103093,0.024893,-0.100945,-0.029016,31.53,65.7145815406726
8472,-8.287541,-3.763312,4.108477,0.026725,-0.094073,-0.024435,31.54,65.7063791218278
8482,-8.270791,-3.754937,4.11386,0.028711,-0.085979,-0.019853,31.54,65.6339480134375
8492,-8.257033,-3.758526,4.132405,0.030085,-0.076511,-0.013744,31.57,65.5106806788499
8502,-8.25464,-3.748357,4.140181,0.031154,-0.066432,-0.007025,31.57,65.4547783491007
8512,-8.243872,-3.763312,4.129414,0.032834,-0.056047,0,31.52,65.5025149860948
8522,-8.239684,-3.758526,4.138387,0.033903,-0.044746,0.007178,31.52,65.4416987743532
8532,-8.245069,-3.757928,4.138985,0.034667,-0.033445,0.013439,31.57,65.4496900557705
8542,-8.240881,-3.754339,4.146163,0.035583,-0.020769,0.021533,31.57,65.399464073523
8552,-8.244471,-3.756732,4.149154,0.03543,-0.00901,0.027336,31.52,65.3940218746729
8562,-8.246264,-3.765705,4.150351,0.036652,0.003207,0.033292,31.52,65.4005816894247
8572,-8.258228,-3.751348,4.143172,0.036805,0.014813,0.03879,31.53,65.4498954270095
8582,-8.255239,-3.748357,4.147958,0.036652,0.027336,0.044746,31.53,65.4154268798887
8592,-8.268398,-3.748955,4.149753,0.035888,0.03879,0.049327,31.54,65.4352636062315
8602,-8.300103,-3.755535,4.152744,0.036041,0.051465,0.055436,31.54,65.4948631694988
8612,-8.298308,-3.743571,4.14078,0.033445,0.074373,0.057116,31.56,65.5416383057631
8622,-8.305488,-3.731607,4.150949,0.03207,0.084452,0.057269,31.57,65.4925161699929
8632,-8.322237,-3.735795,4.14078,0.030696,0.094837,0.056658,31.57,65.5857537937637
8642,-8.338388,-3.725625,4.133601,0.028253,0.104,0.054367,31.53,65.6481180081512
8652,-8.350353,-3.719045,4.128217,0.02642,0.112399,0.051007,31.53,65.6955614073496
8662,-8.369495,-3.720241,4.125825,0.023976,0.120493,0.046578,31.54,65.7501927875053
8672,-8.377871,-3.710072,4.124628,0.02138,0.127213,0.041539,31.54,65.7646883323694
8682,-8.395219,-3.711268,4.116253,0.018479,0.132252,0.034667,31.52,65.8464069251563
8692,-8.408977,-3.708277,4.110869,0.015577,0.135918,0.027489,31.52,65.9008593501954
8702,-8.426325,-3.690331,4.09711,0.012828,0.138972,0.02138,31.51,65.9924431310451
8712,-8.432307,-3.510271,4.312464,0.003512,0.141873,0.011759,31.51,64.7259013543369
8722,-8.426923,-3.691527,4.058227,-0.027031,0.14676,0.002443,31.53,66.1972166921724
8732,-8.449057,-3.678366,4.040281,-0.032376,0.14508,-0.005192,31.53,66.325227096641
8742,-8.445468,-3.681956,4.026522,-0.032987,0.139583,-0.014203,31.54,66.3927855697692
8752,-8.475378,-3.672983,4.023531,-0.033139,0.133016,-0.021228,31.54,66.4626943902014
8762,-8.465208,-3.683152,4.010371,-0.033445,0.12538,-0.030391,31.56,66.5193757944816
8772,-8.473583,-3.668795,3.982853,-0.03375,0.116217,-0.037568,31.56,66.6676444325389
8782,-8.47119,-3.676572,3.974478,-0.033445,0.09499,-0.05284,31.55,66.7134965967756
8792,-8.477173,-3.667599,3.975675,-0.03207,0.08262,-0.058643,31.55,66.7115613906838
8802,-8.478967,-3.668197,3.957729,-0.031612,0.07025,-0.064446,31.55,66.8097788854718
8812,-8.469396,-3.663411,3.954139,-0.030391,0.0562,-0.070708,31.51,66.8045998481344
8822,-8.468199,-3.659224,3.946961,-0.029169,0.04215,-0.072998,31.51,66.836066671723
8832,-8.460423,-3.672385,3.95055,-0.028558,0.027642,-0.076053,31.56,66.8129447820811
8842,-8.456235,-3.684947,3.943372,-0.026267,0.012981,-0.077733,31.56,66.8532599746726
8852,-8.452645,-3.678366,3.944568,-0.024282,-0.001069,-0.077885,31.54,66.8336807194355
8862,-8.437692,-3.669992,3.940381,-0.022297,-0.015424,-0.076358,31.54,66.8173153650819
8872,-8.422735,-3.678366,3.929613,-0.019548,-0.030238,-0.07422,31.53,66.850664058616
8882,-8.422137,-3.684349,3.934398,-0.016035,-0.044288,-0.072082,31.53,66.8296171828877
8892,-8.407781,-3.695116,3.942175,-0.013897,-0.057421,-0.067653,31.51,66.7687247501758
8902,-8.396414,-3.695715,3.94397,-0.011454,-0.069791,-0.063072,31.51,66.736257000521
8912,-8.396414,-3.696313,3.951746,-0.007636,-0.080787,-0.057269,31.58,66.6958265952164
8922,-8.378469,-3.702893,3.96072,-0.004429,-0.091783,-0.051924,31.58,66.617248782903
8932,-8.376076,-3.716652,3.969693,-0.001069,-0.101251,-0.046578,31.54,66.5776990836817
8942,-8.362316,-3.719045,3.997808,0.002596,-0.109803,-0.039401,31.54,66.4032326818484
8952,-8.356335,-3.736991,4.004389,0.005803,-0.122631,-0.026573,31.58,66.3728893670364
8962,-8.349156,-3.731009,4.023531,0.012981,-0.127365,-0.020311,31.55,66.2516408618801
8972,-8.329416,-3.749553,4.033103,0.016341,-0.129656,-0.014508,31.55,66.1772823110618
8982,-8.328219,-3.741179,4.050451,0.018479,-0.130725,-0.010385,31.53,66.0757587778668
8992,-8.325229,-3.743571,4.065406,0.021991,-0.130114,-0.006109,31.53,65.9933151823915
9002,-8.306684,-3.76391,4.079165,0.024587,-0.127518,-0.001833,31.53,65.9013172872053
9012,-8.297711,-3.762115,4.086941,0.026725,-0.124769,0.001222,31.53,65.8397042329545
9022,-8.299506,-3.756134,4.099504,0.028558,-0.118813,0.003971,31.53,65.7720067263895
9032,-8.298907,-3.756134,4.115057,0.029322,-0.11133,0.005651,31.53,65.6894250164741
9042,-8.277969,-3.763312,4.13061,0.031765,-0.102931,0.007789,31.57,65.5700822518115
9052,-8.280362,-3.772285,4.147958,0.033139,-0.092393,0.007789,31.57,65.4935533440706
9062,-8.28455,-3.769892,4.150351,0.033598,-0.079871,0.009774,31.54,65.4877814666991
9072,-8.261818,-3.768098,4.154539,0.035277,-0.067501,0.009927,31.54,65.4149028009498
9082,-8.28156,-3.776472,4.162913,0.03543,-0.053145,0.010843,31.52,65.4223668599927
9092,-8.273782,-3.77049,4.173681,0.035277,-0.037874,0.009316,31.52,65.3435176704566
9102,-8.266006,-3.77408,4.17727,0.035277,-0.022602,0.009621,31.55,65.3114831288398
9112,-8.263015,-3.769892,4.184449,0.034972,-0.007025,0.009163,31.55,65.2634369294301
9122,-8.274381,-3.767499,4.183851,0.034667,0.009468,0.008858,31.51,65.2889446592842
9132,-8.283354,-3.767499,4.167699,0.031765,0.040317,0.00672,31.55,65.3924842674093
9146,-8.286943,-3.766901,4.174279,0.030543,0.055131,0.00672,31.55,65.365450558407
9152,-8.282756,-3.752544,4.163511,0.028863,0.068264,0.005345,31.57,65.3982527483711
9162,-8.31147,-3.748955,4.156931,0.026878,0.081092,0.005803,31.57,65.4912219350585
9172,-8.312068,-3.738187,4.142574,0.024893,0.092241,0.003971,31.54,65.5567814922947
9182,-8.322835,-3.745365,4.141976,0.02306,0.102014,0.003665,31.54,65.5900868710713
9192,-8.337193,-3.744169,4.128217,0.02138,0.10965,0.003665,31.54,65.6914319013429
9202,-8.346166,-3.747759,4.121637,0.018784,0.116828,0.00168,31.54,65.7483683318523
9212,-8.359925,-3.735795,4.109673,0.016646,0.121562,0,31.55,65.8286141333442
9222,-8.373683,-3.734598,4.094718,0.014966,0.1237,-0.000153,31.55,65.9346757545006
9232,-8.383853,-3.720839,4.082754,0.012523,0.12538,-0.001985,31.53,66.0056245763744
9242,-8.392825,-3.714259,4.064807,0.011148,0.125075,-0.003207,31.53,66.1120645017446
9252,-8.412566,-3.709473,4.055834,0.010537,0.1237,-0.004429,31.56,66.1960708690658
9262,-8.404789,-3.704688,4.049852,0.009163,0.120646,-0.005498,31.56,66.206469921612
9272,-8.429317,-3.696911,4.040879,0.008552,0.115606,-0.007025,31.61,66.297701237843
9282,-8.419745,-3.690331,4.037888,0.007941,0.110108,-0.009163,31.61,66.2871594815122
9292,-8.4347,-3.696911,4.011567,0.007789,0.102625,-0.011301,31.53,66.4620934256408
9302,-8.444869,-3.678366,4.006183,0.007178,0.08659,-0.014661,31.53,66.4945616342994
9312,-8.456235,-3.684349,3.993023,0.00733,0.077733,-0.017868,31.57,66.592477193706
9322,-8.405388,-3.561717,4.189234,0.00672,0.067195,-0.0197,31.57,65.3496468799165
9332,-8.453244,-3.572484,4.137789,-0.025962,0.041692,-0.013286,31.57,65.7303482099108
9342,-8.453843,-3.674777,3.986442,-0.04383,0.022755,-0.010385,31.59,66.6133042048793
9352,-8.437093,-3.676572,3.984648,-0.039401,0.011912,-0.012523,31.59,66.5895073320056
9362,-8.448458,-3.678965,3.988835,-0.036957,0.001222,-0.015424,31.55,66.5933712300355
9372,-8.430512,-3.678965,3.984648,-0.033292,-0.008858,-0.018479,31.55,66.5779803623925
9382,-8.437093,-3.668795,3.985246,-0.029932,-0.01741,-0.0197,31.57,66.5793237513832
9392,-8.421539,-3.684349,4.001996,-0.027031,-0.026114,-0.02306,31.57,66.4732249434731
9402,-8.419147,-3.682554,4.001398,-0.024587,-0.033445,-0.02474,31.55,66.4697168318584
9412,-8.417352,-3.681956,4.008576,-0.021838,-0.039706,-0.026725,31.55,66.4277995629647
9422,-8.39462,-3.690331,4.008576,-0.020006,-0.045815,-0.02978,31.56,66.3878366895266
9432,-8.393424,-3.686144,4.025326,-0.017257,-0.051007,-0.03146,31.56,66.2936360110185
9442,-8.376076,-3.695715,4.033103,-0.015882,-0.054672,-0.033292,31.5,66.2251725557553
9452,-8.37129,-3.70409,4.027121,-0.013897,-0.057269,-0.034514,31.5,66.2542424038537
9462,-8.36471,-3.706482,4.042076,-0.012217,-0.059712,-0.035125,31.58,66.1641838605848
9472,-8.349156,-3.711866,4.054638,-0.010537,-0.061087,-0.034361,31.58,66.0704532385544
9482,-8.331809,-3.711268,4.057031,-0.007789,-0.06017,-0.033292,31.53,66.0204367895061
9492,-8.323434,-3.714857,4.061816,-0.005803,-0.059407,-0.031918,31.53,65.9808953723081
9502,-8.318049,-3.724428,4.063013,-0.004123,-0.056963,-0.029322,31.53,65.972256544466
9512,-8.313862,-3.737589,4.070191,-0.001985,-0.05452,-0.02642,31.53,65.9382912846127
9522,-8.300103,-3.731607,4.068397,-0.001069,-0.051313,-0.024893,31.53,65.9125499276386
9532,-8.299506,-3.739982,4.080361,0.000916,-0.047495,-0.019853,31.54,65.8566006224758
9542,-8.288139,-3.744169,4.079762,0.002596,-0.043371,-0.015119,31.54,65.8394308609909
9552,-8.28455,-3.738786,4.079762,0.003665,-0.038332,-0.011301,31.57,65.8265170951768
9562,-8.283354,-3.742374,4.080959,0.004429,-0.033139,-0.006872,31.57,65.8211476375548
9572,-8.287541,-3.748955,4.086941,0.005803,-0.027642,-0.001833,31.58,65.8051508032501
9582,-8.278568,-3.750151,4.095316,0.007025,-0.021838,0.002291,31.58,65.7431478943432
9592,-8.28455,-3.753142,4.091727,0.008552,-0.015119,0.006872,31.48,65.7777203087033
9602,-8.291729,-3.749553,4.092325,0.009468,-0.009316,0.011912,31.48,65.7865105406485
9612,-8.306684,-3.756732,4.104289,0.010232,-0.003818,0.015272,31.57,65.7629599784196
9622,-8.309077,-3.751946,4.09711,0.010385,0.002138,0.019548,31.57,65.8009786109549
9632,-8.31147,-3.746562,4.099504,0.010385,0.007178,0.021686,31.54,65.7883853282664
9642,-8.33121,-3.741776,4.092923,0.011148,0.011912,0.024893,31.54,65.8604015298478
9652,-8.338388,-3.751946,4.09711,0.009468,0.020769,0.02642,31.52,65.8636146511435
9662,-8.35155,-3.751946,4.093522,0.009468,0.02474,0.026878,31.58,65.9103642604955
9672,-8.359925,-3.745964,4.081557,0.008247,0.028558,0.026114,31.58,65.9848754844838
9682,-8.361719,-3.751946,4.093522,0.007636,0.030543,0.02474,31.57,65.9319781425277
9692,-8.377273,-3.735795,4.085745,0.005956,0.032681,0.022602,31.57,65.9901887215999
9702,-8.38445,-3.73041,4.088736,0.003665,0.033598,0.019548,31.51,65.9847357307611
9712,-8.382656,-3.731607,4.086343,0.002138,0.035125,0.016188,31.51,65.9945291550905
9722,-8.397013,-3.733402,4.084548,0.000153,0.036194,0.012523,31.56,66.035966936991
9732,-8.391629,-3.729812,4.085745,-0.000764,0.035736,0.00901,31.56,66.0149643814001
9742,-8.405388,-3.734,4.070789,-0.002902,0.035583,0.003665,31.56,66.125858253776
9752,-8.398808,-3.719643,4.07737,-0.004734,0.035125,0,31.56,66.0642387278394
9762,-8.412566,-3.720839,4.073183,-0.005956,0.033903,-0.004429,31.54,66.1162228600483
9772,-8.410771,-3.714259,4.068995,-0.007483,0.032681,-0.00901,31.54,66.1281196693084
9782,-8.410173,-3.719643,4.062415,-0.009774,0.03146,-0.013592,31.51,66.166170190093
9792,-8.410173,-3.707081,4.064209,-0.010537,0.030391,-0.016952,31.51,66.1451245415533
9802,-8.405388,-3.702295,4.057031,-0.010843,0.028405,-0.020769,31.54,66.1680267205454
9812,-8.398808,-3.71067,4.057629,-0.010537,0.027184,-0.02306,31.54,66.1588163275304
9822,-8.391031,-3.695715,4.046263,-0.011606,0.021991,-0.027947,31.52,66.187860749168
9832,-8.397013,-3.708277,4.036094,-0.010996,0.021533,-0.029627,31.52,66.2653391721352
9842,-8.400003,-3.695116,4.04387,-0.009774,0.018937,-0.031001,31.52,66.2187545902897
9852,-8.401799,-3.689733,4.042076,-0.008552,0.016341,-0.03207,31.53,66.2269329535323
9862,-8.385049,-3.697509,4.039085,-0.007789,0.013286,-0.032529,31.53,66.2144583447248
9872,-8.397612,-3.695116,4.028915,-0.006414,0.011148,-0.033598,31.54,66.291960087271
9882,-8.395817,-3.701697,4.041477,-0.004887,0.008705,-0.033903,31.54,66.22855267162
9892,-8.392226,-3.69392,4.04387,-0.003054,0.005651,-0.034208,31.52,66.2012326607339
9902,-8.383853,-3.692724,4.035496,-0.001222,0.003054,-0.034514,31.52,66.2262744962621
9912,-8.387442,-3.690331,4.048058,0.000153,-0.000305,-0.033903,31.53,66.1658740351637
9922,-8.392825,-3.692126,4.039683,0.001833,-0.002596,-0.033139,31.53,66.222737603454
9932,-8.37129,-3.693322,4.034299,0.003207,-0.006109,-0.033292,31.55,66.2065555785687
9942,-8.382057,-3.692724,4.042674,0.005345,-0.00901,-0.032987,31.55,66.184890412377
9952,-8.385049,-3.70409,4.048058,0.007025,-0.011912,-0.033445,31.56,66.1736389585734
9962,-8.386245,-3.703491,4.041477,0.008399,-0.015272,-0.032987,31.56,66.2100349955036
9972,-8.376076,-3.70409,4.051049,0.010079,-0.01741,-0.031918,31.54,66.1390166793759
9982,-8.374879,-3.707081,4.06062,0.011301,-0.019395,-0.031765,31.54,66.0892255709593
9992,-8.364112,-3.702893,4.053442,0.012523,-0.023518,-0.031307,31.57,66.1000167673553
10002,-8.369495,-3.713063,4.066602,0.015882,-0.024435,-0.031001,31.54,66.0521588954219
10012,-8.362316,-3.711866,4.061816,0.016188,-0.02474,-0.030543,31.54,66.0608212330706
10022,-8.344969,-3.716054,4.063612,0.017257,-0.024893,-0.030085,31.53,66.0185116577387
10032,-8.343175,-3.720839,4.075575,0.01909,-0.023824,-0.028711,31.53,65.9566249735187
10042,-8.337791,-3.733402,4.069593,0.020922,-0.022755,-0.027947,31.52,65.9884128936413
10052,-8.331809,-3.724428,4.079165,0.021838,-0.020617,-0.026267,31.52,65.9170149011233
10062,-8.324032,-3.729812,4.081557,0.023824,-0.018631,-0.024435,31.54,65.8930316698975
10072,-8.316854,-3.734598,4.088736,0.025504,-0.014508,-0.02306,31.54,65.8447038019119
10082,-8.303694,-3.74058,4.097709,0.026573,-0.011301,-0.021991,31.51,65.7753147087375
10092,-8.302496,-3.743571,4.101298,0.028405,-0.006872,-0.018326,31.51,65.756861927956
10102,-8.292327,-3.738786,4.09711,0.030391,-0.001527,-0.014966,31.55,65.7522939280144
10112,-8.294122,-3.73041,4.09053,0.03146,0.003971,-0.012981,31.55,65.7825117081591
10122,-8.291729,-3.751946,4.098307,0.033598,0.010079,-0.008858,31.57,65.7575148883105
10132,-8.277372,-3.741179,4.098905,0.035888,0.016952,-0.005803,31.57,65.713025079068
10142,-8.265409,-3.735795,4.109673,0.036499,0.023976,-0.002596,31.58,65.6255062708648
10152,-8.282756,-3.738786,4.10728,0.036652,0.031001,0.000611,31.58,65.6784336238737
10162,-8.291729,-3.745964,4.108477,0.037415,0.039401,0.009163,31.55,65.6984866730853
10172,-8.298907,-3.742973,4.098905,0.037721,0.053603,0.013744,31.54,65.7610949377929
10182,-8.297711,-3.738187,4.097709,0.036805,0.059559,0.016493,31.54,65.7601505214871
10192,-8.312666,-3.729214,4.092923,0.036652,0.065973,0.019548,31.53,65.8086439693013
10202,-8.328817,-3.739383,4.085146,0.036194,0.070708,0.022144,31.53,65.893644993258
10212,-8.337193,-3.733402,4.086343,0.03543,0.076205,0.025504,31.54,65.8995394548942
10222,-8.335398,-3.728616,4.085146,0.033598,0.079412,0.025504,31.54,65.8973932308388
10232,-8.35813,-3.732804,4.08395,0.030849,0.083078,0.026725,31.58,65.9560675852998
10242,-8.365907,-3.714857,4.074977,0.029322,0.084147,0.026267,31.58,66.0024678777049
10252,-8.397013,-3.713063,4.059424,0.026725,0.084758,0.025198,31.51,66.1478898554967
10262,-8.408977,-3.721437,4.061816,0.023518,0.084299,0.022449,31.51,66.1684457289363
10272,-8.416754,-3.711268,4.052245,0.020922,0.082772,0.019242,31.55,66.2252704510938
10282,-8.429317,-3.705884,4.040281,0.018631,0.07926,0.015272,31.55,66.3090845923363
10292,-8.439486,-3.702295,4.048058,0.015272,0.07422,0.010079,31.53,66.2865413702593
10302,-8.465807,-3.698107,4.043272,0.013592,0.068264,0.003818,31.53,66.3626949579746
10312,-8.457432,-3.691527,4.031906,0.011759,0.062614,-0.002902,31.54,66.3984216330411
10322,-8.479566,-3.695116,4.017549,0.009621,0.05452,-0.009621,31.54,66.5225834344716
10332,-8.487342,-3.68375,4.013362,0.007941,0.045815,-0.017104,31.51,66.5502811114786
10342,-8.485548,-3.699902,4.004987,0.00504,0.02642,-0.033903,31.57,66.6047729795733
10352,-8.489137,-3.689135,4.004389,0.004734,0.015272,-0.041997,31.57,66.6056202718516
10362,-8.485548,-3.685545,4.003192,0.005192,0.004276,-0.050396,31.55,66.6012071880858
10372,-8.492128,-3.689733,3.999005,0.005345,-0.006872,-0.057879,31.55,66.6404169299563
10382,-8.474779,-3.679563,3.991827,0.005345,-0.018173,-0.066126,31.55,66.6328669305999
10392,-8.422137,-3.511467,4.302295,0.000916,-0.032529,-0.070555,31.55,64.7564784893032
10402,-8.455039,-3.677171,4.000201,-0.03375,-0.064752,-0.06521,31.53,66.5459523050256
10412,-8.449656,-3.681956,3.990032,-0.038485,-0.08094,-0.066279,31.53,66.5923006266313
10422,-8.417951,-3.698706,4.0008,-0.034819,-0.090408,-0.069944,31.53,66.4851446631482
10432,-8.421539,-3.69392,4.01396,-0.030543,-0.098502,-0.072693,31.53,66.4193405027679
10442,-8.408977,-3.697509,4.010969,-0.027184,-0.104916,-0.07422,31.54,66.4120090663347
10452,-8.394022,-3.694518,4.034897,-0.023671,-0.111177,-0.0759,31.54,66.2525303058146
10462,-8.370691,-3.699304,4.04746,-0.020159,-0.114232,-0.074526,31.51,66.1419202916629
10472,-8.348558,-3.71725,4.049852,-0.017562,-0.114995,-0.073762,31.51,66.099346388962
10482,-8.332406,-3.708875,4.070191,-0.014355,-0.114385,-0.071013,31.54,65.9504595797823
10492,-8.320443,-3.714259,4.092325,-0.011606,-0.11133,-0.067959,31.54,65.8140997472931
10502,-8.279764,-3.714857,4.103691,-0.009621,-0.107207,-0.062614,31.52,65.6675161967274
10512,-8.270791,-3.73041,4.114459,-0.005956,-0.091935,-0.050244,31.52,65.6068174629997
10522,-8.252846,-3.728018,4.118048,-0.004429,-0.082314,-0.04383,31.53,65.5467465473917
10532,-8.245667,-3.732205,4.129414,-0.00168,-0.071777,-0.036346,31.54,65.4756765754663
10542,-8.22772,-3.739383,4.136592,0.000153,-0.059712,-0.028253,31.54,65.4060175079821
10552,-8.236095,-3.74058,4.14078,0.002138,-0.046884,-0.019548,31.5,65.4035490238355
10562,-8.230114,-3.757928,4.144369,0.003971,-0.033292,-0.011912,31.5,65.3889456779332
10572,-8.233105,-3.758526,4.152145,0.006109,-0.019853,-0.003054,31.51,65.355381931183
10582,-8.218747,-3.760321,4.151547,0.007789,-0.005651,0.004734,31.51,65.328936201499
10592,-8.230114,-3.761517,4.14736,0.010232,0.009316,0.01237,31.5,65.3768683314351
10602,-8.228917,-3.76391,4.147958,0.012523,0.022449,0.0197,31.5,65.3735149386287
10612,-8.237292,-3.766901,4.146762,0.014966,0.03543,0.026573,31.54,65.4010031859951
10622,-8.24148,-3.763312,4.143172,0.017104,0.048564,0.031765,31.54,65.4253240937576
10632,-8.238488,-3.766303,4.134798,0.020159,0.061392,0.035583,31.56,65.465605496153
10642,-8.270791,-3.765705,4.128217,0.02138,0.072998,0.039248,31.56,65.5694303684548
10652,-8.288139,-3.777071,4.128816,0.023518,0.083383,0.041997,31.54,65.6148802161123
10662,-8.288737,-3.771089,4.122834,0.025351,0.093615,0.04444,31.54,65.6415306432749
10672,-8.312666,-3.765106,4.109075,0.026267,0.102014,0.044746,31.55,65.7588982026267
10682,-8.330013,-3.761517,4.108477,0.027336,0.115454,0.042302,31.55,65.7956487139942
10692,-8.350951,-3.753741,4.098307,0.028558,0.120951,0.041233,31.55,65.8858553240234
10702,-8.364112,-3.758526,4.09053,0.027489,0.124464,0.038485,31.51,65.9589198541296
10712,-8.372486,-3.751348,4.07737,0.027947,0.127518,0.034667,31.51,66.0384387109717
10722,-8.38804,-3.753142,4.069593,0.026267,0.12874,0.02978,31.53,66.1135192127981
10732,-8.383853,-3.734598,4.064807,0.024587,0.129656,0.025504,31.53,66.1121881510033
10742,-8.403594,-3.73041,4.06062,0.023366,0.12874,0.020769,31.54,66.1717217840606
10753,-8.402995,-3.732804,4.053442,0.02138,0.125991,0.016035,31.54,66.2101381144059
10762,-8.434101,-3.725027,4.043272,0.019548,0.122784,0.010843,31.54,66.3211591800723
10772,-8.430512,-3.714857,4.036692,0.018021,0.118355,0.004887,31.54,66.3385829591997
10782,-8.441879,-3.708277,4.028317,0.014508,0.112552,-0.000916,31.54,66.3999851840908
10792,-8.458628,-3.708277,4.010969,0.012065,0.105985,-0.005651,31.54,66.5253826526711
10802,-8.446067,-3.705286,4.005585,0.010079,0.098655,-0.010232,31.52,66.5246851386296
10812,-8.458628,-3.699902,3.991827,0.008399,0.089492,-0.014966,31.52,66.6177737086469
10822,-8.447262,-3.701099,3.983452,0.007178,0.080023,-0.017562,31.54,66.6391361366638
10832,-8.463414,-3.69392,3.97747,0.005345,0.06918,-0.020922,31.54,66.6973696842889
10842,-8.458628,-3.692724,4.034897,0.003207,0.05849,-0.024893,31.54,66.3864185683517
10852,-8.449057,-3.571288,4.121637,0.002749,0.046731,-0.02474,31.54,65.804119165449
10862,-8.44128,-3.674777,3.945167,-0.030085,0.010537,-0.022602,31.52,66.8038566035153
10872,-8.452048,-3.675375,3.948158,-0.027947,-0.00336,-0.023213,31.54,66.8109074820801
10882,-8.454441,-3.677171,3.940979,-0.026573,-0.016799,-0.022907,31.54,66.855166739435
10892,-8.443673,-3.678965,3.945167,-0.023671,-0.030391,-0.023976,31.56,66.8125645517199
10902,-8.443074,-3.677171,3.953541,-0.020769,-0.043219,-0.023366,31.56,66.7657079592762
10912,-8.441879,-3.681956,3.963113,-0.018326,-0.055894,-0.024129,31.54,66.7172851585911
10922,-8.429317,-3.674777,3.962514,-0.015577,-0.067959,-0.024435,31.54,66.6878991353218
10932,-8.434101,-3.68375,3.968496,-0.012981,-0.07758,-0.023213,31.48,66.6745321702827
10942,-8.42453,-3.690929,3.979862,-0.010996,-0.088575,-0.024129,31.48,66.6015249061397
10952,-8.42453,-3.68375,3.99063,-0.008399,-0.097128,-0.024587,31.52,66.538499956337
10962,-8.416155,-3.681956,3.996612,-0.00672,-0.105069,-0.025962,31.52,66.4880068861071
10972,-8.415558,-3.689733,4.014558,-0.004887,-0.111941,-0.027031,31.52,66.3998452168242
10982,-8.4012,-3.684349,4.029513,-0.00336,-0.116675,-0.0281,31.52,66.2864255477831
10992,-8.39462,-3.690331,4.039683,-0.002902,-0.120646,-0.029016,31.55,66.2248598139927
11002,-8.379066,-3.692126,4.052245,-0.001374,-0.123853,-0.031154,31.55,66.1279060700594
11012,-8.383254,-3.693322,4.063612,-0.000458,-0.124311,-0.033292,31.55,66.0784611014026
11022,-8.367103,-3.701099,4.084548,0.000611,-0.1237,-0.034667,31.55,65.9420459917219
11032,-8.344969,-3.708277,4.103691,0.000458,-0.118202,-0.03879,31.54,65.8015868501005
11042,-8.333005,-3.71725,4.106084,0.001833,-0.113316,-0.040317,31.5,65.7720006268586
11052,-8.326425,-3.718446,4.118048,0.001833,-0.106291,-0.041233,31.5,65.6965512711151
11062,-8.313862,-3.728616,4.124628,0.002902,-0.098807,-0.042761,31.54,65.644956693069
11072,-8.299506,-3.722036,4.137789,0.003665,-0.090561,-0.043982,31.54,65.5388715677598
11082,-8.291131,-3.732804,4.141976,0.004734,-0.081092,-0.043524,31.52,65.5093572097079
11092,-8.274979,-3.74058,4.149154,0.005651,-0.070402,-0.043677,31.52,65.4444524304236
11102,-8.276773,-3.741179,4.154539,0.007178,-0.058338,-0.041844,31.59,65.4208408637622
11112,-8.273185,-3.744768,4.146163,0.007483,-0.046578,-0.041233,31.59,65.4602844515391
11122,-8.26481,-3.747759,4.158726,0.00901,-0.034514,-0.038332,31.52,65.3794469168588
11132,-8.263015,-3.742973,4.156931,0.01069,-0.021838,-0.035125,31.52,65.3801796709972
11142,-8.244471,-3.754339,4.155735,0.012981,-0.007483,-0.031765,31.58,65.3572507885498
11152,-8.245069,-3.754339,4.158726,0.014355,0.00504,-0.027947,31.58,65.3429294584149
11162,-8.23789,-3.746562,4.156333,0.016646,0.019242,-0.023518,31.54,65.3320266418675
11172,-8.232506,-3.75733,4.148556,0.018784,0.033292,-0.018326,31.54,65.3716570841745
11182,-8.248059,-3.767499,4.153342,0.020311,0.045968,-0.012065,31.55,65.3906455888595
11192,-8.251051,-3.755535,4.148556,0.021533,0.058643,-0.00672,31.55,65.4102887437641
11202,-8.261221,-3.753741,4.13719,0.022144,0.081856,0.003971,31.55,65.4900241859371
11212,-8.260024,-3.753142,4.129414,0.023976,0.093004,0.00901,31.54,65.5275023230899
11222,-8.282756,-3.753142,4.123432,0.024893,0.102778,0.013592,31.54,65.6079544353611
11233,-8.282157,-3.75733,4.126423,0.025351,0.11133,0.019242,31.54,65.5951313321649
11242,-8.299506,-3.751946,4.109075,0.025045,0.118813,0.021991,31.54,65.7178985056816
11252,-8.306684,-3.74716,4.103691,0.024893,0.125991,0.025809,31.54,65.7568130898784
11262,-8.327023,-3.745365,4.1007,0.023518,0.130572,0.027489,31.54,65.8142803213134
11272,-8.334201,-3.741179,4.089334,0.022144,0.133779,0.02978,31.55,65.8849654071732
11282,-8.349156,-3.742973,4.085745,0.021533,0.136376,0.031307,31.55,65.9372874594756
11292,-8.364112,-3.719045,4.070789,0.0197,0.138056,0.031765,31.54,66.0244899080845
11302,-8.386844,-3.722634,4.058825,0.018631,0.137597,0.029627,31.54,66.1385010558689
11312,-8.405388,-3.722634,4.056432,0.016341,0.136376,0.028863,31.56,66.1900840398233
11322,-8.413164,-3.743571,4.052245,0.015577,0.133016,0.02642,31.56,66.2477709499702
11332,-8.42812,-3.718446,4.0337,0.014508,0.129198,0.023366,31.55,66.3525029424975
11342,-8.466404,-3.588037,4.228117,0.007025,0.12874,0.018631,31.55,65.3064808010743
11352,-8.429914,-3.719643,3.998407,-0.020006,0.144011,0.004276,31.55,66.5417829590497
11362,-8.438289,-3.719045,3.982255,-0.023366,0.138056,-0.000611,31.55,66.6431537263322
11372,-8.471789,-3.712464,3.97747,-0.021075,0.127976,-0.005803,31.51,66.7313702821705
11382,-8.466404,-3.71067,3.966104,-0.016493,0.102778,-0.008858,31.52,66.7781275002206
11392,-8.488539,-3.710072,3.95055,-0.015119,0.089644,-0.013134,31.52,66.9043966010298
11402,-8.485548,-3.705884,3.945167,-0.013744,0.076053,-0.017715,31.53,66.9227195402525
11412,-8.468199,-3.713661,3.952943,-0.011606,0.060781,-0.022297,31.53,66.853429090722
11422,-8.490333,-3.702295,3.945167,-0.009774,0.045968,-0.026573,31.52,66.9293004903574
11432,-8.492725,-3.710072,3.937988,-0.008399,0.030696,-0.030849,31.52,66.9787060313549
11442,-8.483154,-3.705286,3.939184,-0.006872,0.014966,-0.034972,31.54,66.9486354350315
11452,-8.479566,-3.698706,3.930212,-0.004734,0.000153,-0.039859,31.54,66.9824801229755
11462,-8.481958,-3.708875,3.934398,-0.004581,-0.014508,-0.043982,31.56,66.9744814969307
11472,-8.451449,-3.663411,3.999603,-0.005345,-0.033139,-0.045968,31.56,66.5291595449073
11482,-8.460423,-3.704688,3.941577,-0.010079,-0.058796,-0.044135,31.53,66.8890083631888
11492,-8.462217,-3.7005,3.955934,-0.010385,-0.074678,-0.044899,31.53,66.8136288853725
11502,-8.443673,-3.708875,3.955336,-0.00901,-0.088117,-0.047342,31.53,66.7861431888341
11512,-8.432905,-3.705884,3.96072,-0.007789,-0.10064,-0.0478,31.53,66.7329532332074
11522,-8.422735,-3.705884,3.972086,-0.00672,-0.111788,-0.048564,31.52,66.6522392949162
11532,-8.415558,-3.712464,3.985246,-0.006109,-0.122173,-0.048258,31.52,66.5743116326609
11542,-8.382656,-3.711268,3.997808,-0.004276,-0.131641,-0.047495,31.57,66.438634718468
11552,-8.368897,-3.714857,4.010371,-0.002291,-0.144775,-0.043524,31.53,66.3471420413052
11562,-8.345568,-3.719643,4.016951,0.000153,-0.148898,-0.03879,31.53,66.2679315138285
11572,-8.33121,-3.725625,4.039683,0.003054,-0.151495,-0.036041,31.54,66.1238088370797
11582,-8.322835,-3.72383,4.040879,0.004734,-0.152716,-0.031918,31.54,66.0980442568419
11592,-8.315059,-3.718446,4.065406,0.007178,-0.152411,-0.027794,31.51,65.9476039996285
11602,-8.307282,-3.722036,4.082156,0.010079,-0.15012,-0.023213,31.51,65.8465768634669
11612,-8.293524,-3.723232,4.09412,0.011912,-0.145539,-0.019242,31.55,65.7554757700497
11622,-8.290532,-3.738786,4.097709,0.014966,-0.139277,-0.014966,31.55,65.7452969133166
11632,-8.272586,-3.734598,4.113262,0.016952,-0.130878,-0.009468,31.51,65.6210609719641
11642,-8.261818,-3.739383,4.130012,0.0197,-0.121868,-0.004581,31.51,65.5147292029506
11652,-8.248059,-3.737589,4.141378,0.021533,-0.111636,-0.000458,31.56,65.4235548108805
11662,-8.253444,-3.74058,4.152145,0.023976,-0.098807,0.00336,31.56,65.3819481556882
11672,-8.242676,-3.747759,4.171886,0.026114,-0.084299,0.007636,31.53,65.2624378830625
11682,-8.243872,-3.746562,4.171886,0.027336,-0.069639,0.010537,31.53,65.2638649945243
11692,-8.243275,-3.751946,4.181458,0.02978,-0.053909,0.014508,31.54,65.21798295427
11702,-8.240881,-3.743571,4.186243,0.02978,-0.03711,0.017868,31.54,65.179426182149
11712,-8.242676,-3.732804,4.194618,0.030543,-0.020311,0.018479,31.54,65.1289746563707
11722,-8.248059,-3.738786,4.191627,0.03146,0.015272,0.021991,31.54,65.1623572622764
11732,-8.257033,-3.739383,4.197609,0.031001,0.032681,0.022755,31.55,65.1515070213522
11742,-8.259426,-3.727419,4.197011,0.031307,0.050091,0.023213,31.57,65.147995112954
11752,-8.267202,-3.731009,4.181458,0.029932,0.066584,0.023366,31.57,65.2496045318116
11762,-8.287541,-3.725027,4.189234,0.0281,0.082925,0.023213,31.52,65.2477373426874
11772,-8.289934,-3.713661,4.178466,0.026878,0.097433,0.022297,31.52,65.2978465642641
11782,-8.316854,-3.715455,4.165905,0.024587,0.111483,0.021838,31.54,65.4236152858796
11792,-8.319246,-3.719643,4.173083,0.023518,0.124006,0.020159,31.54,65.395554701729
11802,-8.335996,-3.689135,4.206582,0.019242,0.137445,0.018326,31.53,65.2286366700422
11812,-8.343773,-3.712464,4.134798,0.010079,0.151342,0.014355,31.53,65.6408455237076
11822,-8.347363,-3.71725,4.115655,0.007941,0.159436,0.012981,31.51,65.7528695590092
11832,-8.362316,-3.711268,4.109075,0.005498,0.16417,0.010843,31.51,65.8134992235106
11842,-8.374879,-3.708875,4.082156,0.004581,0.168141,0.009316,31.57,65.9784186672546
11852,-8.399406,-3.703491,4.066004,0.003054,0.168446,0.005345,31.57,66.1096751489071
11862,-8.42453,-3.662813,4.092325,0.000458,0.171042,0.001374,31.49,65.988021727902
11872,-8.41137,-3.7005,4.044468,-0.005498,0.175013,-0.004887,31.49,66.24456419576
11882,-8.43111,-3.699304,4.041477,-0.007025,0.170431,-0.008399,31.56,66.3005442233564
11892,-8.460423,-3.686741,4.009772,-0.008552,0.160963,-0.010996,31.56,66.5158014748852
11902,-8.461619,-3.684947,4.001996,-0.012065,0.129351,-0.012217,31.59,66.5572850658116
11912,-8.475977,-3.684947,4.0008,-0.013592,0.110719,-0.014813,31.54,66.5933256446604
11922,-8.484949,-3.690331,3.973282,-0.014966,0.091324,-0.016952,31.54,66.7604659745951
11932,-8.484949,-3.677768,3.969693,-0.016799,0.07086,-0.021228,31.52,66.7680014563816
11942,-8.487941,-3.679563,3.972086,-0.017868,0.050855,-0.023976,31.52,66.7632522966079
11952,-8.502895,-3.689135,3.969095,-0.018937,0.03375,-0.028863,31.58,66.8181664247397
11962,-8.495118,-3.68734,3.9673,-0.020159,0.017104,-0.034056,31.58,66.8099794179319
11972,-8.492725,-3.694518,3.961916,-0.020769,0,-0.039859,31.56,66.8396201456727
11982,-8.486743,-3.695715,3.963113,-0.02138,-0.016035,-0.045662,31.56,66.822151696855
11992,-8.488539,-3.704688,3.963711,-0.021075,-0.029627,-0.050549,31.54,66.83073725586
12002,-8.468798,-3.701697,3.97388,-0.020006,-0.043219,-0.055131,31.54,66.7342758671966
12012,-8.455637,-3.701099,3.979264,-0.01909,-0.055283,-0.058796,31.54,66.6783919932965
12022,-8.452048,-3.705286,3.98405,-0.018479,-0.066584,-0.062156,31.54,66.649713129432
12032,-8.436494,-3.716054,3.991827,-0.016646,-0.076664,-0.064904,31.52,66.5865928232764
12042,-8.416754,-3.715455,4.002594,-0.015119,-0.085827,-0.066126,31.52,66.4886358295383
12052,-8.404191,-3.72383,4.016353,-0.013286,-0.092852,-0.066126,31.51,66.3981122966039
12062,-8.38146,-3.72383,4.018147,-0.011454,-0.098349,-0.065821,31.51,66.3411036841606
12072,-8.359925,-3.732804,4.036692,-0.007025,-0.105374,-0.062766,31.49,66.2070224307176
12082,-8.343175,-3.733402,4.046861,-0.005192,-0.106901,-0.059559,31.51,66.1188937024894
12092,-8.329416,-3.736991,4.048656,-0.002138,-0.106138,-0.055741,31.51,66.0837222283931
12102,-8.31446,-3.738786,4.058825,0.001069,-0.103694,-0.051924,31.58,66.0003052647364
12112,-8.3013,-3.754339,4.071388,0.003665,-0.101098,-0.047189,31.58,65.9213258410214
12122,-8.291131,-3.738187,4.070191,0.006414,-0.096364,-0.041081,31.55,65.8902722195196
12132,-8.279166,-3.75075,4.091129,0.009163,-0.091477,-0.035583,31.55,65.7669611694608
12142,-8.264212,-3.748955,4.09053,0.012523,-0.08491,-0.02978,31.56,65.7361768490488
12152,-8.257033,-3.742973,4.101298,0.015119,-0.077274,-0.023213,31.56,65.6583331390058
12162,-8.250452,-3.748357,4.105485,0.01741,-0.06857,-0.016341,31.5,65.6274190670919
12172,-8.240881,-3.754937,4.108477,0.020617,-0.058796,-0.008705,31.5,65.5974825019023
12182,-8.255239,-3.755535,4.111467,0.023671,-0.049022,-0.002443,31.58,65.6134679296114
12192,-8.240881,-3.754937,4.112664,0.02642,-0.039859,0.004734,31.58,65.5755175641361
12202,-8.247462,-3.751348,4.118646,0.029169,-0.029322,0.011759,31.52,65.554880005931
12212,-8.244471,-3.763312,4.11745,0.031612,-0.018937,0.01909,31.52,65.5664800781439
12222,-8.25165,-3.75733,4.116253,0.03375,-0.008858,0.024435,31.55,65.5823918456222
12232,-8.277372,-3.759125,4.12403,0.034972,0,0.028711,31.55,65.5990653688128
12242,-8.27139,-3.750151,4.125825,0.03711,0.018937,0.037415,31.56,65.5679505471852
12252,-8.279764,-3.74716,4.119842,0.038332,0.0281,0.041386,31.55,65.6144133456079
12262,-8.299506,-3.738786,4.114459,0.037874,0.036499,0.043524,31.55,65.6769821105036
12272,-8.305488,-3.734,4.135994,0.037874,0.045662,0.04444,31.54,65.5728016730237
12282,-8.331809,-3.734,4.118646,0.036805,0.051924,0.043677,31.54,65.7199580778001
12292,-8.345568,-3.729812,4.124628,0.035736,0.058796,0.043219,31.55,65.7142890424803
12302,-8.374879,-3.66401,4.289733,0.025656,0.07086,0.039401,31.55,64.8607949004034
12312,-8.350951,-3.721437,4.09412,0.003207,0.091172,0.031154,31.52,65.8768758069393
12322,-8.364112,-3.720839,4.09412,0.002749,0.0956,0.028863,31.52,65.904382820841
12332,-8.368299,-3.722036,4.089932,0.002749,0.098807,0.026267,31.53,65.9362770724698
12342,-8.38445,-3.712464,4.079762,0.002443,0.100793,0.023366,31.53,66.0146172474841
12352,-8.401799,-3.708277,4.076771,0.002291,0.101709,0.018631,31.56,66.0630565651366
12362,-8.404191,-3.705884,4.079165,0.001833,0.102167,0.013897,31.56,66.0534101347906
12372,-8.415558,-3.705884,4.066602,0.00168,0.10232,0.010079,31.52,66.1428976239048
12382,-8.42453,-3.696911,4.079762,0.000458,0.100182,0.003818,31.52,66.0849752304895
12392,-8.44427,-3.646662,4.106084,-0.005498,0.102014,-0.003207,31.54,65.9435928691958
12402,-8.433504,-3.7005,4.033103,-0.011454,0.100029,-0.008705,31.54,66.3503635483926
12412,-8.443673,-3.698107,4.033103,-0.011912,0.090255,-0.019242,31.57,66.36944332782
12422,-8.434101,-3.695116,4.022933,-0.011606,0.08491,-0.023366,31.55,66.3997876868215
12432,-8.446664,-3.705884,4.015755,-0.012523,0.078802,-0.028863,31.55,66.4733430129822
12442,-8.446664,-3.701099,4.013362,-0.013134,0.07254,-0.032376,31.54,66.4814729727042
12452,-8.440681,-3.69392,4.001398,-0.012828,0.06521,-0.03543,31.54,66.5250169989413
12462,-8.451449,-3.689733,3.995416,-0.013286,0.056352,-0.038179,31.5,66.5748965105262
12472,-8.439486,-3.697509,3.993621,-0.013286,0.048258,-0.040623,31.5,66.5665002054286
12482,-8.446067,-3.7005,3.993023,-0.012065,0.040012,-0.042608,31.54,66.5860188410607
12492,-8.434101,-3.698706,3.984648,-0.012675,0.030696,-0.043524,31.54,66.6034010393177
12502,-8.426923,-3.699304,3.985844,-0.012675,0.021075,-0.043982,31.51,66.5827637898332
12512,-8.432307,-3.70409,3.978666,-0.011759,0.011759,-0.04444,31.51,66.6359366683965
12522,-8.427522,-3.70409,3.982255,-0.010843,0.001069,-0.044593,31.52,66.6071917910992
12532,-8.418548,-3.697509,3.976273,-0.009316,-0.009468,-0.044288,31.52,66.6139251294837
12542,-8.414959,-3.707081,3.982255,-0.008399,-0.018631,-0.043982,31.57,66.5838220860427
12552,-8.410173,-3.701099,3.97747,-0.00733,-0.028253,-0.041539,31.57,66.593505688152
12562,-8.413164,-3.708277,3.975077,-0.005651,-0.037263,-0.040317,31.56,66.61886141889
12572,-8.399406,-3.711866,3.993621,-0.004734,-0.046578,-0.039401,31.56,66.4961823910085
12582,-8.388638,-3.723232,3.998407,-0.002596,-0.054672,-0.037415,31.54,66.4590958920881
12592,-8.38445,-3.723232,3.999603,0.00168,-0.069028,-0.035888,31.54,66.444066054624
12602,-8.367702,-3.725027,4.012764,0.003665,-0.075136,-0.034667,31.54,66.3415687827915
12612,-8.370093,-3.718446,4.020541,0.006261,-0.079565,-0.032681,31.53,66.299640063944
12622,-8.365907,-3.716652,4.027719,0.00901,-0.083383,-0.031001,31.53,66.2515000705135
12632,-8.349755,-3.73041,4.046263,0.011148,-0.085979,-0.030696,31.55,66.133126722391
12642,-8.35155,-3.722634,4.067799,0.014203,-0.086896,-0.028253,31.55,66.0168289209729
12652,-8.338388,-3.725625,4.107878,0.01069,-0.091477,-0.025198,31.52,65.7821975050204
12662,-8.34796,-3.74716,4.063612,0.006261,-0.095448,-0.02138,31.52,66.0543924771392
12672,-8.322237,-3.738786,4.078567,0.008552,-0.093615,-0.020311,31.53,65.9134461460693
12682,-8.321041,-3.749553,4.080959,0.01237,-0.091019,-0.018937,31.53,65.9087131863624
12692,-8.321041,-3.742374,4.08395,0.014966,-0.086743,-0.017562,31.53,65.886167820762
12702,-8.3013,-3.738786,4.103691,0.016952,-0.081245,-0.016035,31.53,65.737143238741
12712,-8.290532,-3.754339,4.099504,0.019242,-0.074373,-0.01405,31.53,65.751005636703
12722,-8.290532,-3.745365,4.115655,0.020311,-0.066432,-0.012065,31.53,65.6577890323901
12732,-8.28156,-3.75075,4.127619,0.022602,-0.057421,-0.010385,31.55,65.5811510189521
12742,-8.28156,-3.74716,4.161717,0.02306,-0.049327,-0.008552,31.55,65.3997032127575
12752,-8.274381,-3.752544,4.128217,0.01909,-0.038332,-0.005498,31.56,65.5642625597491
12762,-8.285149,-3.760919,4.138387,0.017715,-0.018173,-0.000305,31.56,65.5426462545335
12772,-8.274381,-3.748357,4.139583,0.01909,-0.007178,0.003665,31.57,65.5007658660189
12782,-8.26481,-3.755535,4.141976,0.019242,0.004429,0.007025,31.57,65.4745705745164
12792,-8.271988,-3.744768,4.143771,0.019548,0.015272,0.009316,31.57,65.470175548094
12802,-8.2678,-3.731607,4.159923,0.019853,0.026725,0.012675,31.53,65.3637907935905
12812,-8.279764,-3.732804,4.140181,0.016035,0.041233,0.014508,31.53,65.4940724602878
12822,-8.285149,-3.738187,4.119842,0.014508,0.052993,0.017257,31.53,65.6172869548233
12832,-8.294122,-3.732205,4.127021,0.014813,0.062003,0.020617,31.53,65.5933313561883
12842,-8.30489,-3.732804,4.149753,0.013439,0.072846,0.022907,31.52,65.4986172850124
12852,-8.315059,-3.726223,4.104289,0.01069,0.085674,0.02306,31.52,65.7514569719055
12862,-8.325229,-3.725625,4.111467,0.009468,0.094226,0.021991,31.57,65.7352322019525
12872,-8.340781,-3.72383,4.106084,0.007178,0.103084,0.021838,31.57,65.7949678109188
12882,-8.340781,-3.707081,4.092923,0.005803,0.112399,0.022144,31.55,65.847718464042
12892,-8.362316,-3.707081,4.086941,0.003512,0.119271,0.02138,31.55,65.9249918016966
12902,-8.385648,-3.707081,4.078567,0.001069,0.126296,0.018937,31.55,66.018338958784
12912,-8.38804,-3.714259,4.068995,0,0.132252,0.016035,31.55,66.0800862155371
12922,-8.397013,-3.699304,4.034299,-0.001833,0.137597,0.011606,31.53,66.2664002430897
12932,-8.429317,-3.70409,4.029513,-0.003818,0.144622,0.003207,31.53,66.363644459249
12942,-8.419745,-3.692724,4.018147,-0.006414,0.145539,-0.00168,31.55,66.3925772132733
12952,-8.432905,-3.701099,4.005585,-0.007789,0.136528,-0.004123,31.55,66.4934695307832
12962,-8.449656,-3.7005,4.001996,-0.00901,0.121257,-0.003054,31.55,66.5465431939492
12972,-8.46102,-3.695715,3.985246,-0.010232,0.104763,-0.003971,31.54,66.6533538145956
12982,-8.465807,-3.693322,3.976273,-0.010843,0.086132,-0.003971,31.54,66.7080380041817
12992,-8.48136,-3.697509,3.97747,-0.011301,0.066279,-0.005192,31.53,66.7376191387241
13002,-8.489736,-3.7005,3.964907,-0.012828,0.046578,-0.006872,31.53,66.8231923618985
13012,-8.505288,-3.699902,3.966702,-0.012675,0.028405,-0.011606,31.52,66.8451599995289
13022,-8.510672,-3.698107,3.964907,-0.013286,0.013286,-0.016646,31.52,66.8639567627932
13032,-8.504689,-3.701697,3.9673,-0.013592,-0.001374,-0.023671,31.54,66.8424100872161
13042,-8.502895,-3.701099,3.969095,-0.014203,-0.01573,-0.030849,31.54,66.8288283988533
13052,-8.499306,-3.690929,3.976871,-0.014508,-0.028558,-0.037263,31.53,66.7717833251979
13062,-8.488539,-3.706482,3.98405,-0.014661,-0.040623,-0.042761,31.53,66.72608828124
13072,-8.475977,-3.708277,3.983452,-0.014966,-0.052229,-0.049022,31.52,66.704958171031
13082,-8.472386,-3.720839,3.99721,-0.014966,-0.063225,-0.053909,31.52,66.6370736685294
13092,-8.447861,-3.716652,3.996014,-0.014813,-0.07254,-0.057574,31.57,66.5888002815002
13102,-8.417951,-3.716652,4.013362,-0.013744,-0.081551,-0.062919,31.57,66.4358756039757
13112,-8.400601,-3.72383,4.015156,-0.011759,-0.094226,-0.064446,31.55,66.3968711800344
13122,-8.387442,-3.722036,4.022933,-0.009774,-0.099266,-0.064294,31.55,66.326910667724
13132,-8.371889,-3.729812,4.025326,-0.007636,-0.102931,-0.063377,31.55,66.288966207642
13142,-8.347363,-3.738187,4.035496,-0.005192,-0.105222,-0.060781,31.53,66.1918596775506
13152,-8.326425,-3.734598,4.045067,-0.002596,-0.106138,-0.059407,31.53,66.0939246341602
13162,-8.31446,-3.741776,4.051647,0.001222,-0.10568,-0.055131,31.55,66.0408271515
13172,-8.302496,-3.74058,4.052245,0.004276,-0.104,-0.050396,31.55,66.0110736960994
13182,-8.303694,-3.748357,4.063013,0.007483,-0.101556,-0.045051,31.54,65.9645839104882
13192,-8.271988,-3.75075,4.078567,0.011301,-0.097128,-0.039859,31.54,65.8174393281122
13202,-8.274979,-3.741179,4.080959,0.015119,-0.091783,-0.034361,31.57,65.8019989182081
13212,-8.253444,-3.752544,4.07737,0.01909,-0.085521,-0.027336,31.57,65.7856184897695
13222,-8.250452,-3.751946,4.1007,0.022297,-0.07758,-0.019853,31.48,65.6560521399553
13232,-8.251051,-3.741179,4.100101,0.025504,-0.068875,-0.013134,31.48,65.649918874074
13242,-8.239087,-3.754937,4.12044,0.029016,-0.059712,-0.00733,31.53,65.5308511160943
13252,-8.236095,-3.71725,4.244269,0.027031,-0.049327,-0.001374,31.53,64.8405033967429
13262,-8.22473,-3.749553,4.104887,0.014813,-0.033598,0.005956,31.54,65.5759839123847
13272,-8.239087,-3.743571,4.121637,0.016035,-0.022907,0.013592,31.54,65.5133385826965
13282,-8.249256,-3.752544,4.124628,0.020922,-0.001069,0.027031,31.55,65.5286114732614
13292,-8.240283,-3.751348,4.128816,0.023366,0.009927,0.033292,31.55,65.4860030250618
13302,-8.270193,-3.746562,4.135994,0.02474,0.02138,0.038485,31.55,65.5086725031248
13312,-8.280362,-3.736991,4.130012,0.026114,0.03207,0.043219,31.56,65.5525961052334
13322,-8.292925,-3.725625,4.181458,0.023671,0.047647,0.04444,31.56,65.3005301548144
13332,-8.299506,-3.733402,4.126423,0.017104,0.064752,0.043219,31.54,65.6092507681407
13342,-8.322237,-3.738786,4.122834,0.017715,0.07422,0.046273,31.54,65.6821706063478
13352,-8.327023,-3.735795,4.118048,0.018479,0.08262,0.047037,31.54,65.7145297225199
13362,-8.343175,-3.732205,4.109075,0.018021,0.089797,0.046884,31.54,65.7925041210957
13372,-8.355139,-3.718446,4.106682,0.016952,0.095906,0.045815,31.54,65.8174442106651
13382,-8.377871,-3.723232,4.098307,0.015577,0.100029,0.042302,31.54,65.9141249521755
13392,-8.405388,-3.708875,4.096512,0.013897,0.103542,0.038485,31.55,65.9684315589216
13402,-8.418548,-3.720839,4.08395,0.012217,0.106138,0.034056,31.55,66.07280881753
13412,-8.434101,-3.702295,4.102495,0.01069,0.10797,0.028711,31.55,65.9920619824622
13422,-8.445468,-3.705884,4.071388,0.004581,0.113163,0.020159,31.55,66.1809613738947
13432,-8.442476,-3.708277,4.068397,0.001833,0.112094,0.012981,31.52,66.1924353940409
13442,-8.452048,-3.701099,4.054638,0.000916,0.108734,0.007178,31.52,66.2774996239818
13452,-8.443673,-3.683152,4.0337,0.000153,0.094684,-0.004887,31.5,66.352648687561
13462,-8.450253,-3.687938,4.02413,-0.005651,0.082467,-0.009621,31.5,66.4207276207022
13472,-8.453843,-3.691527,4.023531,-0.007025,0.069333,-0.013744,31.5,66.4346160541749
13482,-8.463414,-3.692724,4.015156,-0.009316,0.055894,-0.016952,31.55,66.4993422280468
13492,-8.459227,-3.682554,4.009772,-0.010843,0.04215,-0.02138,31.55,66.5095180543539
13502,-8.46461,-3.689135,4.009174,-0.012217,0.029169,-0.024893,31.54,66.5297984828173
13512,-8.456235,-3.695116,4.009772,-0.013897,0.014508,-0.027947,31.54,66.5146920408949
13522,-8.449656,-3.696911,4.005585,-0.014355,-0.000153,-0.030543,31.54,66.5245184443492
13532,-8.452645,-3.698706,4.010371,-0.016799,-0.013439,-0.034667,31.54,66.5073622343457
13542,-8.440681,-3.695116,4.010371,-0.018021,-0.025198,-0.036805,31.52,66.479179682813
13552,-8.43111,-3.686144,4.012166,-0.018326,-0.036346,-0.039248,31.52,66.4416209829081
13562,-8.426923,-3.689733,4.011567,-0.01909,-0.046273,-0.041692,31.53,66.4392855070688
13572,-8.415558,-3.691527,4.016353,-0.018479,-0.054214,-0.043524,31.53,66.3920960028307
13582,-8.411968,-3.705884,4.028317,-0.019242,-0.060476,-0.045357,31.57,66.3352057269131
13592,-8.404191,-3.71067,4.031906,-0.019395,-0.065821,-0.046884,31.57,66.3045489766633
13602,-8.395219,-3.707679,4.036692,-0.018784,-0.070402,-0.048258,31.53,66.2578803534649
13612,-8.388638,-3.711866,4.045067,-0.017868,-0.073151,-0.048258,31.53,66.204113229579
13622,-8.380263,-3.715455,4.052843,-0.017104,-0.075289,-0.047953,31.58,66.1491312946592
13632,-8.363514,-3.73041,4.059424,-0.014203,-0.076053,-0.0478,31.54,66.0933627453651
13642,-8.34796,-3.709473,4.064209,-0.013439,-0.074984,-0.047037,31.54,66.0155211287823
13652,-8.343175,-3.709473,4.066004,-0.01237,-0.073457,-0.045204,31.53,65.995931210856
13662,-8.337193,-3.719045,4.082156,-0.009927,-0.070402,-0.043677,31.53,65.9077319356532
13672,-8.324032,-3.731009,4.074977,-0.007636,-0.06689,-0.040775,31.52,65.9286226719508
13682,-8.318647,-3.728018,4.089932,-0.00504,-0.062461,-0.038943,31.52,65.8359647701413
13692,-8.30489,-3.738187,4.098307,-0.00336,-0.057421,-0.035583,31.53,65.7724403079194
13702,-8.299506,-3.732804,4.09053,-0.000764,-0.051313,-0.033139,31.53,65.7963914416686
13712,-8.292925,-3.733402,4.097709,0.00168,-0.045509,-0.030085,31.56,65.7452260781915
13722,-8.288139,-3.737589,4.097709,0.003971,-0.038637,-0.026878,31.56,65.738987065542
13732,-8.280961,-3.743571,4.110869,0.006872,-0.030543,-0.022907,31.51,65.660437316317
13742,-8.267202,-3.728018,4.109075,0.00901,-0.022907,-0.018937,31.51,65.6249220717175
13752,-8.270791,-3.735196,4.109075,0.012217,-0.015119,-0.01573,31.54,65.63969538145
13762,-8.277969,-3.735196,4.104887,0.014813,-0.007483,-0.012217,31.54,65.6771422402769
13772,-8.270193,-3.745365,4.111467,0.016188,0.001069,-0.008094,31.5,65.6358125308359
13782,-8.273782,-3.739383,4.104289,0.018173,0.009163,-0.004429,31.5,65.6753193132894
13792,-8.272586,-3.746562,4.11745,0.021075,0.01741,0.001374,31.54,65.6108332426291
13802,-8.274979,-3.744768,4.115655,0.023671,0.032987,0.008247,31.52,65.6236433883647
13812,-8.289934,-3.714259,4.180261,0.018631,0.042913,0.012065,31.52,65.2890882119321
13822,-8.295319,-3.741179,4.1007,0.011759,0.052534,0.014508,31.56,65.7422531376435
13832,-8.298308,-3.741179,4.103691,0.013439,0.058643,0.018021,31.56,65.7330292014001
13842,-8.304291,-3.74058,4.091129,0.014355,0.064904,0.021533,31.54,65.8110305271027
13852,-8.317451,-3.733402,4.113262,0.015577,0.070402,0.023824,31.54,65.7166366346088
13862,-8.315059,-3.732804,4.09711,0.010996,0.082161,0.023824,31.54,65.7953287372056
13872,-8.318049,-3.739982,4.080361,0.008552,0.088575,0.024435,31.54,65.8962615496098
13882,-8.346764,-3.720839,4.103093,0.008399,0.093921,0.024893,31.56,65.8205267847568
13892,-8.34796,-3.735795,4.074379,0.004429,0.100945,0.022907,31.56,65.9872847637079
13902,-8.365308,-3.725027,4.079762,0.003818,0.104153,0.023366,31.54,65.9858165213847
13912,-8.377273,-3.723232,4.071388,0.000916,0.109498,0.020464,31.54,66.0532246519078
13922,-8.385049,-3.728018,4.053442,0.000458,0.113163,0.017715,31.53,66.1678776960107
13932,-8.407781,-3.720241,4.046263,-0.001833,0.11637,0.01573,31.53,66.2459582928717
13942,-8.399406,-3.722036,4.037888,-0.003665,0.118508,0.012828,31.57,66.2737835451871
13952,-8.403594,-3.706482,4.030112,-0.004276,0.117897,0.008858,31.57,66.3087976835988
13962,-8.435897,-3.726821,4.008576,-0.005956,0.118202,0.003971,31.51,66.507621665451
13972,-8.442476,-3.708277,3.991827,-0.007178,0.114385,-0.004734,31.51,66.5919050245632
