t_ms,ax,ay,az,gx,gy,gz,temp,ang_deg
12,-8.409575,-3.929015,3.968496,0.287565,-0.192117,-0.076664,32.02,66.8513015087693
22,-8.393424,-3.942175,4.0337,0.293063,-0.229533,-0.07422,32.08,66.4914625931227
32,-8.382656,-3.942773,4.166502,0.29627,-0.260992,-0.076511,32.08,65.7831614593144
42,-8.363514,-3.939184,4.236493,0.296117,-0.285427,-0.088423,32.06,65.3799560744967
52,-8.330612,-3.941577,4.311268,0.288939,-0.309556,-0.099113,32.1,64.9297494186508
62,-8.297112,-3.938586,4.37408,0.281914,-0.309251,-0.110414,32.1,64.5340011675807
72,-8.265409,-3.940381,4.435695,0.274126,-0.300851,-0.123089,32.04,64.1532817674709
82,-8.209177,-3.948756,4.502096,0.266185,-0.284358,-0.135918,32.04,63.7005391882645
92,-8.169695,-3.945167,4.548756,0.256105,-0.260534,-0.14844,32.03,63.3715215995835
102,-8.111071,-3.948756,4.584648,0.247706,-0.231976,-0.158978,32.03,63.0599621404175
112,-8.061419,-3.944568,4.625924,0.239459,-0.197462,-0.165544,32.03,62.7317108955043
122,-8.015956,-3.942175,4.667201,0.232129,-0.158214,-0.169821,32.03,62.4140776622945
132,-7.963314,-3.939782,4.68096,0.225562,-0.115148,-0.171348,32.05,62.2169687105935
142,-7.914261,-3.951746,4.700102,0.22098,-0.069791,-0.168599,32.05,62.0171853930762
152,-7.873583,-3.932006,4.704888,0.216857,-0.022297,-0.162948,32.04,61.8711242621122
162,-7.835896,-3.92722,4.709075,0.21533,0.026267,-0.154549,32.04,61.7525451009931
172,-7.810771,-3.917051,4.696513,0.214261,0.074373,-0.143553,32.07,61.7426049239305
182,-7.784451,-3.919443,4.7007,0.215025,0.123242,-0.129198,32.07,61.6597846710198
192,-7.768299,-3.905685,4.671388,0.216094,0.170279,-0.112857,32.05,61.7527441828232
202,-7.775477,-3.895515,4.659424,0.217773,0.215177,-0.093615,32.05,61.8190422855477
212,-7.799405,-3.867998,4.595416,0.220828,0.258549,-0.073304,32.04,62.172544181699
222,-7.825727,-3.859623,4.558327,0.228464,0.33506,-0.031307,32.02,62.4174549625835
232,-7.863414,-3.842275,4.52423,0.233656,0.366366,-0.011301,32.02,62.6637231474951
242,-7.907083,-3.827918,4.482355,0.238696,0.391259,0.007178,32.04,62.9678454825887
252,-7.950153,-3.801597,4.443472,0.244346,0.40928,0.024587,32.04,63.2412152728571
262,-7.994421,-3.786044,4.417151,0.249997,0.421039,0.039401,32.06,63.464266203208
272,-8.059027,-3.765106,4.362714,0.254731,0.424551,0.05116,32.06,63.8739384639203
282,-8.119445,-3.757928,4.339384,0.25977,0.42165,0.060018,32.02,64.1259567677136
292,-8.168499,-3.729812,4.311268,0.263436,0.412181,0.064904,32.02,64.3538657962276
302,-8.222337,-3.708875,4.289135,0.266337,0.398284,0.065515,32.03,64.5685623479083
312,-8.26481,-3.695715,4.261617,0.267559,0.380416,0.063377,32.03,64.7928737664061
322,-8.312068,-3.655635,4.241877,0.266032,0.361021,0.057574,32.01,64.9605988062126
332,-8.340183,-3.650849,4.246064,0.263436,0.340405,0.049327,32.01,64.9964697793818
342,-8.360522,-3.632903,4.235895,0.25977,0.319941,0.039095,32.09,65.0766325949423
352,-8.383853,-3.611966,4.222135,0.254425,0.299019,0.027947,32.09,65.1791618920712
362,-8.405987,-3.598805,4.222734,0.246942,0.277944,0.015272,32.02,65.2122333599035
372,-8.408379,-3.573082,4.210171,0.240223,0.258091,0.002138,32.02,65.2583504301311
382,-8.415558,-3.562315,4.21077,0.23274,0.23839,-0.012675,32.05,65.2609845568136
392,-8.428718,-3.55394,4.196413,0.224951,0.202044,-0.040317,32.05,65.3563364710278
402,-8.417951,-3.553342,4.195815,0.210138,0.18555,-0.053451,32.03,65.3353095205784
412,-8.419147,-3.540181,4.198806,0.204182,0.168904,-0.067653,32.05,65.3102840603406
422,-8.413763,-3.538985,4.184449,0.198837,0.152564,-0.080634,32.05,65.3717830707538
432,-8.411968,-3.538985,4.181458,0.195171,0.136528,-0.092699,32.06,65.3833661945519
442,-8.423933,-3.540779,4.186841,0.191964,0.121104,-0.104153,32.06,65.3833102153302
452,-8.404191,-3.538985,4.185645,0.189979,0.105832,-0.114995,32.05,65.3445801370786
462,-8.409575,-3.55394,4.186841,0.188299,0.090866,-0.124311,32.05,65.3640169362411
472,-8.408977,-3.554538,4.186841,0.187994,0.076205,-0.133169,32.03,65.3632607015128
482,-8.410771,-3.556931,4.190431,0.188452,0.060628,-0.142484,32.03,65.3507955997804
492,-8.410771,-3.561717,4.195216,0.189521,0.04612,-0.152869,32.08,65.3304391201948
502,-8.417951,-3.565904,4.19402,0.190895,0.03146,-0.161268,32.08,65.3562320617658
512,-8.431709,-3.580261,4.195216,0.191201,0.015882,-0.169362,32.04,65.393376513011
522,-8.42812,-3.589832,4.206582,0.191506,0.000764,-0.177915,32.04,65.3356888131772
532,-8.418548,-3.602395,4.208377,0.190895,-0.015119,-0.186925,32.06,65.3172314553622
542,-8.408977,-3.61735,4.236493,0.190285,-0.031612,-0.19624,32.06,65.165240072895
552,-8.410173,-3.625126,4.247859,0.188452,-0.047189,-0.205403,32.04,65.1166477396568
562,-8.386844,-3.659822,4.262215,0.185245,-0.061697,-0.224188,32.04,65.0245841110683
572,-8.37129,-3.668795,4.281956,0.178984,-0.085521,-0.233656,32.06,64.8974606986155
582,-8.36112,-3.68734,4.297509,0.175166,-0.094837,-0.241903,32.08,64.8131053074977
592,-8.328817,-3.691527,4.307081,0.170737,-0.101251,-0.250149,32.08,64.696463870707
602,-8.309675,-3.719045,4.322036,0.166766,-0.106291,-0.256411,32.01,64.6043120055923
612,-8.282756,-3.735795,4.33041,0.163712,-0.107818,-0.263283,32.01,64.5180649805587
622,-8.24148,-3.741179,4.346562,0.160352,-0.108123,-0.26817,32.04,64.3479847794701
632,-8.212766,-3.761517,4.355535,0.15913,-0.105527,-0.27153,32.04,64.2580225812765
642,-8.185248,-3.784249,4.362714,0.158367,-0.101098,-0.272751,32.07,64.1825443370532
652,-8.163115,-3.798008,4.375875,0.157298,-0.094379,-0.271988,32.07,64.0791160427587
662,-8.13141,-3.805186,4.392624,0.158061,-0.086285,-0.268781,32.05,63.9283684425877
672,-8.080563,-3.829713,4.398606,0.160047,-0.075289,-0.26313,32.05,63.8076427493627
682,-8.04826,-3.829713,4.411767,0.162643,-0.062614,-0.255189,32.04,63.6654031846942
692,-8.024929,-3.836293,4.431507,0.16585,-0.048106,-0.24511,32.04,63.5167859880797
702,-7.996215,-3.856034,4.44048,0.168141,-0.029322,-0.232892,32.05,63.4257911523309
712,-7.963912,-3.866802,4.46082,0.172264,-0.008552,-0.218232,32.05,63.2575969436547
722,-7.933403,-3.875176,4.476373,0.17486,0.014966,-0.202655,32.02,63.115316744468
732,-7.910074,-3.865605,4.490132,0.177762,0.041844,-0.167683,32.02,62.9782060480174
742,-7.904091,-3.876971,4.497908,0.184329,0.10064,-0.147982,32.05,62.9370705756127
752,-7.886146,-3.881158,4.496712,0.187077,0.132252,-0.129198,32.07,62.9056012860498
762,-7.893922,-3.883551,4.49731,0.189521,0.163712,-0.110567,32.07,62.9237322572759
772,-7.923234,-3.886542,4.492525,0.191048,0.193644,-0.09331,32.04,63.021142488051
782,-7.930413,-3.876971,4.483552,0.19227,0.22205,-0.076053,32.04,63.0732943399509
792,-7.954939,-3.88056,4.461418,0.193492,0.247859,-0.061697,32.07,63.2491836944688
802,-7.990233,-3.865605,4.451249,0.193797,0.271071,-0.049938,32.07,63.3670584475859
812,-8.036295,-3.860819,4.428516,0.193797,0.290619,-0.038485,32,63.5857059462287
822,-8.063812,-3.868596,4.409374,0.194561,0.306349,-0.031154,32,63.7562220843275
832,-8.10449,-3.852444,4.380062,0.194561,0.317803,-0.02642,32.01,63.9825517300972
842,-8.158927,-3.851846,4.366303,0.194255,0.32498,-0.024435,32.01,64.1759416700994
852,-8.200802,-3.838088,4.342973,0.194102,0.327118,-0.02474,32,64.3754009823813
862,-8.235497,-3.834498,4.308277,0.193492,0.324828,-0.027489,32,64.6274138417117
872,-8.272586,-3.835695,4.287939,0.193797,0.318261,-0.032223,32.04,64.8150859215318
882,-8.303694,-3.823133,4.274179,0.194866,0.307876,-0.038485,32.04,64.9412832508041
892,-8.340781,-3.811767,4.246662,0.195782,0.293215,-0.046884,32.07,65.1521728493444
902,-8.386245,-3.78724,4.213162,0.197462,0.276264,-0.055436,32.07,65.3986116472698
912,-8.400003,-3.774678,4.198806,0.203265,0.234267,-0.073457,32.04,65.4899061551861
922,-8.410173,-3.769294,4.189833,0.207541,0.211207,-0.080481,32.02,65.5527213035125
932,-8.423933,-3.759723,4.178466,0.211665,0.18723,-0.088423,32.02,65.6315277272088
942,-8.416754,-3.746562,4.173681,0.216704,0.163101,-0.095142,32.01,65.6283694316364
952,-8.416754,-3.737589,4.167699,0.222202,0.138972,-0.099724,32.01,65.6507282309446
962,-8.41137,-3.72383,4.172484,0.227853,0.116217,-0.104153,32.08,65.6014466076038
972,-8.392825,-3.719045,4.17727,0.232282,0.094073,-0.108276,32.08,65.5323475711267
982,-8.393424,-3.697509,4.185645,0.237016,0.073151,-0.108734,32.03,65.4698287346604
992,-8.383254,-3.701697,4.193422,0.241903,0.054062,-0.10965,32.03,65.4116308939289
1002,-8.352745,-3.688536,4.205386,0.24679,0.037721,-0.108734,32.05,65.2708302476906
1012,-8.343175,-3.672983,4.228117,0.25076,0.023213,-0.106443,32.05,65.1172545874538
1022,-8.331809,-3.681358,4.228716,0.25412,0.010537,-0.104,32.02,65.0973026906553
1032,-8.291131,-3.669394,4.238885,0.256869,-0.000305,-0.098349,32.02,64.9431614486227
1042,-8.28455,-3.662813,4.263412,0.258091,-0.009316,-0.093768,32.03,64.7949608454191
1052,-8.262416,-3.668795,4.271787,0.258549,-0.015577,-0.087354,32.03,64.7080695373346
1062,-8.23789,-3.669992,4.283153,0.258243,-0.020464,-0.080787,32,64.5953431111112
1072,-8.208578,-3.65384,4.301697,0.257327,-0.023518,-0.073609,32,64.4167142271978
1082,-8.182258,-3.658028,4.304688,0.2558,-0.026267,-0.060018,32.07,64.3456015109676
1092,-8.17149,-3.662813,4.31725,0.249997,-0.025962,-0.052993,32.06,64.26069288355
1102,-8.166704,-3.658626,4.325027,0.247095,-0.023518,-0.047189,32.06,64.2050889319769
1112,-8.163713,-3.656831,4.335794,0.243735,-0.02138,-0.040317,32.04,64.1405275417924
1122,-8.154141,-3.678366,4.347759,0.239306,-0.01741,-0.035277,32.04,64.078751375594
1132,-8.163713,-3.676572,4.348955,0.233809,-0.013439,-0.033292,32.04,64.0926626777744
1142,-8.163713,-3.678366,4.365107,0.228922,-0.008705,-0.033598,32.04,64.0109486584302
1152,-8.172686,-3.679563,4.371089,0.224493,-0.00336,-0.032681,32.05,64.0018900620498
1162,-8.175676,-3.678965,4.380062,0.218995,0.002749,-0.03375,32.05,63.9618242846499
1172,-8.19781,-3.684947,4.386044,0.213039,0.008399,-0.038943,32.09,63.9879683167161
1182,-8.215158,-3.693322,4.405785,0.207236,0.013744,-0.045815,32.09,63.9348489378433
1192,-8.228917,-3.694518,4.418945,0.200975,0.019395,-0.055436,32.04,63.9001013289424
1202,-8.244471,-3.705286,4.425525,0.196393,0.02474,-0.06689,32.04,63.9130477023962
1212,-8.26481,-3.702295,4.436892,0.190437,0.030391,-0.081703,32.03,63.8983471691218
1222,-8.261221,-3.711268,4.442276,0.18555,0.036194,-0.096517,32.03,63.8718798544843
1232,-8.270791,-3.705884,4.44407,0.1799,0.042455,-0.115606,32.08,63.8790542396924
1242,-8.28156,-3.71067,4.460222,0.176082,0.048564,-0.133932,32.08,63.8262786436761
1392,-8.00818,-3.71725,4.368696,0.157298,0.243583,-0.227089,32.05,63.6728951284623
1402,-8.003992,-3.728616,4.348357,0.158672,0.2558,-0.207389,32.04,63.7815820736525
1412,-8.01117,-3.721437,4.329215,0.161727,0.266185,-0.185703,32.04,63.8905578985628
1422,-8.013563,-3.72383,4.283751,0.164475,0.275195,-0.161879,32.04,64.1369127739501
1432,-8.037491,-3.719643,4.27059,0.171042,0.288787,-0.110872,32.04,64.2566264306798
1442,-8.056634,-3.717848,4.256832,0.175471,0.291994,-0.085063,32.04,64.3708125472839
1452,-8.105088,-3.711866,4.225127,0.179594,0.292452,-0.059712,32.04,64.6411557496764
1462,-8.111071,-3.716054,4.20718,0.183718,0.289092,-0.03543,32.04,64.7532280506002
1472,-8.161918,-3.73041,4.192225,0.188605,0.282983,-0.014813,32.06,64.9602863031641
1482,-8.209774,-3.728616,4.166502,0.194408,0.273362,0.004429,32.06,65.1992239746166
1492,-8.269596,-3.739982,4.156931,0.1996,0.25916,0.020006,32.04,65.3915662193785
1502,-8.318647,-3.735795,4.137789,0.20464,0.240681,0.030849,32.04,65.5935917350662
1512,-8.368299,-3.738786,4.118646,0.210138,0.219301,0.039248,32.08,65.8026354088739
1522,-8.415558,-3.739383,4.111467,0.215788,0.194561,0.044288,32.08,65.940925893377
1532,-8.469396,-3.75075,4.099504,0.22098,0.166155,0.042608,32.06,66.1268287897971
1542,-8.516654,-3.755535,4.09711,0.225409,0.134085,0.036652,32.06,66.242132393798
1552,-8.555537,-3.758526,4.088138,0.22938,0.098655,0.025809,32.05,66.3715258459956
1562,-8.589037,-3.760919,4.09412,0.232587,0.062461,0.010843,32.05,66.4118521850073
1572,-8.620741,-3.764508,4.106084,0.234878,0.02474,-0.007941,32.04,66.4187460766269
1582,-8.629116,-3.772883,4.115655,0.235336,-0.013897,-0.03146,32.04,66.3944397463988
1592,-8.620144,-3.784249,4.159324,0.234878,-0.052534,-0.058032,32.05,66.1635253924574
1602,-8.617152,-3.777071,4.190431,0.232892,-0.120799,-0.11469,32.05,65.9925973207303
1612,-8.600404,-3.784249,4.22393,0.224646,-0.150731,-0.14615,32.05,65.7942360002021
1622,-8.556733,-3.785445,4.252644,0.218384,-0.175929,-0.176845,32.05,65.5580134166262
1632,-8.517851,-3.796811,4.295117,0.211665,-0.196851,-0.204487,32.05,65.2708353482699
1642,-8.478967,-3.790231,4.321437,0.204945,-0.21197,-0.231518,32.05,65.0477641820852
1652,-8.401799,-3.789633,4.356134,0.196851,-0.222508,-0.256258,32.05,64.7034671012579
1662,-8.33121,-3.8004,4.374678,0.188757,-0.226326,-0.275958,32.03,64.4644554171964
1672,-8.271988,-3.808775,4.406981,0.182038,-0.224493,-0.291841,32.03,64.1764683683741
1682,-8.201998,-3.815356,4.436892,0.175318,-0.215025,-0.301615,32.06,63.8728664906381
1692,-8.124231,-3.805186,4.46082,0.168599,-0.199906,-0.308487,32.06,63.5617172313571
1702,-8.053642,-3.805186,4.494917,0.163406,-0.178525,-0.309861,32.04,63.2230708558402
1712,-7.962716,-3.829114,4.514658,0.160047,-0.1518,-0.305891,32.04,62.9345540241474
1722,-7.914261,-3.817749,4.532604,0.156687,-0.119577,-0.296575,32.07,62.7138329602165
1732,-7.855039,-3.812365,4.540979,0.155618,-0.082925,-0.283441,32.07,62.5219625886744
1742,-7.800602,-3.809972,4.54756,0.156076,-0.042455,-0.265879,32.06,62.3529729449619
1752,-7.758727,-3.824927,4.563113,0.159283,0.000916,-0.243583,32.06,62.1879748265167
1762,-7.733603,-3.812963,4.553542,0.163406,0.04612,-0.217621,32.07,62.1614345869863
1772,-7.700103,-3.814159,4.539185,0.169362,0.091783,-0.157756,32.07,62.1550558853959
1782,-7.697711,-3.798606,4.537988,0.184481,0.181732,-0.125227,32.07,62.1363928862233
1792,-7.713862,-3.805186,4.522435,0.194102,0.223577,-0.091783,32.04,62.2653960906438
1802,-7.733603,-3.809972,4.497908,0.203265,0.262825,-0.05849,32.04,62.4476670205469
1812,-7.765906,-3.793222,4.474578,0.21365,0.299171,-0.024893,32.05,62.6283239597104
1822,-7.816754,-3.778267,4.43749,0.223271,0.329409,0.006261,32.05,62.9277700431332
1832,-7.882556,-3.769294,4.426722,0.231976,0.354455,0.034056,32.04,63.1313894298951
1842,-7.947162,-3.769294,4.405785,0.239917,0.37446,0.058338,32.04,63.3937047707507
1852,-8.00818,-3.748955,4.381856,0.246026,0.388968,0.078343,32.08,63.6389064735147
1862,-8.079366,-3.741776,4.358526,0.249844,0.397521,0.093157,32.08,63.9175628702764
1872,-8.155936,-3.723232,4.336392,0.252593,0.399659,0.104611,32.02,64.1883048054164
1882,-8.218747,-3.716652,4.312464,0.253356,0.396604,0.108581,32.02,64.4476502119079
1892,-8.293524,-3.708277,4.281956,0.252287,0.387289,0.10797,32.02,64.7640386742942
1902,-8.353942,-3.702295,4.261617,0.250149,0.373391,0.102625,32.02,64.9964241016341
1912,-8.41137,-3.68375,4.24068,0.247248,0.35476,0.093615,32.05,65.2118398150052
1922,-8.453843,-3.677171,4.228716,0.242361,0.330936,0.079107,32.05,65.3591614332922
1932,-8.511868,-3.664608,4.204788,0.237932,0.303295,0.061697,32,65.5949062376874
1942,-8.566306,-3.66401,4.186243,0.232282,0.273057,0.039859,32,65.8050382831328
1952,-8.580662,-3.645465,4.165306,0.22037,0.206167,-0.00901,32.07,65.9258444920434
1962,-8.596813,-3.643072,4.166502,0.213803,0.171806,-0.036499,32.05,65.9515755775491
1972,-8.606385,-3.643671,4.171288,0.20861,0.137139,-0.064141,32.05,65.9477484789487
1982,-8.60818,-3.639483,4.174279,0.202196,0.103084,-0.092546,32.04,65.9325083525006
1992,-8.580662,-3.638287,4.175476,0.195477,0.07086,-0.121409,32.04,65.8673332228004
2002,-8.562119,-3.632903,4.184449,0.188757,0.040623,-0.149815,32.03,65.777291743187
2012,-8.53819,-3.638287,4.205386,0.182649,0.014355,-0.173791,32.03,65.6239826828937
2022,-8.516056,-3.637689,4.218546,0.178984,-0.008705,-0.195324,32.01,65.5086361678784
2032,-8.455637,-3.638287,4.231707,0.174402,-0.029016,-0.215941,32.01,65.3112650180794
2042,-8.420342,-3.644269,4.252644,0.170279,-0.044288,-0.231365,32.06,65.1324048836688
2052,-8.377871,-3.631706,4.272385,0.167835,-0.053909,-0.242972,32.06,64.9255331463617
2062,-8.328817,-3.650849,4.28734,0.166308,-0.061392,-0.251982,32.04,64.7582082977173
2072,-8.280362,-3.648456,4.312464,0.165392,-0.063683,-0.2558,32.04,64.5178320251435
2082,-8.240881,-3.66042,4.323831,0.164781,-0.062461,-0.257022,32.04,64.3819736208363
2092,-8.200802,-3.658626,4.322036,0.164628,-0.059101,-0.256105,32.04,64.2984485783918
2102,-8.175079,-3.679563,4.337589,0.166461,-0.052534,-0.250913,32.07,64.1806178983029
2112,-8.145766,-3.699304,4.357928,0.168141,-0.043677,-0.244804,32.07,64.0286195619153
2122,-8.094321,-3.708875,4.348955,0.169515,-0.022449,-0.22602,32.03,63.96680382092
2132,-8.095517,-3.70409,4.356732,0.173944,-0.009927,-0.214261,32.05,63.9241134095186
2142,-8.077571,-3.722036,4.360919,0.176845,0.002749,-0.202196,32.05,63.8799336428001
2152,-8.075178,-3.734598,4.357928,0.179136,0.015119,-0.190437,32.07,63.9033390230204
2162,-8.07458,-3.738187,4.353741,0.18158,0.027031,-0.177456,32.07,63.9275414699643
2172,-8.092526,-3.75075,4.356134,0.183718,0.036041,-0.165392,32.05,63.9698401123987
2182,-8.102695,-3.758526,4.342973,0.185092,0.044593,-0.152564,32.05,64.0696998504155
2192,-8.103294,-3.765705,4.34058,0.186619,0.051313,-0.142332,32.04,64.0911071499523
2202,-8.122437,-3.772285,4.332804,0.187841,0.055589,-0.131947,32.04,64.1820520799372
2212,-8.138588,-3.781856,4.328018,0.188299,0.057269,-0.123242,32.05,64.2536103228926
2222,-8.149954,-3.795615,4.319643,0.188605,0.057879,-0.114995,32.05,64.3371389868632
2232,-8.172686,-3.794419,4.321437,0.189368,0.056658,-0.107818,32.09,64.3777966913515
2242,-8.182856,-3.812963,4.319045,0.189521,0.054214,-0.101709,32.09,64.4323372517796
2252,-8.179864,-3.808177,4.323233,0.191048,0.051618,-0.098044,32.06,64.3990052158589
2262,-8.196015,-3.821936,4.333402,0.191506,0.048258,-0.094531,32.06,64.3970979339743
2272,-8.207382,-3.82732,4.343571,0.191201,0.045357,-0.093462,32.06,64.3757886271408
2282,-8.209177,-3.828516,4.362714,0.190132,0.043982,-0.094073,32.06,64.2826800164051
2292,-8.040483,-3.218945,5.726025,0.190132,0.043066,-0.087659,32.07,56.529872000266
2302,-8.164311,-3.866203,4.333402,-0.016646,-0.006109,-0.060476,32.05,64.3727153722777
2312,-8.17807,-3.823133,4.32742,-0.03146,-0.017104,-0.050855,32.05,64.3890111265817
2322,-8.137392,-3.872185,4.313661,-0.023824,-0.017715,-0.05116,32.03,64.4208334211482
2332,-8.204391,-3.848855,4.395615,-0.012981,-0.016646,-0.047342,32.03,64.124629600765
2342,-8.057232,-3.865007,4.323831,-0.00672,-0.011301,-0.048411,32.08,64.1799429440754
2352,-8.183454,-3.838686,4.429713,0.001222,-0.002291,-0.045357,32.08,63.8921897461644
2362,-8.042276,-3.87398,4.359125,0.005192,0.010843,-0.046884,32.07,63.9726095194773
2372,-8.140981,-3.832704,4.465605,0.012065,0.026878,-0.04383,32.07,63.6054857168416
2382,-8.046464,-3.871587,4.393223,0.012828,0.044746,-0.045204,32.06,63.8031130592283
2392,-8.105686,-3.824927,4.481757,0.016799,0.064599,-0.043066,32.06,63.4331842106467
2402,-8.035098,-3.838088,4.41057,0.017868,0.087201,-0.042455,32.04,63.6504185910955
2412,-8.091928,-3.820141,4.466802,0.018479,0.108734,-0.040317,32.04,63.4727009831787
2422,-8.044072,-3.841677,4.417749,0.018631,0.129809,-0.038332,32.01,63.6380229549125
2432,-8.079366,-3.815954,4.439882,0.0197,0.150731,-0.035125,32.01,63.5772956736624
2442,-8.065607,-3.817749,4.405187,0.020006,0.170584,-0.030085,32.04,63.7262804961183
2452,-8.080563,-3.801597,4.398606,0.020311,0.187536,-0.025656,32.04,63.7771436809218
2462,-8.097312,-3.794419,4.343571,0.022297,0.203265,-0.01909,32,64.0925284998926
2472,-8.127223,-3.77049,4.326224,0.02642,0.223119,-0.006567,32.03,64.2251555083786
2482,-8.12782,-3.783651,4.287939,0.028711,0.229227,0.000458,32.03,64.4391836482621
2492,-8.1679,-3.768098,4.280162,0.032376,0.231212,0.010232,32.05,64.5535535124627
2502,-8.17807,-3.778865,4.22393,0.037263,0.228158,0.018784,32.05,64.8799590197258
2512,-8.227122,-3.745964,4.21735,0.042761,0.222355,0.028253,32.06,64.9894468914254
2522,-8.245667,-3.745365,4.176672,0.047342,0.212428,0.036805,32.06,65.2416305475779
2532,-8.283354,-3.736392,4.155136,0.052687,0.198531,0.044899,32.07,65.4273347933086
2542,-8.299506,-3.736991,4.133003,0.05849,0.182038,0.051465,32.07,65.578388966271
2552,-8.343773,-3.724428,4.129414,0.064752,0.161727,0.058338,32.07,65.6803494685758
2562,-8.375478,-3.720839,4.114459,0.069486,0.138208,0.064141,32.07,65.8226732936403
2572,-8.405388,-3.701697,4.106682,0.073762,0.113163,0.068264,32.05,65.9088185871422
2582,-8.420342,-3.689733,4.095316,0.077885,0.085674,0.070402,32.05,65.9885235487477
2592,-8.435298,-3.701099,4.108477,0.082009,0.057421,0.071013,32.04,65.9624428684688
2602,-8.465807,-3.7005,4.098307,0.083994,0.027489,0.069333,32.04,66.0790694067557
2612,-8.481958,-3.699902,4.106682,0.08491,-0.002443,0.065973,32.06,66.0691596018895
2622,-8.496913,-3.701099,4.13061,0.085521,-0.031765,0.061545,32.06,65.9781569448308
2632,-8.491529,-3.68734,4.160521,0.084758,-0.061087,0.055436,32.01,65.7999713563637
2642,-8.480165,-3.690929,4.171886,0.083383,-0.116217,0.03879,32.01,65.7206187976146
2652,-8.468798,-3.681956,4.194618,0.076664,-0.140652,0.029169,32.01,65.5710372168063
2662,-8.441879,-3.69392,4.221537,0.07254,-0.160047,0.018479,32.06,65.385988102279
2672,-8.430512,-3.690929,4.245465,0.068417,-0.178525,0.007941,32.06,65.2356670540801
2682,-8.403594,-3.699902,4.261617,0.062461,-0.193339,-0.002596,32.06,65.1027683139025
2692,-8.376674,-3.7005,4.286144,0.056963,-0.203724,-0.012523,32.06,64.9185144238762
2702,-8.327621,-3.682554,4.314259,0.051771,-0.210443,-0.022755,32.06,64.648076340712
2712,-8.291729,-3.702295,4.326822,0.046426,-0.213956,-0.03207,32.06,64.5229638888178
2722,-8.259426,-3.702295,4.362714,0.041081,-0.212428,-0.041233,32.05,64.2658714159432
2732,-8.225328,-3.714259,4.382454,0.036652,-0.207541,-0.049786,32.05,64.0993863768306
2742,-8.19781,-3.716652,4.388436,0.032681,-0.199447,-0.057116,32.07,64.0084026204689
2752,-8.148159,-3.714259,4.417749,0.029169,-0.187077,-0.063072,32.07,63.741062833117
2762,-8.130214,-3.714857,4.430311,0.025962,-0.171959,-0.069333,32.07,63.6355121550797
2772,-8.099705,-3.708875,4.44048,0.022755,-0.154396,-0.074678,32.07,63.5057856910358
2782,-8.081758,-3.731009,4.462614,0.020617,-0.13439,-0.080329,32.05,63.3736781968924
2792,-8.056036,-3.735795,4.471587,0.018479,-0.112705,-0.084452,32.05,63.2723517432467
2802,-8.044072,-3.735196,4.492525,0.016188,-0.089186,-0.087354,32.01,63.1357949844804
2812,-8.030313,-3.738187,4.499703,0.014661,-0.064294,-0.093615,32.01,63.0696397610696
2822,-8.015357,-3.744169,4.492525,0.011454,-0.011148,-0.096059,32.06,63.0777564853804
2832,-8.012965,-3.737589,4.500899,0.009927,0.015272,-0.097891,32.03,63.0216933777184
2842,-8.026126,-3.731009,4.49073,0.008858,0.041844,-0.098044,32.03,63.0979808532018
2852,-8.023134,-3.731607,4.493123,0.008247,0.067806,-0.098044,32.02,63.0792312805595
2862,-8.017153,-3.733402,4.477569,0.007789,0.093004,-0.096364,32.02,63.1471830341731
2872,-8.026126,-3.736392,4.456632,0.008247,0.11637,-0.094684,32.04,63.2796974658793
2882,-8.03809,-3.734598,4.447061,0.007636,0.137292,-0.091935,32.04,63.355309988096
2892,-8.046464,-3.724428,4.438686,0.009468,0.157298,-0.087506,32.03,63.4071634537411
2902,-8.066205,-3.741179,4.416552,0.010537,0.174707,-0.08262,32.03,63.5858545173588
2912,-8.085946,-3.720241,4.396214,0.012675,0.189521,-0.077274,32.06,63.7144515294224
2922,-8.107481,-3.716054,4.372883,0.01573,0.202196,-0.070402,32.06,63.8806435091091
2932,-8.119445,-3.729214,4.35075,0.019242,0.211054,-0.062308,32.05,64.0367475953717
2942,-8.139785,-3.71725,4.328018,0.022602,0.218384,-0.054367,32.05,64.1886482786585
2952,-8.156534,-3.705286,4.308876,0.026267,0.222508,-0.045509,32.04,64.3137732692927
2962,-8.186445,-3.708875,4.284349,0.030391,0.223577,-0.035888,32.04,64.5126125417869
2972,-8.2014,-3.72383,4.255037,0.035125,0.22098,-0.026114,32.01,64.7137939007841
2982,-8.252247,-3.712464,4.213761,0.039248,0.215025,-0.017104,32.01,65.030143317385
2992,-8.276773,-3.707679,4.209573,0.047342,0.195935,0.002138,32,65.1012838353364
3002,-8.303694,-3.705286,4.195216,0.049938,0.181732,0.008858,32.05,65.2326422057776
3012,-8.324032,-3.708875,4.191029,0.053756,0.166461,0.015119,32.05,65.3023076373227
3022,-8.341978,-3.696911,4.185645,0.056352,0.147982,0.019853,32.04,65.3577494374186
3032,-8.368897,-3.703491,4.183851,0.057574,0.12874,0.023824,32.04,65.4317930584312
3042,-8.38445,-3.701099,4.18086,0.058643,0.108734,0.025198,32.07,65.4786190481857
3052,-8.379665,-3.701099,4.177869,0.058948,0.08827,0.025351,32.07,65.4837663740464
3062,-8.410173,-3.709473,4.174279,0.059101,0.066737,0.02306,32.06,65.5759975406466
3072,-8.408977,-3.719643,4.184449,0.058338,0.045968,0.020159,32.06,65.5305502468404
3082,-8.414959,-3.720241,4.182654,0.057421,0.025504,0.014203,32.04,65.5532268222286
3092,-8.415558,-3.720839,4.196413,0.056505,0.005956,0.007636,32.04,65.4841157610932
3102,-8.416754,-3.717848,4.19402,0.054367,-0.013439,-0.000153,32.03,65.4961817486176
3112,-8.407183,-3.734,4.213761,0.051465,-0.031307,-0.010232,32.03,65.3892745179831
3122,-8.397013,-3.742973,4.217948,0.049786,-0.046884,-0.019395,32.07,65.3543975979063
3132,-8.388638,-3.753142,4.22393,0.047342,-0.061392,-0.030085,32.07,65.3153279568912
3142,-8.372486,-3.754339,4.244868,0.044899,-0.074831,-0.04047,32.05,65.1737804466705
3152,-8.339585,-3.765106,4.267001,0.043677,-0.085216,-0.050244,32.05,64.9988178618504
3162,-8.309077,-3.775276,4.269992,0.041233,-0.100945,-0.068875,32.05,64.9266994614277
3172,-8.30489,-3.786642,4.282554,0.039401,-0.106291,-0.077122,32.02,64.8642001098818
3182,-8.296515,-3.78724,4.3005,0.039248,-0.109803,-0.084299,32.02,64.7540897158349
3192,-8.273185,-3.792026,4.311867,0.039401,-0.110872,-0.091172,32.02,64.6489447133838
3203,-8.246264,-3.8004,4.316054,0.039706,-0.111788,-0.096669,32.02,64.5762250193728
3212,-8.249256,-3.795615,4.323233,0.040775,-0.110414,-0.100793,32.04,64.5410388788422
3222,-8.219944,-3.816552,4.339384,0.041844,-0.109039,-0.106138,32.04,64.4141991297928
3232,-8.212168,-3.817749,4.357928,0.043066,-0.105527,-0.109345,32.04,64.3027265740137
3242,-8.200802,-3.81715,4.35733,0.044899,-0.100487,-0.111177,32.04,64.2796759703668
3252,-8.182258,-3.822534,4.364508,0.046426,-0.095295,-0.113468,32.05,64.2067141729981
3262,-8.17149,-3.815954,4.362116,0.0478,-0.088881,-0.113621,32.05,64.1878227161702
3272,-8.158329,-3.815356,4.383651,0.04948,-0.081245,-0.11301,32.07,64.0466031918624
3282,-8.147561,-3.818945,4.39083,0.051618,-0.072388,-0.112246,32.07,63.989052325795
3292,-8.138588,-3.811168,4.394419,0.052382,-0.062308,-0.109803,32.04,63.9418820074719
3302,-8.113463,-3.811767,4.399803,0.053298,-0.051771,-0.10568,32.04,63.8574377295392
3312,-8.102098,-3.814159,4.41057,0.054367,-0.040012,-0.10064,32.02,63.7785248489255
3322,-8.097312,-3.80399,4.416552,0.053603,-0.027031,-0.094837,32.02,63.7257370520163
3332,-8.076973,-3.799204,4.417151,0.054367,-0.001069,-0.078191,32.09,63.6705846733215
3342,-8.057232,-3.793222,4.406981,0.056352,0.01237,-0.067959,32.02,63.6709470718458
3352,-8.047063,-3.78724,4.409374,0.057421,0.025351,-0.0562,32.02,63.6284926585849
3362,-8.041678,-3.782454,4.406384,0.057727,0.038179,-0.044288,32.05,63.62623656825
3372,-8.04826,-3.766901,4.403392,0.058338,0.050702,-0.031001,32.05,63.6400609257181
3382,-8.024331,-3.772883,4.394419,0.060018,0.063072,-0.016035,32.01,63.6374506479365
3392,-8.026724,-3.759125,4.389633,0.061697,0.075442,-0.001833,32.01,63.6528305128423
3402,-8.029715,-3.765705,4.375276,0.062461,0.087354,0.012828,32.03,63.741513241975
3412,-8.023134,-3.759125,4.375276,0.063377,0.098502,0.028253,32.03,63.7190629294993
3422,-8.026126,-3.748357,4.360919,0.064904,0.110108,0.043219,32.08,63.7890049260471
3432,-8.04826,-3.741179,4.355535,0.06689,0.120188,0.056505,32.08,63.8605946077225
3442,-8.05125,-3.731607,4.357928,0.068264,0.129351,0.06857,32.06,63.8447795264631
3452,-8.073383,-3.716054,4.341777,0.07025,0.138361,0.080634,32.06,63.9634076436954
3462,-8.105088,-3.719045,4.332804,0.072082,0.14615,0.089492,32.05,64.0862456401909
3472,-8.106285,-3.716652,4.323233,0.073762,0.152105,0.096822,32.05,64.136243948707
3482,-8.126624,-3.706482,4.322634,0.075747,0.15684,0.101862,32.09,64.1752933123082
3492,-8.166704,-3.701697,4.306482,0.077733,0.160505,0.104611,32.09,64.3456195675247
3502,-8.23789,-3.683152,4.296313,0.079565,0.160963,0.102014,32.03,64.5403854300812
3512,-8.268997,-3.678965,4.295715,0.082161,0.159589,0.097128,32.1,64.6091258864152
3522,-8.30788,-3.668795,4.283751,0.083078,0.155618,0.088575,32.1,64.7476860089696
3532,-8.335398,-3.67418,4.289733,0.083689,0.149509,0.078038,32.07,64.7832933278829
3542,-8.352147,-3.648456,4.293322,0.083689,0.142026,0.06521,32.07,64.7769442247459
3552,-8.395817,-3.656831,4.280162,0.08323,0.132863,0.050855,32.07,64.9491959241766
3562,-8.413763,-3.654438,4.283153,0.082314,0.120951,0.033903,32.07,64.9710097074931
3572,-8.449656,-3.649055,4.275974,0.080634,0.10965,0.015119,32.08,65.0812940740228
3582,-8.452645,-3.646064,4.27717,0.078038,0.0956,-0.00504,32.08,65.0788794405374
3592,-8.472386,-3.641876,4.271787,0.075595,0.08094,-0.025351,32.04,65.1455369937622
3602,-8.465208,-3.645465,4.26401,0.072388,0.066432,-0.044593,32.04,65.1730779813347
3612,-8.485548,-3.648456,4.276572,0.06918,0.05116,-0.064599,32.08,65.1558545888925
3622,-8.480165,-3.647858,4.271787,0.064752,0.035583,-0.084605,32.08,65.1680506962104
3632,-8.474181,-3.648456,4.277769,0.060323,0.020311,-0.102778,32.04,65.1250183224895
3642,-8.467602,-3.648456,4.275974,0.05681,0.005345,-0.118813,32.04,65.1198702677965
3652,-8.450851,-3.641876,4.281956,0.051771,-0.011148,-0.134696,32.05,65.0465148642546
3662,-8.432307,-3.659822,4.267001,0.047495,-0.025504,-0.148135,32.05,65.0995666997684
3672,-8.371889,-3.66401,4.278367,0.043524,-0.03879,-0.168141,32.06,64.912612527854
3682,-8.362316,-3.675974,4.28076,0.034972,-0.063835,-0.173944,32.06,64.8907644375418
3692,-8.319845,-3.685545,4.283153,0.030696,-0.073457,-0.176845,32.08,64.7938276473126
3702,-8.292327,-3.686741,4.288536,0.028558,-0.081551,-0.177609,32.02,64.7060585720052
3712,-8.251051,-3.707679,4.290929,0.026267,-0.087659,-0.175471,32.02,64.6224288458099
3722,-8.220542,-3.709473,4.292126,0.025045,-0.091324,-0.171042,32.02,64.5496423540318
3732,-8.187043,-3.72383,4.299902,0.023976,-0.09499,-0.165392,32.02,64.4485586067943
3742,-8.158927,-3.735196,4.301697,0.024129,-0.094837,-0.155923,32.04,64.3874293492923
3752,-8.133802,-3.751348,4.305286,0.025198,-0.093462,-0.145844,32.04,64.3286809467918
3762,-8.105088,-3.754339,4.31725,0.027031,-0.091477,-0.13439,32.06,64.2043360024717
3772,-8.084151,-3.76391,4.305884,0.029474,-0.08659,-0.121868,32.06,64.225884264499
3782,-8.070393,-3.771687,4.324429,0.032834,-0.081245,-0.10797,32.04,64.106159297485
3792,-8.071589,-3.783651,4.328616,0.036346,-0.075136,-0.094379,32.04,64.09992230439
3802,-8.049455,-3.789633,4.33041,0.040012,-0.066584,-0.081703,32.04,64.0463401460549
3812,-8.049455,-3.793222,4.339384,0.04383,-0.057421,-0.068417,32.04,64.0035155268934
3822,-8.03809,-3.795615,4.35075,0.047647,-0.048258,-0.056352,32.08,63.9208795120911
3832,-8.039286,-3.815356,4.359125,0.052076,-0.038332,-0.045204,32.08,63.9016025663642
3842,-8.051848,-3.824329,4.377071,0.056047,-0.025962,-0.034972,32.05,63.8471885417919
3852,-8.069196,-3.82074,4.385446,0.058338,-0.002443,-0.018326,32.05,63.8397780765237
3862,-8.089535,-3.830311,4.403392,0.064141,0.009468,-0.01237,32.05,63.8041809124569
3872,-8.096714,-3.818945,4.399803,0.066737,0.021838,-0.008705,32.04,63.8268228164391
3882,-8.099107,-3.821338,4.414758,0.067653,0.033139,-0.005956,32.04,63.7578650559523
3892,-8.118848,-3.832105,4.418347,0.067959,0.044593,-0.005803,32.02,63.7962677935668
3902,-8.133802,-3.821936,4.429115,0.068264,0.056352,-0.005498,32.02,63.764239747562
3912,-8.146963,-3.82074,4.438686,0.068417,0.067195,-0.00733,32.05,63.7440073491611
3922,-8.164311,-3.822534,4.430311,0.067042,0.07758,-0.011301,32.05,63.828410934226
3932,-8.161918,-3.814758,4.435695,0.066279,0.088117,-0.014661,32.05,63.7870955707129
3942,-8.179267,-3.809972,4.436892,0.065057,0.098349,-0.018021,32.05,63.8154539073881
3952,-8.185846,-3.8004,4.426722,0.063072,0.107818,-0.022449,32,63.8723246606098
3962,-8.188837,-3.796213,4.423133,0.060628,0.116064,-0.027642,32,63.893079933426
3972,-8.200802,-3.795017,4.415356,0.059254,0.125075,-0.032681,32.05,63.9588217803322
3982,-8.204989,-3.791427,4.397409,0.057574,0.132558,-0.038026,32.05,64.056476838684
3992,-8.218149,-3.792026,4.391428,0.056658,0.137292,-0.042913,32.02,64.1175041180445
4002,-8.204391,-3.782454,4.38724,0.055436,0.14279,-0.045204,32.02,64.0979035706808
4012,-8.206185,-3.777071,4.359723,0.055589,0.147829,-0.048258,32.01,64.2377381726106
4022,-8.212168,-3.758526,4.342375,0.056658,0.150426,-0.051924,32.01,64.3213558659317
4032,-8.212168,-3.752544,4.315455,0.058643,0.152258,-0.051618,32.05,64.4540906999329
4042,-8.206185,-3.742374,4.306482,0.061087,0.151647,-0.050091,32.08,64.476605546223
4052,-8.209774,-3.735196,4.289135,0.064141,0.149967,-0.047342,32.08,64.5671282681009
4062,-8.218747,-3.731607,4.277769,0.067806,0.147066,-0.04383,32,64.642471676828
4072,-8.220542,-3.72383,4.263412,0.071777,0.142332,-0.039706,32,64.7130692757475
4082,-8.221739,-3.729214,4.256233,0.075595,0.137903,-0.035583,32.04,64.7584552848292
4092,-8.226524,-3.714857,4.239483,0.080634,0.131336,-0.030085,32.04,64.8416796851155
4102,-8.23789,-3.709473,4.226922,0.084605,0.121715,-0.02306,32.07,64.9268860827831
4112,-8.233703,-3.703491,4.210171,0.089186,0.112705,-0.016188,32.07,64.9988624283061
4122,-8.267202,-3.705884,4.198207,0.09331,0.100945,-0.010537,32.03,65.1375672901708
4152,-8.298907,-3.696911,4.189234,0.104611,0.062308,0.007941,32.05,65.2450778676672
4162,-8.297711,-3.69392,4.192225,0.107512,0.047953,0.013134,32.05,65.2239825464622
4172,-8.321041,-3.691527,4.19402,0.10797,0.032834,0.016799,32.05,65.2634116841982
4182,-8.330612,-3.694518,4.211368,0.108887,0.018021,0.020769,32.05,65.1972777041106
4192,-8.353344,-3.692126,4.22393,0.108581,0.002138,0.022755,32.05,65.1796836908083
4202,-8.379066,-3.686741,4.232903,0.10568,-0.029169,0.021533,32.04,65.184360097821
4212,-8.373683,-3.696911,4.241877,0.102625,-0.043524,0.020159,32.02,65.1361358611092
4222,-8.367103,-3.702295,4.265206,0.098807,-0.058032,0.016952,32.02,65.0068320390062
4232,-8.370093,-3.698706,4.28076,0.094837,-0.069639,0.011759,32.03,64.929954779886
4242,-8.376674,-3.699902,4.299902,0.090866,-0.08094,0.00504,32.03,64.8473631322338
4252,-8.367103,-3.71067,4.325625,0.085827,-0.089797,-0.003207,32.02,64.7050155654163
4262,-8.362316,-3.70409,4.341777,0.081092,-0.096975,-0.012065,32.02,64.605341315709
4272,-8.352745,-3.726821,4.353741,0.075136,-0.101862,-0.022449,32.09,64.5453939941212
4282,-8.339585,-3.721437,4.365107,0.06918,-0.104763,-0.032987,32.09,64.4527252854618
4292,-8.323434,-3.72383,4.38724,0.064904,-0.104763,-0.044288,32.07,64.3060327706783
4302,-8.301898,-3.725625,4.392026,0.060018,-0.103389,-0.056658,32.07,64.2350626910425
4312,-8.282756,-3.726821,4.412365,0.055283,-0.098349,-0.068875,32.07,64.0892729716525
4322,-8.255239,-3.729812,4.412963,0.050396,-0.092393,-0.080787,32.07,64.0269411771889
4332,-8.2349,-3.734,4.427918,0.046578,-0.083841,-0.092241,32.02,63.9085518670428
4342,-8.20798,-3.738786,4.43749,0.043371,-0.073457,-0.102931,32.02,63.8030774864706
4352,-8.176275,-3.749553,4.436294,0.041539,-0.061239,-0.112552,32.05,63.7477734636785
4362,-8.138588,-3.750151,4.4339,0.039706,-0.048106,-0.121257,32.05,63.6739120403711
4372,-8.094321,-3.758526,4.433302,0.038026,-0.018326,-0.133779,32.04,63.5835116993099
4382,-8.075178,-3.75075,4.426722,0.037874,-0.001833,-0.136834,32.05,63.5645630770137
4392,-8.067401,-3.751348,4.429713,0.038332,0.015424,-0.13775,32.05,63.5316697272557
4402,-8.043473,-3.745964,4.430909,0.040012,0.032529,-0.137139,32.07,63.4637766080588
4412,-8.033902,-3.750151,4.424329,0.041844,0.050244,-0.13439,32.07,63.479977998673
4422,-8.016554,-3.753741,4.412963,0.043677,0.067806,-0.13042,32.05,63.5021752357674
4432,-8.006385,-3.742973,4.406981,0.045662,0.083536,-0.124311,32.05,63.4975811733088
4442,-8.005188,-3.751946,4.405187,0.047647,0.099724,-0.11805,32.05,63.513934396028
4502,-8.072187,-3.721437,4.338786,0.059559,0.171653,-0.049786,32.07,63.9819396770425
4562,-8.279764,-3.70409,4.26401,0.071166,0.164781,0.030391,32.04,64.8220563861823
4572,-8.304291,-3.706482,4.238885,0.072998,0.15516,0.036194,32.03,65.008676144892
4582,-8.328219,-3.705286,4.232903,0.075136,0.142332,0.04047,32.03,65.0910555944584
4592,-8.350353,-3.701099,4.234698,0.077122,0.128282,0.042761,32.04,65.1262052781615
4602,-8.395817,-3.709473,4.222734,0.078954,0.112246,0.042302,32.04,65.2950095979205
4612,-8.407781,-3.705286,4.218546,0.080329,0.09499,0.04047,31.99,65.3384931991834
4622,-8.419745,-3.708277,4.214359,0.082314,0.077122,0.035125,31.99,65.3887519019209
4632,-8.423334,-3.714857,4.214957,0.083994,0.057269,0.027947,32.06,65.3996687904541
4642,-8.455039,-3.71067,4.226323,0.086437,0.038332,0.01909,32.06,65.4055630014318
4652,-8.450851,-3.712464,4.22094,0.087201,0.018631,0.00901,32.07,65.4258789683106
4662,-8.447861,-3.713063,4.222734,0.088423,-0.000153,-0.003818,32.07,65.4108060571817
4672,-8.439486,-3.725027,4.24068,0.089186,-0.018326,-0.016646,32.05,65.3120433632349
4682,-8.440681,-3.721437,4.25085,0.090255,-0.036194,-0.031307,32.05,65.2590799469709
4692,-8.425727,-3.729214,4.260421,0.089186,-0.052687,-0.045051,32.05,65.1851301701458
4702,-8.398808,-3.723232,4.271787,0.088575,-0.066279,-0.059254,32.05,65.0626237245757
4712,-8.353344,-3.741776,4.30409,0.088117,-0.07926,-0.074067,32.06,64.8155408158177
4722,-8.3348,-3.739982,4.314259,0.084299,-0.096364,-0.10064,32.04,64.7207452906598
4732,-8.297711,-3.75733,4.329215,0.082009,-0.10064,-0.111788,32.04,64.5791793362249
4742,-8.285149,-3.746562,4.338786,0.079107,-0.101862,-0.12202,32.04,64.4912436023946
4752,-8.245667,-3.751348,4.362714,0.075442,-0.102167,-0.131183,32.04,64.2847975119665
4762,-8.218747,-3.756134,4.374678,0.071929,-0.097738,-0.137292,32.07,64.1675459181103
4772,-8.191828,-3.764508,4.376472,0.068264,-0.092852,-0.142637,32.07,64.106040541565
4782,-8.164311,-3.762115,4.404588,0.065363,-0.08323,-0.14508,32.07,63.8962904047845
4792,-8.132606,-3.778267,4.40399,0.061392,-0.072388,-0.145233,32.07,63.8438762076261
4802,-8.130214,-3.771089,4.408776,0.058185,-0.060018,-0.144928,32,63.8061036050355
4812,-8.102695,-3.771089,4.406981,0.055436,-0.046884,-0.142332,32,63.7520233805553
4822,-8.089535,-3.776472,4.413561,0.053756,-0.03207,-0.138056,32.06,63.6935084436079
4832,-8.083553,-3.783651,4.401597,0.05284,-0.017562,-0.1321,32.06,63.749186637512
4842,-8.060224,-3.779463,4.400401,0.052382,-0.003054,-0.123547,32,63.6969303217121
4852,-8.052446,-3.790829,4.40399,0.051924,0.011454,-0.11469,32,63.6727248678797
4862,-8.054241,-3.79382,4.399803,0.053298,0.025962,-0.104153,32.06,63.7017917321323
4872,-8.056634,-3.794419,4.388436,0.055436,0.039706,-0.094073,32.06,63.76679041789
4882,-8.068,-3.788436,4.373481,0.057879,0.052076,-0.08094,32.04,63.8639477640082
4892,-8.09133,-3.784249,4.363312,0.060934,0.073151,-0.056963,32.04,63.9656861160036
4902,-8.088937,-3.785445,4.351348,0.069333,0.081703,-0.044135,32.06,64.0234813796691
4912,-8.09791,-3.789633,4.350152,0.073304,0.089034,-0.033445,32.05,64.0546700738174
4922,-8.105686,-3.777071,4.346562,0.077274,0.09499,-0.022907,32.05,64.0776351388253
4932,-8.122437,-3.773481,4.337589,0.081551,0.099266,-0.012523,31.98,64.1585152005037
4942,-8.142776,-3.776472,4.339384,0.085368,0.103084,-0.002902,31.98,64.1985986526621
4952,-8.154739,-3.765705,4.332206,0.089186,0.105374,0.004887,32.02,64.2515696359772
4962,-8.167302,-3.760919,4.335197,0.092393,0.106901,0.01237,32.02,64.2595560038376
4972,-8.18764,-3.75733,4.320241,0.094379,0.10797,0.018479,32.09,64.3791042881288
4982,-8.185248,-3.748955,4.326224,0.095906,0.108123,0.021838,32.09,64.3341083774402
4992,-8.2014,-3.742374,4.329813,0.098044,0.10736,0.025351,32.07,64.3452369371989
5002,-8.203195,-3.745365,4.334598,0.098044,0.106138,0.027184,32.07,64.327664660275
5012,-8.215158,-3.735196,4.332206,0.099266,0.105832,0.027794,32.07,64.3565432354023
5022,-8.2349,-3.728616,4.331009,0.098807,0.103847,0.026725,32.07,64.400458758262
5032,-8.2349,-3.720839,4.328018,0.09896,0.102931,0.026114,32.05,64.4079646362389
5042,-8.235497,-3.742374,4.336991,0.099266,0.102778,0.02306,32.05,64.385013808309
5052,-8.268398,-4.162315,4.342973,0.120035,0.091172,0.005192,32.05,64.866017360259
5062,-8.200203,-3.721437,4.311268,0.168293,0.06857,-0.033598,32.05,64.4169177984891
5072,-8.242676,-3.680759,4.342973,0.169057,0.067653,-0.034972,32.03,64.3077706436775
5082,-8.208578,-3.690929,4.319045,0.166766,0.068264,-0.03879,32.05,64.3644473915469
5092,-8.242078,-3.659224,4.349553,0.166155,0.069791,-0.039859,32.05,64.2507501486519
5102,-8.198408,-3.676572,4.328018,0.163406,0.070708,-0.043371,32.04,64.280293569782
5112,-8.235497,-3.648456,4.347759,0.162643,0.073304,-0.045509,32.04,64.2341709540702
5122,-8.207382,-3.658028,4.341777,0.160658,0.0759,-0.0478,32.01,64.2106801890565
5132,-8.228917,-3.639483,4.346562,0.159589,0.078802,-0.050244,32.01,64.2163027399291
5142,-8.220542,-3.658626,4.342375,0.157756,0.081092,-0.053451,32.05,64.2381930893339
5152,-8.233105,-3.641876,4.345964,0.156382,0.08323,-0.055589,32.05,64.2313506616847
5162,-8.246264,-3.64726,4.337589,0.154702,0.085521,-0.057421,32.07,64.309918510839
5172,-8.252846,-3.639483,4.332804,0.152258,0.087659,-0.06017,32.07,64.3417550321563
5182,-8.259426,-3.642474,4.326822,0.150884,0.088423,-0.063072,32.04,64.390529883343
5192,-8.263015,-3.634698,4.32742,0.149051,0.087965,-0.067195,32.04,64.3878150859244
5204,-8.290532,-3.638885,4.322036,0.14676,0.086743,-0.076053,32.07,64.4818919610061
5212,-8.290532,-3.638885,4.322036,0.14508,0.084605,-0.076053,32.07,64.4818919610061
5222,-8.324032,-3.631108,4.306482,0.143553,0.081856,-0.080329,32.09,64.6296224905523
5232,-8.340183,-3.652046,4.313661,0.141873,0.077274,-0.085674,32.09,64.649226372628
5242,-8.34138,-3.652644,4.311268,0.138972,0.065363,-0.09728,32.09,64.6647784591705
5252,-8.358727,-3.65384,4.305884,0.136987,0.057727,-0.103389,32.07,64.7322089609346
5262,-8.356335,-3.671188,4.303492,0.13439,0.048869,-0.111177,32.07,64.7560574636466
5272,-8.366504,-3.677171,4.304688,0.1321,0.040317,-0.117897,32.06,64.7782628347017
5282,-8.360522,-3.669394,4.305884,0.129962,0.030696,-0.124769,32.06,64.751311256918
5292,-8.368299,-3.694518,4.318447,0.127976,0.021228,-0.133169,32.05,64.7286034843733
5302,-8.35813,-3.687938,4.31725,0.125075,0.011759,-0.140957,32.05,64.7057892668348
5312,-8.34796,-3.705286,4.322634,0.122784,0.002902,-0.14844,32.05,64.6726649518068
5322,-8.339585,-3.709473,4.326822,0.120493,-0.005803,-0.155923,32.05,64.63674673352
5332,-8.318049,-3.718446,4.342973,0.117592,-0.013134,-0.162643,32.07,64.5149614586382
5342,-8.305488,-3.722634,4.348357,0.114537,-0.018326,-0.168141,32.07,64.463516565717
5352,-8.282157,-3.738187,4.358526,0.111941,-0.022144,-0.173944,32.04,64.3748383885129
5362,-8.244471,-3.744169,4.365107,0.10965,-0.024282,-0.177609,32.04,64.2624687065554
5372,-8.212168,-3.752544,4.384848,0.106749,-0.023518,-0.18158,32.09,64.0966988866527
5382,-8.196614,-3.764508,4.38724,0.104611,-0.0197,-0.182649,32.09,64.0615544690186
5392,-8.166105,-3.768696,4.387838,0.101862,-0.014508,-0.18326,32.08,63.9934577833029
5402,-8.099107,-3.780062,4.409972,0.100029,-0.005803,-0.182496,32.08,63.7379706006747
5412,-8.079964,-3.798008,4.413561,0.097586,0.018173,-0.175471,32.08,63.6947029489257
5422,-8.050054,-3.802195,4.417151,0.096517,0.033139,-0.169973,32,63.611583132234
5432,-8.017153,-3.805186,4.415356,0.097128,0.049938,-0.162337,32,63.5477699966044
5442,-8.002197,-3.799803,4.417151,0.097738,0.067501,-0.153938,32.06,63.4976799195889
5452,-7.986046,-3.81715,4.41416,0.098807,0.086437,-0.14447,32.06,63.4947807228767
5462,-7.977072,-3.808775,4.406981,0.100182,0.10568,-0.134238,32.06,63.5017392391652
5472,-7.966903,-3.818945,4.401597,0.10232,0.124311,-0.123547,32.06,63.5173177421141
5482,-7.975278,-3.81715,4.388436,0.106138,0.142484,-0.109956,31.99,63.6032388984801
5492,-7.975278,-3.817749,4.383651,0.10965,0.159741,-0.098197,31.99,63.6287900049536
5502,-7.980063,-3.811168,4.361517,0.114232,0.174707,-0.086132,32.04,63.7478337040038
5512,-7.998608,-3.818945,4.35733,0.118966,0.189063,-0.074984,32.04,63.8211581007029
5522,-8.036295,-3.804588,4.333402,0.1237,0.202044,-0.063072,32.03,64.0167733952457
5532,-8.052446,-3.812963,4.326822,0.128282,0.211665,-0.052382,32.03,64.0970674329422
5542,-8.090732,-3.792026,4.311268,0.133474,0.218842,-0.041997,32.03,64.2427395439501
5552,-8.120642,-3.804588,4.290331,0.138819,0.222813,-0.032223,32.03,64.4326045550633
5562,-8.146365,-3.796811,4.283751,0.143706,0.224798,-0.025198,32.04,64.5164629879249
5572,-8.185248,-3.783651,4.265805,0.148593,0.223424,-0.018479,32.04,64.6829748627792
5582,-8.261221,-3.783053,4.254438,0.152869,0.210596,-0.009774,32.08,64.9095935336558
5592,-8.283952,-3.758526,4.252046,0.159589,0.200364,-0.007789,32.06,64.9473859377399
5602,-8.324032,-3.74716,4.229912,0.163406,0.187841,-0.006261,32.06,65.138365389002
5612,-8.353344,-3.75733,4.226323,0.165392,0.172569,-0.006261,32.04,65.2306588046295
5622,-8.376674,-3.741179,4.219743,0.167224,0.155923,-0.007941,32.04,65.2994640699736
5632,-8.321041,-3.507878,4.81735,0.134543,0.139735,-0.007636,32.02,61.9214327700179
5642,-8.371889,-3.753142,4.154539,0.069639,0.122326,-0.005803,32.02,65.6376988509377
5652,-8.436494,-3.711866,4.183851,0.073762,0.098349,-0.005651,32.02,65.5852992203579
5662,-8.393424,-3.750151,4.158128,0.078496,0.073151,-0.007178,32.02,65.6623148184261
5672,-8.452048,-3.718446,4.171886,0.083536,0.047189,-0.008858,32.03,65.6863758960759
5682,-8.406584,-3.741179,4.157529,0.08659,0.02306,-0.014203,32.03,65.6849741688112
5692,-8.444869,-3.720839,4.185047,0.08995,-0.000153,-0.018021,32.02,65.6055065056848
5702,-8.410173,-3.739383,4.184449,0.091935,-0.021838,-0.023518,32.02,65.5519011449218
5712,-8.42812,-3.708277,4.206582,0.093768,-0.041692,-0.027947,32.04,65.4468372048868
5722,-8.388638,-3.735196,4.210171,0.09331,-0.059865,-0.034208,32.04,65.3689098297038
5732,-8.387442,-3.729812,4.234099,0.093768,-0.076205,-0.039554,32.06,65.2378766344816
5742,-8.380861,-3.728018,4.26401,0.093157,-0.090255,-0.045662,32.06,65.068034080356
5752,-8.31147,-3.731607,4.284947,0.091477,-0.101709,-0.055894,32.05,64.8115224851726
5762,-8.288737,-3.732804,4.296313,0.088117,-0.116523,-0.060323,32.05,64.7038194622069
5772,-8.257033,-3.726821,4.306482,0.086896,-0.12034,-0.063225,32.05,64.5747573365495
5782,-8.22772,-3.726821,4.32742,0.085674,-0.121104,-0.066126,32.04,64.4009776286139
5792,-8.22473,-3.734598,4.332206,0.083841,-0.120188,-0.066432,32.04,64.37750063008
5802,-8.173284,-3.746562,4.347759,0.082314,-0.116675,-0.06689,32.03,64.1932489176144
5812,-8.159525,-3.741776,4.368696,0.081856,-0.10965,-0.065668,32.03,64.0488381667392
5822,-8.138588,-3.750151,4.371089,0.081245,-0.101251,-0.063988,32.05,63.9974303217106
5832,-8.12782,-3.741776,4.393223,0.081856,-0.091172,-0.061392,32.05,63.8496088092069
5842,-8.120642,-3.75733,4.395615,0.081398,-0.080634,-0.058643,32.03,63.8372697970848
5852,-8.105088,-3.742973,4.397409,0.081398,-0.067195,-0.054672,32.03,63.7768669986236
5862,-8.094919,-3.750151,4.401597,0.081398,-0.052076,-0.051007,32.06,63.7394093157198
5872,-8.100304,-3.754937,4.417749,0.08094,-0.036957,-0.047953,32.06,63.6736506647655
5882,-8.09791,-3.753142,4.42074,0.08094,-0.021533,-0.045051,32.04,63.6507626558757
5892,-8.090732,-3.75075,4.438686,0.079871,-0.006872,-0.041997,32.04,63.5390721859809
5902,-8.105088,-3.750151,4.4339,0.079718,0.009163,-0.039554,32.06,63.5964039011402
5912,-8.103892,-3.753142,4.4339,0.078802,0.024893,-0.037721,32.06,63.5968411643713
5922,-8.129017,-3.757928,4.435097,0.07758,0.039706,-0.036805,32.07,63.6539522491392
5932,-8.142178,-3.74058,4.433302,0.073457,0.066584,-0.036041,32.07,63.6751052800548
5942,-8.149356,-3.746562,4.426722,0.071319,0.078954,-0.036652,32.07,63.7318023808972
5952,-8.161918,-3.741776,4.418945,0.068875,0.089797,-0.039401,32.04,63.7955993910644
5962,-8.165507,-3.731607,4.415356,0.066432,0.098807,-0.041997,32.04,63.8115904694336
5972,-8.196015,-3.737589,4.408776,0.064446,0.107207,-0.04444,32.08,63.9215594303859
5982,-8.199007,-3.725027,4.396214,0.062461,0.114079,-0.047342,32.08,63.9798338334289
5992,-8.21157,-3.732205,4.386044,0.060934,0.119424,-0.050702,32.05,64.0681464584618
6002,-8.206783,-3.725027,4.376472,0.059712,0.123395,-0.054978,32.05,64.0990513369172
6012,-8.221739,-3.733402,4.369893,0.05849,0.126296,-0.059254,32.01,64.1754673686307
6022,-8.218149,-3.73041,4.356732,0.058032,0.128434,-0.063377,32.01,64.2319749289264
6032,-8.215756,-3.721437,4.349553,0.058643,0.129503,-0.067042,32.06,64.2543292289441
6042,-8.222935,-3.716054,4.338188,0.058338,0.129656,-0.068417,32.06,64.3236527773398
6052,-8.216953,-3.713661,4.331009,0.05849,0.129198,-0.07025,32.04,64.3447373574127
6062,-8.213365,-3.701099,4.32742,0.059407,0.128587,-0.072998,32.04,64.3423413514716
6072,-8.206185,-3.696313,4.314259,0.060018,0.126755,-0.072693,32.03,64.3892852837095
6082,-8.209774,-3.695116,4.313661,0.061545,0.125991,-0.072846,32.03,64.3992796916422
6092,-8.203793,-3.698107,4.297509,0.062919,0.123089,-0.071319,32.07,64.472481474911
6102,-8.194221,-3.696313,4.286742,0.06521,0.119882,-0.065973,32.07,64.5049159287583
6112,-8.188239,-3.692126,4.290929,0.06918,0.117592,-0.061545,32.03,64.4653885897749
6122,-8.183454,-3.687938,4.286144,0.071013,0.115148,-0.05681,32.05,64.4751541209921
6132,-8.194819,-3.695116,4.274179,0.07422,0.112399,-0.050244,32.05,64.5703204136564
6142,-8.203195,-3.686144,4.267001,0.076358,0.109192,-0.044746,32.07,64.6174089849954
6152,-8.192427,-3.689135,4.263412,0.079107,0.105222,-0.038637,32.07,64.6148681751753
6162,-8.207382,-3.691527,4.271188,0.082009,0.102014,-0.03207,32.05,64.6105087899288
6172,-8.222337,-3.691527,4.268795,0.084299,0.097586,-0.025809,32.05,64.6565319446713
6182,-8.234302,-3.695715,4.266403,0.086896,0.09331,-0.020006,32.04,64.6999681023926
6192,-8.228917,-3.693322,4.260421,0.088423,0.087812,-0.014203,32.04,64.7165670743837
6202,-8.255239,-3.698706,4.252046,0.090103,0.081245,-0.010232,32.05,64.8241685944656
6212,-8.269596,-3.689733,4.25743,0.091477,0.074373,-0.007483,32.05,64.8192724893176
6222,-8.28156,-3.703491,4.261019,0.092393,0.067195,-0.005192,32.02,64.8409224974798
6232,-8.306684,-3.696313,4.256832,0.092852,0.05849,-0.003665,32.02,64.9111277499055
6242,-8.309675,-3.710072,4.245465,0.092852,0.050091,-0.004581,32.06,64.990026599868
6252,-8.328817,-3.708875,4.253242,0.092241,0.04047,-0.00672,32.06,64.9908092646861
6262,-8.349755,-3.708277,4.259224,0.091783,0.030238,-0.009774,32.04,65.0053843718331
6272,-8.38445,-3.720839,4.275974,0.090255,0.020006,-0.022144,32.04,65.0074855151568
6282,-8.379066,-3.736392,4.274778,0.086437,-0.002902,-0.030238,32.07,65.0169756913537
6292,-8.402995,-3.732205,4.262814,0.085368,-0.014203,-0.040317,32.06,65.1264202674109
6302,-8.387442,-3.729214,4.28076,0.082314,-0.026725,-0.050855,32.06,64.9976074851715
6312,-8.393424,-3.747759,4.284947,0.081398,-0.038637,-0.062308,32.06,65.0072392298034
6322,-8.38445,-3.751348,4.284947,0.078649,-0.049327,-0.074067,32.06,64.9911695341651
6332,-8.380861,-3.755535,4.292126,0.077122,-0.06017,-0.086132,32.04,64.9506599845933
6342,-8.369495,-3.760919,4.296911,0.075747,-0.069944,-0.097891,32.04,64.9065952091189
6352,-8.365907,-3.760919,4.317849,0.073151,-0.078954,-0.112552,32.02,64.7915855742066
6362,-8.334201,-3.762714,4.31725,0.071929,-0.084605,-0.122631,32.02,64.7266743028553
6372,-8.313862,-3.765106,4.334598,0.069333,-0.089492,-0.133474,32.01,64.5952320931482
6382,-8.288737,-3.784249,4.346562,0.068264,-0.093615,-0.143095,32.01,64.4975017721235
6392,-8.263015,-3.782454,4.342375,0.067042,-0.095295,-0.150273,32.01,64.4598745996777
6402,-8.22772,-3.783651,4.363312,0.064904,-0.094073,-0.157756,32.01,64.2745940103604
6412,-8.212766,-3.781856,4.375276,0.063225,-0.090866,-0.160963,32.03,64.1776216588456
6422,-8.16132,-3.784847,4.388436,0.062308,-0.085521,-0.162796,32.03,63.9965019580238
6432,-8.134999,-3.79741,4.385446,0.062461,-0.078496,-0.162032,32.05,63.9652382786574
6442,-8.087741,-3.8004,4.401597,0.060781,-0.069486,-0.15913,32.05,63.7769253589807
6452,-8.065009,-3.802794,4.417151,0.062461,-0.044899,-0.145539,32.04,63.6468488481556
6462,-8.047063,-3.798606,4.408178,0.062614,-0.031307,-0.136528,32.07,63.6470942684197
6472,-8.002197,-3.796213,4.404588,0.063377,-0.015882,-0.124158,32.07,63.5588228685002
6482,-7.999804,-3.795017,4.406981,0.06521,0,-0.10965,32.07,63.5395108716355
6492,-7.982457,-3.805186,4.414758,0.066584,0.016799,-0.09499,32.07,63.4699660318113
6502,-7.963314,-3.782454,4.435097,0.068875,0.035125,-0.079107,32.08,63.2941598009902
6512,-7.928618,-3.728616,4.61755,0.056505,0.043982,-0.055894,32.08,62.2098020413541
6522,-7.976475,-3.798606,4.383053,0.036346,0.047342,-0.030696,32.04,63.6134055558978
6532,-7.983054,-3.782454,4.392624,0.040928,0.063072,-0.012523,32.04,63.5610627307502
6542,-7.993224,-3.786044,4.392624,0.045662,0.07758,0.003818,32.04,63.588775650856
6552,-8.017751,-3.785445,4.378866,0.051771,0.091783,0.020006,32.04,63.7166539689914
6562,-8.029117,-3.78066,4.370491,0.057574,0.105069,0.034667,32.03,63.7812786044317
6572,-8.045866,-3.772883,4.371089,0.062461,0.117744,0.047647,32.03,63.8084673051634
6582,-8.069795,-3.768696,4.371687,0.06689,0.127976,0.058796,32.07,63.8560877805462
6592,-8.109874,-3.751946,4.360919,0.071319,0.13775,0.068417,32.07,63.9861434339655
6602,-8.132606,-3.758526,4.357928,0.075136,0.146455,0.074984,32.05,64.0606104213644
6612,-8.181061,-3.732804,4.350152,0.07926,0.153327,0.080176,32.05,64.1842644424635
6622,-8.213365,-3.732205,4.351946,0.081703,0.16249,0.082467,32.03,64.2476435349336
6632,-8.249854,-3.716652,4.345964,0.085216,0.165086,0.080176,32.03,64.3449427383718
6642,-8.272586,-3.723232,4.337589,0.086285,0.165544,0.075136,32.03,64.4457573275601
6652,-8.31446,-3.709473,4.332804,0.087354,0.164628,0.068264,32.04,64.5501653641258
6662,-8.310871,-3.701099,4.326822,0.087048,0.162032,0.059407,32.04,64.5645419796466
6672,-8.348558,-3.688536,4.314857,0.087048,0.157145,0.050091,32.06,64.6974206528491
6682,-8.36471,-3.684947,4.305286,0.086437,0.151647,0.038485,32.06,64.7787949569294
6692,-8.382057,-3.675974,4.305286,0.084605,0.144317,0.025351,32.05,64.8084119291023
6702,-8.390432,-3.673581,4.291527,0.083689,0.13607,0.011759,32.05,64.8951161391376
6712,-8.399406,-3.67418,4.281956,0.082467,0.126602,-0.001222,32.04,64.9645197984348
6722,-8.408379,-3.661617,4.278965,0.08094,0.115606,-0.015119,32.04,64.9875255608635
6932,-8.201998,-3.749553,4.320839,0.047495,-0.06689,-0.068111,32.06,64.4003327516454
6942,-8.188837,-3.756134,4.334,0.048106,-0.065668,-0.066279,32.04,64.3094644259292
6952,-8.182258,-3.759723,4.336392,0.048869,-0.063072,-0.064294,32.04,64.2859695022523
6962,-8.17448,-3.77049,4.362116,0.049327,-0.058948,-0.062003,32.05,64.146853262982
6972,-8.17807,-3.771089,4.377071,0.050091,-0.050396,-0.063988,32.04,64.0786040208383
6982,-8.16132,-3.765106,4.383651,0.050702,-0.04383,-0.064904,32.04,64.0003244665468
6992,-8.158927,-3.772883,4.389633,0.05116,-0.036957,-0.066432,32.04,63.9722628821174
7002,-8.152347,-3.773481,4.397409,0.052076,-0.028711,-0.067959,32.04,63.9178552993286
7012,-8.152946,-3.77408,4.400999,0.052076,-0.020006,-0.06918,32.05,63.9013907976135
7022,-8.136793,-3.778267,4.404588,0.052382,-0.01069,-0.071471,32.05,63.8503956805449
7032,-8.149954,-3.781856,4.406384,0.051465,-0.001222,-0.072693,32.08,63.8751008372051
7042,-8.139186,-3.772883,4.414758,0.051924,0.010385,-0.073151,32.08,63.7978421620401
7052,-8.133204,-3.780062,4.411767,0.05284,0.022144,-0.074067,32.03,63.8071423992422
7062,-8.125427,-3.777071,4.409972,0.05284,0.033292,-0.074831,32.03,63.795331473516
7072,-8.115856,-3.76391,4.409972,0.053145,0.045357,-0.073457,32.05,63.7592518775214
7082,-8.120642,-3.769294,4.401597,0.054214,0.057116,-0.071013,32.05,63.8191726438833
7092,-8.105686,-3.784847,4.399803,0.054367,0.067959,-0.069486,32.05,63.8106893330464
7102,-8.107481,-3.766901,4.398606,0.056352,0.078649,-0.065973,32.05,63.8017649933272
7112,-8.115258,-3.766901,4.380062,0.057269,0.088881,-0.062156,32.05,63.9153784868072
7122,-8.113463,-3.750151,4.378268,0.058032,0.098807,-0.057421,32.05,63.9027118222554
7132,-8.117052,-3.754937,4.356134,0.059712,0.106749,-0.052076,32.09,64.0305395448117
7142,-8.130812,-3.749553,4.349553,0.061697,0.120799,-0.040164,32.09,64.0903895216731
7152,-8.14457,-3.743571,4.335197,0.065515,0.125533,-0.033292,32.05,64.1898271065347
7162,-8.158927,-3.745365,4.320839,0.067959,0.128893,-0.027031,32.04,64.2987001551971
7172,-8.177471,-3.73041,4.304688,0.069944,0.129045,-0.020922,32.04,64.4088968352393
7182,-8.185846,-3.739383,4.307081,0.071319,0.129351,-0.014355,32.04,64.4246443537899
7192,-8.214561,-3.738187,4.294518,0.074526,0.126907,-0.008705,32.04,64.5530367681595
7205,-8.218747,-3.729812,4.280162,0.076816,0.123395,-0.002443,32.06,64.6282455233765
7212,-8.249256,-3.728018,4.28076,0.079565,0.11805,0.000916,32.06,64.6914773567395
7222,-8.263015,-3.722036,4.26401,0.081245,0.112094,0.003818,32.02,64.8027555359173
7232,-8.270791,-3.732804,4.267599,0.083841,0.104458,0.007178,32.02,64.8122105189431
7242,-8.300103,-3.722036,4.255635,0.086285,0.0956,0.007636,32.02,64.9281568607682
7252,-8.322835,-3.722634,4.25743,0.087812,0.084452,0.007789,32.02,64.9695471163475
7262,-8.327023,-3.711268,4.272385,0.089186,0.07422,0.007483,32.07,64.8904839510793
7272,-8.337193,-3.714857,4.265805,0.090561,0.062614,0.00504,32.07,64.9503105485377
7282,-8.353942,-3.711866,4.268795,0.090255,0.051007,0.001527,32.03,64.9687989978692
7292,-8.358727,-3.717848,4.269393,0.090866,0.040317,-0.00168,32.03,64.9820587476804
7302,-8.369495,-3.71725,4.290331,0.090408,0.028405,-0.007178,32.07,64.8975576044171
7312,-8.35813,-3.713063,4.289135,0.090255,0.017562,-0.018021,32.07,64.8746181435473
7322,-8.357532,-3.715455,4.298706,0.089492,-0.002596,-0.025504,32.02,64.8265129043574
7332,-8.353344,-3.718446,4.310072,0.088575,-0.009927,-0.032223,32.05,64.7619137269808
7342,-8.332406,-3.729214,4.317849,0.087354,-0.018021,-0.040012,32.05,64.6863650608589
7352,-8.323434,-3.722036,4.334598,0.085521,-0.023671,-0.046578,32.02,64.5734501081998
7362,-8.310272,-3.726223,4.331009,0.08323,-0.027184,-0.053451,32.02,64.5667367360257
7372,-8.293524,-3.722634,4.347161,0.081245,-0.030238,-0.060476,32.04,64.442895381235
7382,-8.274381,-3.725625,4.356732,0.078038,-0.031154,-0.067348,32.04,64.3538859670345
7392,-8.257631,-3.736991,4.362116,0.075747,-0.030391,-0.072998,32.02,64.3001313403471
7402,-8.239684,-3.735795,4.366901,0.074831,-0.027336,-0.078038,32.02,64.2338851935396
7412,-8.216354,-3.726223,4.368696,0.073609,-0.022755,-0.081856,32.05,64.1620292651716
7422,-8.196015,-3.735196,4.371687,0.070555,-0.018631,-0.086437,32.05,64.1097057275256
7432,-8.17149,-3.742973,4.369893,0.069028,-0.01237,-0.08827,32.02,64.0712072646052
7442,-8.158329,-3.741776,4.377071,0.067806,-0.00504,-0.089034,32.02,64.0029008531295
7452,-8.149954,-3.744768,4.371089,0.066432,0.002443,-0.089644,32.04,64.0177602795464
7462,-8.13141,-3.754937,4.376472,0.066126,0.011301,-0.089339,32.04,63.9582500657545
7472,-8.126026,-3.747759,4.359125,0.06521,0.020159,-0.087354,32.02,64.0280093844485
7482,-8.115856,-3.755535,4.360919,0.06521,0.028863,-0.084758,32.02,64.0036622072714
7492,-8.111071,-3.739982,4.372285,0.064141,0.044899,-0.077733,32.07,63.9173617613703
7502,-8.103294,-3.748357,4.356134,0.063377,0.052229,-0.073609,32.07,63.9920268664787
7512,-8.101499,-3.745964,4.347759,0.063683,0.058948,-0.06857,32.07,64.0287998487797
7522,-8.123035,-3.747759,4.356134,0.063377,0.065363,-0.062614,32.01,64.0366440928775
7532,-8.117052,-3.743571,4.349553,0.063377,0.069639,-0.058643,32.01,64.0526114824733
7542,-8.120642,-3.744169,4.336991,0.06353,0.073762,-0.052687,32.07,64.1265869424067
7552,-8.135597,-3.736991,4.342973,0.062919,0.077427,-0.048564,32.07,64.1221912239661
7562,-8.160722,-3.733402,4.326224,0.06185,0.079718,-0.043982,32.07,64.2624337711649
7572,-8.172088,-3.737589,4.322634,0.062766,0.080329,-0.03879,32.07,64.31114952849
7582,-8.182856,-3.731607,4.323831,0.062003,0.080481,-0.034056,32.05,64.323149617789
7592,-8.206783,-3.728616,4.320839,0.062308,0.079565,-0.030391,32.05,64.3896127556169
7602,-8.208578,-3.728018,4.307081,0.062766,0.07758,-0.027489,32.04,64.4641943055702
7612,-8.226524,-3.725027,4.313063,0.063225,0.075289,-0.025045,32.04,64.4705797078283
7622,-8.229516,-3.713661,4.310072,0.063835,0.072846,-0.023213,32.02,64.481210445068
7632,-8.23131,-3.714259,4.316652,0.06353,0.068264,-0.021686,32.02,64.4518580961398
7642,-8.236095,-3.711268,4.310072,0.064294,0.064446,-0.021686,32.04,64.4935747113522
7652,-8.256434,-3.707081,4.306482,0.06521,0.059254,-0.021686,32.04,64.5535292030747
7662,-8.270193,-3.7005,4.305286,0.067195,0.05116,-0.024435,32.05,64.5839048904295
7672,-8.25464,-3.70409,4.31067,0.06857,0.047189,-0.025656,32.06,64.5248802562634
7682,-8.254042,-3.7005,4.314259,0.070097,0.043371,-0.028405,32.06,64.5014019007345
7692,-8.261221,-3.692126,4.318447,0.071319,0.039706,-0.03207,32.02,64.4875035706081
7702,-8.257631,-3.687938,4.31725,0.072846,0.038026,-0.034514,32.02,64.4814016758725
7712,-8.26481,-3.692126,4.322036,0.07422,0.035583,-0.037874,32.05,64.4770638084708
7722,-8.254042,-3.688536,4.31725,0.076358,0.034667,-0.04047,32.05,64.4739292973491
7732,-8.246264,-3.678965,4.328616,0.078343,0.033903,-0.043982,32.08,64.3881106006811
7742,-8.248658,-3.696911,4.325027,0.078954,0.033139,-0.046273,32.08,64.4301234665895
7752,-8.238488,-3.68375,4.322036,0.081245,0.032987,-0.048106,32.02,64.4093420122371
7762,-8.236095,-3.689135,4.326224,0.083078,0.033139,-0.050091,32.02,64.3877558965008
7772,-8.248658,-3.690929,4.328616,0.084452,0.032834,-0.052687,32.03,64.405576948719
7782,-8.242078,-3.684349,4.33041,0.085216,0.033598,-0.053145,32.03,64.3748297576184
7792,-8.236693,-3.701099,4.326822,0.08659,0.034056,-0.054825,32.03,64.3981332289808
7802,-8.226524,-3.699304,4.320241,0.088117,0.034514,-0.055436,32.03,64.4073508409349
7812,-8.229516,-3.698706,4.318447,0.089339,0.034819,-0.054367,32.04,64.4227642503695
7822,-8.238488,-3.706482,4.314857,0.088728,0.034208,-0.054825,32.04,64.4693939787606
7832,-8.247462,-3.711268,4.316054,0.088423,0.030849,-0.05452,32.05,64.4882240876207
7842,-8.243872,-3.713063,4.319045,0.089034,0.029322,-0.054825,32.03,64.4665416241611
7852,-8.248059,-3.715455,4.316054,0.087812,0.027794,-0.05452,32.03,64.4937963277326
7862,-8.249854,-3.731607,4.316054,0.086437,0.023976,-0.055131,32.02,64.5141656802186
7872,-8.261221,-3.731009,4.315455,0.084758,0.020006,-0.05452,32.02,64.5420829073302
7882,-8.273782,-3.726223,4.309474,0.083383,0.016493,-0.054672,32.02,64.5961328035778
7892,-8.270791,-3.726821,4.317849,0.081703,0.012828,-0.055283,32.02,64.5469186534534
7902,-8.287541,-3.738786,4.319643,0.07926,0.007789,-0.058185,32.07,64.5870832163236
7912,-8.288139,-3.74058,4.32742,0.076969,0.003512,-0.059865,32.07,64.5502494306987
7922,-8.274979,-3.761517,4.334,0.073457,-0.000305,-0.06185,32.08,64.5082555188233
7932,-8.289336,-3.759125,4.333402,0.07025,-0.004734,-0.06521,32.08,64.5408821056873
7942,-8.286943,-3.755535,4.337589,0.067195,-0.008552,-0.069791,32.02,64.5104445025804
7952,-8.273782,-3.751348,4.345366,0.064294,-0.011912,-0.072998,32.02,64.4369207395742
7962,-8.285748,-3.763312,4.351348,0.062156,-0.01405,-0.078343,32.05,64.445093342777
7972,-8.27139,-3.772883,4.359723,0.059254,-0.015119,-0.08323,32.05,64.3798419475391
7982,-8.254042,-3.784249,4.368696,0.056047,-0.016799,-0.088728,32.04,64.3066692345436
7992,-8.249256,-3.775276,4.374678,0.054062,-0.016188,-0.092393,32.04,64.2560556207365
8002,-8.205587,-3.789633,4.374678,0.05284,-0.014508,-0.102778,32.04,64.1725848036948
8012,-8.19781,-3.775874,4.377669,0.05116,-0.006872,-0.106291,32.03,64.1252949334434
8022,-8.176275,-3.783053,4.386642,0.050855,-0.001069,-0.109039,32.03,64.0378497155113
8032,-8.152347,-3.792026,4.392026,0.050549,0.006109,-0.109803,32.04,63.9651889454095
8042,-8.133802,-3.791427,4.399803,0.051618,0.014661,-0.110719,32.04,63.8821923157919
8052,-8.118848,-3.783053,4.394419,0.052382,0.023671,-0.10965,32.07,63.8667450882154
8062,-8.102695,-3.786642,4.399205,0.055131,0.034361,-0.108123,32.07,63.8088263235682
8072,-8.086544,-3.790829,4.395017,0.056505,0.045662,-0.104,32.04,63.7978038491276
8082,-8.073383,-3.784847,4.382454,0.059101,0.058796,-0.098655,32.04,63.8259996883593
8092,-8.057232,-3.772883,4.388436,0.061697,0.071624,-0.091783,32.03,63.7448013296484
8102,-8.044072,-3.779463,4.381258,0.066126,0.083994,-0.083536,32.03,63.7586958055196
8112,-8.045268,-3.772883,4.375276,0.069944,0.097433,-0.07422,32.05,63.7853513565217
8122,-8.044072,-3.775874,4.368696,0.072693,0.109803,-0.064599,32.05,63.8199887186972
8132,-8.046464,-3.759125,4.352544,0.076816,0.122326,-0.052534,32.09,63.8913409658473
8142,-8.03809,-3.764508,4.354938,0.080481,0.133474,-0.041081,32.09,63.8653548034835
8152,-8.038688,-3.717848,4.472186,0.081092,0.14279,-0.028558,32.03,63.208790275392
8162,-8.070393,-3.744768,4.355535,0.065973,0.147982,-0.011759,32.03,63.9155988354674
8172,-8.089535,-3.739383,4.295715,0.064599,0.151953,0.002902,32.04,64.2652241451816
8182,-8.13141,-3.738786,4.285545,0.073151,0.156534,0.02642,32.04,64.4128380131885
8192,-8.147561,-3.734,4.283153,0.076664,0.156382,0.037721,32.03,64.4568736544069
8202,-8.179267,-3.72383,4.267001,0.080023,0.153785,0.046273,32.09,64.6019286249167
8212,-8.206783,-3.715455,4.246662,0.083536,0.14844,0.053451,32.09,64.7609074358539
8222,-8.240283,-3.715455,4.252644,0.085674,0.141873,0.057879,32.05,64.8045342478785
8232,-8.270193,-3.695715,4.25085,0.087506,0.133016,0.062156,32.05,64.8606394676113
8242,-8.300103,-3.7005,4.245465,0.088423,0.12202,0.063377,32.04,64.9594976299374
8252,-8.327621,-3.692126,4.237091,0.089034,0.110261,0.062614,32.04,65.0552498786994
8262,-8.350951,-3.68375,4.240082,0.089644,0.096822,0.060018,32.06,65.0829061842568
8272,-8.374281,-3.680161,4.24068,0.088575,0.082467,0.055131,32.06,65.1274821495403
8282,-8.397013,-3.679563,4.231707,0.087354,0.068111,0.048106,32.05,65.2227818300174
8292,-8.405388,-3.674777,4.235895,0.085521,0.052229,0.039554,32.05,65.2148923193792
8302,-8.422137,-3.667599,4.235895,0.084452,0.036499,0.029932,32.04,65.2445272999942
8312,-8.431709,-3.680759,4.243671,0.082467,0.019395,0.018784,32.04,65.2378273103313
8322,-8.448458,-3.680759,4.247859,0.08094,0.003818,0.007025,32.04,65.2526633705619
8332,-8.441879,-3.662215,4.25384,0.07926,-0.011454,-0.006872,32.04,65.1901973735482
8342,-8.439486,-3.678965,4.264608,0.076358,-0.027336,-0.02138,32.05,65.1456307296428
8352,-8.420941,-3.677171,4.275974,0.074526,-0.054672,-0.050091,32.05,65.0452334382331
8362,-8.410771,-3.678965,4.292126,0.070402,-0.066584,-0.064752,32.05,64.941923438201
8372,-8.400003,-3.684947,4.295715,0.067959,-0.076969,-0.078954,32.04,64.9056521896636
8382,-8.379665,-3.688536,4.307081,0.066279,-0.085368,-0.090866,32.04,64.8061151619318
8392,-8.350353,-3.705286,4.319643,0.064294,-0.092241,-0.103236,32.05,64.6932987573371
8402,-8.320443,-3.701697,4.337589,0.061697,-0.09728,-0.113163,32.05,64.5312388025032
8412,-8.291131,-3.711268,4.338188,0.059712,-0.100182,-0.121409,32.04,64.4721924563325
8422,-8.278568,-3.71067,4.351946,0.057574,-0.100335,-0.129045,32.04,64.3727630724964
8432,-8.244471,-3.718446,4.360321,0.055436,-0.098502,-0.134696,32.01,64.2607881227429
8442,-8.210373,-3.71725,4.356134,0.052993,-0.096059,-0.138514,32.01,64.2039144570772
8452,-8.175079,-3.719643,4.383651,0.05116,-0.090103,-0.140194,32.07,63.9841703476446
8462,-8.143971,-3.732804,4.376472,0.049633,-0.082467,-0.140041,32.07,63.9637011511794
8472,-8.13141,-3.738786,4.389035,0.048106,-0.073609,-0.138514,32.06,63.8763132667355
8482,-8.103294,-3.748955,4.400999,0.046731,-0.062919,-0.133474,32.06,63.7605717477657
8492,-8.080563,-3.750151,4.397409,0.046426,-0.050396,-0.127213,32.05,63.7278356658537
8502,-8.058429,-3.75733,4.398606,0.046578,-0.038637,-0.120646,32.05,63.6780690996886
8512,-8.046464,-3.750151,4.402196,0.045509,-0.024587,-0.111025,32.07,63.6238820026181
8522,-8.02792,-3.768098,4.397409,0.045357,-0.010079,-0.091019,32.07,63.6250635861187
8532,-8.025527,-3.768098,4.41057,0.047189,0.01909,-0.080023,32.03,63.5512733598177
8542,-8.029117,-3.766303,4.402793,0.047953,0.032987,-0.069028,32.03,63.5979767723645
8552,-8.024331,-3.776472,4.396214,0.049633,0.046578,-0.057421,32.03,63.6320677293467
8562,-8.045866,-3.774678,4.397409,0.051007,0.060628,-0.04612,32.05,63.6739422790537
8572,-8.055437,-3.776472,4.396214,0.052534,0.073915,-0.035583,32.05,63.7042643901765
8582,-8.068598,-3.772285,4.392624,0.054367,0.085521,-0.025504,32.04,63.7487595376942
8592,-8.087142,-3.782454,4.385446,0.055283,0.096822,-0.017868,32.04,63.8396139153298
8602,-8.10449,-3.78066,4.379463,0.056963,0.107207,-0.01069,32.06,63.9084604340892
8612,-8.12124,-3.768696,4.38066,0.058032,0.115606,-0.003971,32.06,63.9279157152356
8622,-8.145766,-3.769892,4.365107,0.059407,0.122478,0.000458,32.04,64.0655238338987
8632,-8.177471,-3.772883,4.368696,0.060781,0.128282,0.002596,32.04,64.1222396180229
8642,-8.195418,-3.757928,4.365705,0.06185,0.132558,0.003207,32.02,64.1627344160681
8652,-8.215756,-3.763312,4.351946,0.062614,0.135307,0.001833,32.02,64.2850889236521
8662,-8.239087,-3.754937,4.347759,0.062766,0.136376,-0.000611,32.07,64.3505170415212
8672,-8.25464,-3.749553,4.34417,0.063988,0.136376,-0.003818,32.07,64.3983788662838
8682,-8.266006,-3.743571,4.337589,0.064599,0.134543,-0.006872,32.05,64.4515863660337
8692,-8.300702,-3.742973,4.32742,0.06521,0.131947,-0.013286,32.05,64.5806197664545
8702,-8.298308,-3.739383,4.315455,0.06689,0.124158,-0.026114,32.05,64.6331572799726
8712,-8.310871,-3.731009,4.299902,0.06689,0.119577,-0.032834,32.1,64.7326361701782
8722,-8.318049,-3.73041,4.308876,0.067195,0.114079,-0.038637,32.1,64.7018115046117
8732,-8.30788,-3.728018,4.3005,0.068111,0.107512,-0.044288,32.04,64.7199581727175
8742,-8.302496,-3.725625,4.296313,0.06857,0.100029,-0.050702,32.04,64.7271887347271
8752,-8.300103,-3.724428,4.288536,0.069028,0.093768,-0.055894,32,64.7607502607025
8762,-8.294122,-3.731607,4.28734,0.06918,0.085979,-0.059407,32,64.7608080757943
8772,-8.297112,-3.724428,4.292126,0.069944,0.077733,-0.062766,32.04,64.7356203709707
8782,-8.28455,-3.719643,4.278965,0.069944,0.07086,-0.06521,32.04,64.7708611645012
8792,-8.268398,-3.720839,4.275376,0.071471,0.063683,-0.066279,32.05,64.7547216553068
8802,-8.266006,-3.709473,4.265206,0.072082,0.056047,-0.065668,32.05,64.7906598317511
8812,-8.248059,-3.699902,4.26401,0.072693,0.049327,-0.064599,32.05,64.7473173791294
8822,-8.251051,-3.716652,4.259823,0.073609,0.041692,-0.063225,32.05,64.7924620874604
8832,-8.23131,-3.711268,4.267599,0.074526,0.034056,-0.060781,32.06,64.7027184917698
8842,-8.228917,-3.716652,4.265206,0.076511,0.027336,-0.056505,32.06,64.7152137063691
8852,-8.228917,-3.716054,4.252046,0.078496,0.020769,-0.05284,32.05,64.7829230778905
8862,-8.220542,-3.702893,4.255037,0.079718,0.014661,-0.046884,32.05,64.7354301672293
8872,-8.221739,-3.727419,4.255635,0.081092,0.003512,-0.035736,32.03,64.759745738561
8882,-8.218149,-3.723232,4.264608,0.084299,-0.001527,-0.030696,32,64.7009095282677
8892,-8.225328,-3.719643,4.278965,0.086743,-0.007025,-0.025198,32,64.6388679156058
8902,-8.222337,-3.722036,4.276572,0.087812,-0.012217,-0.019853,32.02,64.6470008572945
8912,-8.2349,-3.725027,4.295715,0.089339,-0.016493,-0.016341,32.02,64.5790374615805
8922,-8.242676,-3.733402,4.290929,0.08995,-0.021075,-0.012981,32.06,64.6296477817588
8932,-8.23131,-3.728018,4.303492,0.09163,-0.025198,-0.011301,32.06,64.5338212321436
8942,-8.260622,-3.738187,4.31067,0.092393,-0.028558,-0.008705,32.09,64.5726539335293
8952,-8.261818,-3.734,4.313063,0.092546,-0.030849,-0.008705,32.09,64.5587633033344
8962,-8.267202,-3.72383,4.341777,0.09163,-0.034056,-0.010996,32.04,64.4127575381819
8972,-8.249256,-3.698706,4.464409,0.083383,-0.036805,-0.011148,32.04,63.7187710178417
8982,-8.272586,-3.739383,4.33041,0.06689,-0.041539,-0.011759,32.08,64.4989680869662
8992,-8.2678,-3.73041,4.346562,0.065057,-0.042608,-0.014813,32.08,64.3961673734489
9002,-8.280961,-3.738187,4.364508,0.063988,-0.043371,-0.020922,32.05,64.3414992098081
9012,-8.276773,-3.729812,4.36391,0.06185,-0.043524,-0.027031,32.05,64.3266813311437
9022,-8.271988,-3.741776,4.370491,0.059559,-0.043524,-0.034667,32.09,64.2943385546692
9032,-8.268997,-3.736991,4.386044,0.057269,-0.041539,-0.041081,32.09,64.2030906998281
9042,-8.249854,-3.749553,4.383651,0.054672,-0.039095,-0.058948,32.07,64.1850103814877
9052,-8.245069,-3.748357,4.400401,0.048258,-0.03207,-0.06689,32.08,64.0871936859878
9062,-8.232506,-3.744768,4.399803,0.044746,-0.027336,-0.074067,32.08,64.0580891734812
9072,-8.217552,-3.747759,4.401597,0.040928,-0.021991,-0.081398,32.05,64.0180327906083
9082,-8.197212,-3.745964,4.399205,0.038943,-0.015424,-0.086896,32.05,63.9821417488692
9092,-8.190632,-3.74716,4.402196,0.035736,-0.008705,-0.092393,32.03,63.9530251294902
9102,-8.170892,-3.74058,4.402793,0.032681,-0.001069,-0.096669,32.03,63.8979420140491
9112,-8.143373,-3.745365,4.401597,0.030543,0.008399,-0.098502,32.07,63.8460021255696
9122,-8.137392,-3.75075,4.399803,0.029474,0.01741,-0.099418,32.07,63.847197918597
9132,-8.115856,-3.742374,4.393223,0.027794,0.027031,-0.099418,32.06,63.8226901534977
9142,-8.111669,-3.742374,4.394419,0.027489,0.036652,-0.096517,32.06,63.8068601459494
9152,-8.090134,-3.747759,4.384848,0.027489,0.047495,-0.092852,32.09,63.8123815141838
9162,-8.082357,-3.744169,4.390232,0.028405,0.05849,-0.087201,32.09,63.7626968237706
9172,-8.070393,-3.731607,4.387838,0.027642,0.067501,-0.081092,32.06,63.7338890116518
9182,-8.068598,-3.741179,4.370491,0.0281,0.076205,-0.073457,32.06,63.829953991723
9192,-8.075776,-3.727419,4.357928,0.030849,0.085979,-0.06521,32.02,63.8970585907091
9206,-8.087741,-3.726821,4.341179,0.036346,0.103542,-0.045968,32.05,64.0110559582551
9212,-8.093124,-3.724428,4.351348,0.036346,0.103542,-0.045968,32.05,63.9680805930892
9222,-8.09791,-3.726223,4.335794,0.043677,0.118202,-0.025656,32.02,64.0617958469126
9232,-8.110473,-3.719045,4.332804,0.048411,0.122784,-0.015577,32.02,64.0986016709071
9242,-8.133204,-3.71725,4.316652,0.052534,0.127365,-0.008094,32.04,64.2326494964337
9252,-8.145168,-3.715455,4.307081,0.056047,0.130572,0.001833,32.04,64.3077750815041
9262,-8.175676,-3.711866,4.313661,0.060628,0.1321,0.010079,32.05,64.3392055299195
9272,-8.194221,-3.719045,4.308876,0.063988,0.1321,0.016952,32.05,64.4133480360019
9282,-8.231908,-3.704688,4.294518,0.06689,0.131031,0.023366,32.07,64.5579435422627
9292,-8.239684,-3.701697,4.292126,0.070555,0.12874,0.027642,32.07,64.5847545457818
9302,-8.265409,-3.691527,4.295715,0.071929,0.1237,0.030391,32.05,64.6136311346783
9312,-8.288737,-3.701099,4.284947,0.074373,0.117286,0.031001,32.05,64.7308338587014
9322,-8.310272,-3.696313,4.279563,0.075442,0.111025,0.029474,32.06,64.8017073359587
9332,-8.341978,-3.704688,4.273581,0.077122,0.102625,0.027947,32.06,64.9108374385928
9342,-8.35454,-3.702893,4.275974,0.077427,0.093921,0.024435,32.04,64.9244274097884
9352,-8.37129,-3.689733,4.274179,0.077274,0.082467,0.018173,32.04,64.9577011320224
9362,-8.374879,-3.705884,4.274179,0.077274,0.071471,0.010996,32.02,64.9812372018633
9372,-8.382656,-3.692724,4.27059,0.076358,0.059712,0.002749,32.02,65.0039883211813
9382,-8.395219,-3.698706,4.269992,0.075595,0.047037,-0.005498,32.08,65.0403346785736
9392,-8.391629,-3.709473,4.271787,0.073762,0.021075,-0.026573,32.08,65.0336604798691
9402,-8.393424,-3.708277,4.27059,0.069944,0.009316,-0.036805,32.08,65.0425713134815
9412,-8.38146,-3.708277,4.278367,0.067806,-0.00336,-0.0478,32,64.9764768834443
9422,-8.375478,-3.71067,4.272983,0.065515,-0.015272,-0.059407,32,64.9933382020359
9432,-8.355139,-3.714259,4.277769,0.063377,-0.026573,-0.06857,32.04,64.9276089510121
9442,-8.347363,-3.719643,4.279563,0.061697,-0.036499,-0.077733,32.04,64.9065570190104
9452,-8.332406,-3.726223,4.293322,0.059865,-0.044899,-0.085674,32.05,64.8093395716592
9462,-8.309077,-3.731607,4.301099,0.057727,-0.05284,-0.093615,32.05,64.7231001990794
9472,-8.283952,-3.739982,4.298108,0.0562,-0.058796,-0.100182,32.05,64.6911339747348
9482,-8.268997,-3.737589,4.303492,0.053756,-0.063377,-0.104458,32.05,64.6277253385877
9492,-8.245667,-3.753741,4.314857,0.051924,-0.067042,-0.108429,32.08,64.533438434753
9502,-8.222337,-3.763312,4.323831,0.051007,-0.068722,-0.110719,32.08,64.4447275649087
9512,-8.206783,-3.769892,4.328018,0.050244,-0.068722,-0.11133,32.02,64.3949913220754
9522,-8.196614,-3.772285,4.33041,0.048564,-0.067501,-0.110719,32.02,64.3622574605417
9532,-8.1679,-3.766901,4.339384,0.047953,-0.064599,-0.108276,32.05,64.2455094063648
9542,-8.149954,-3.773481,4.356134,0.047189,-0.060628,-0.104916,32.05,64.1251676467006
9552,-8.127223,-3.767499,4.371687,0.046426,-0.055589,-0.100793,32.04,63.9866841522006
9562,-8.112864,-3.772883,4.380062,0.04612,-0.048564,-0.089644,32.04,63.9162621891188
9572,-8.100304,-3.775276,4.377669,0.046884,-0.032376,-0.083536,32.03,63.9023686631067
9582,-8.095517,-3.781856,4.38066,0.047647,-0.022449,-0.076358,32.08,63.8829633298166
9592,-8.090732,-3.780062,4.38425,0.048106,-0.010996,-0.067501,32.08,63.8514823381752
9602,-8.085946,-3.778865,4.390232,0.048564,-0.000305,-0.058948,32.02,63.8082573786547
9612,-8.088937,-3.777071,4.389035,0.049786,0.011301,-0.051465,32.02,63.8194024569645
9622,-8.088339,-3.772883,4.398606,0.050702,0.022602,-0.043371,32.05,63.7640670751189
9632,-8.089535,-3.77049,4.398606,0.052229,0.034514,-0.036346,32.05,63.7642521009454
9642,-8.100902,-3.768696,4.392624,0.053451,0.045357,-0.028863,32.04,63.8194198575753
9652,-8.105686,-3.768098,4.392026,0.053909,0.056658,-0.021533,32.04,63.8328774701838
9662,-8.109874,-3.764508,4.386642,0.055131,0.067348,-0.016799,32.06,63.8664766867597
9672,-8.112864,-3.760919,4.400999,0.056047,0.076664,-0.012523,32.06,63.7954224290121
9682,-8.133204,-3.756732,4.38425,0.05849,0.085827,-0.007941,32.04,63.9241116377651
9692,-8.151151,-3.755535,4.379463,0.060018,0.093615,-0.005192,32.04,63.9886160776837
9702,-8.155936,-3.744169,4.377669,0.060934,0.100487,-0.002749,32.05,63.996856398209
9712,-8.16132,-3.721437,4.474578,0.059407,0.106443,-0.000458,32.05,63.4875667734651
9722,-8.187043,-3.744768,4.339982,0.048411,0.110872,0.001833,32.03,64.2627438113783
9732,-8.214561,-3.731607,4.332804,0.048106,0.113316,0.001833,32.03,64.3484319141774
9742,-8.217552,-3.721437,4.319643,0.054367,0.114232,0.001374,32.03,64.4127319908473
9752,-8.227122,-3.725625,4.311867,0.056352,0.112399,0.000458,32.09,64.4787110818161
9762,-8.248658,-3.716054,4.301697,0.059407,0.10965,-0.000764,32.09,64.5698587066355
9772,-8.254042,-3.712464,4.301697,0.061545,0.105985,-0.00336,32.05,64.578294748594
9782,-8.268398,-3.705286,4.296313,0.06353,0.102167,-0.004429,32.05,64.6309915929592
9792,-8.263015,-3.703491,4.290331,0.064294,0.097128,-0.007941,32.07,64.6480658782728
9802,-8.270791,-3.7005,4.28076,0.065821,0.091019,-0.010079,32.07,64.711898865011
9812,-8.275578,-3.690929,4.279563,0.066584,0.083994,-0.012828,32.09,64.7192275919482
9822,-8.288737,-3.692724,4.277769,0.067042,0.076969,-0.015119,32.09,64.7595900640373
9832,-8.297711,-3.68734,4.278965,0.067653,0.069639,-0.016646,32.07,64.768044089173
9842,-8.291131,-3.685545,4.284947,0.067042,0.06185,-0.018479,32.07,64.720735492637
9852,-8.289934,-3.675974,4.269992,0.066279,0.053909,-0.020769,32.07,64.7858843393859
9862,-8.29472,-3.694518,4.275376,0.065973,0.046731,-0.021686,32.07,64.7870281037695
9872,-8.294122,-3.679563,4.280162,0.06521,0.038332,-0.02306,32.03,64.7461913817769
9882,-8.287541,-3.684947,4.278367,0.063683,0.029932,-0.024587,32.03,64.7461333396071
9892,-8.301898,-3.696313,4.283751,0.062766,0.022602,-0.026878,32.06,64.761519832019
9902,-8.294122,-3.692126,4.281358,0.061545,0.014355,-0.027794,32.06,64.7524411022723
9912,-8.292327,-3.701697,4.283751,0.059559,0.001374,-0.029474,32.07,64.7455845573883
9922,-8.291729,-3.706482,4.302894,0.057879,-0.004581,-0.033139,32.03,64.6503001887644
9932,-8.291131,-3.709473,4.298706,0.057421,-0.009468,-0.035125,32.03,64.6735276199453
9942,-8.293524,-3.705286,4.307081,0.055741,-0.01405,-0.036805,32.07,64.6315428530029
9952,-8.275578,-3.718446,4.308277,0.054367,-0.018173,-0.039554,32.07,64.5985014087018
9962,-8.274979,-3.705884,4.315455,0.054062,-0.020769,-0.042455,32.09,64.5475820690966
9972,-8.273185,-3.705286,4.314857,0.053298,-0.02306,-0.046426,32.09,64.5460484132879
9982,-8.276773,-3.720241,4.325625,0.051771,-0.025198,-0.049938,32.02,64.5136481804479
9992,-8.268997,-3.722036,4.328616,0.051007,-0.02642,-0.053603,32.02,64.482659644531
10002,-8.27139,-3.728018,4.342973,0.050549,-0.027184,-0.059254,32.05,64.4202388654998
10012,-8.261221,-3.736392,4.337589,0.050091,-0.027947,-0.063835,32.05,64.4335918885799
10022,-8.252846,-3.732804,4.339384,0.049938,-0.026725,-0.067348,32.06,64.4019280415649
10032,-8.234302,-3.73041,4.35075,0.049938,-0.025962,-0.071166,32.06,64.2992656583788
10042,-8.237292,-3.756134,4.354938,0.049938,-0.024129,-0.075136,32,64.3108019522911
10052,-8.23789,-3.739383,4.347161,0.050091,-0.021991,-0.079718,32,64.3349897131009
10062,-8.216354,-3.751946,4.360321,0.050091,-0.019853,-0.083994,32.03,64.2316153291609
10072,-8.207382,-3.753741,4.364508,0.04948,-0.016799,-0.085979,32.03,64.1916436191451
10082,-8.186445,-3.753741,4.371089,0.048717,-0.008552,-0.089492,32.08,64.1103016728021
10092,-8.170892,-3.763312,4.371687,0.046884,-0.003971,-0.090561,32.07,64.0818677694145
10102,-8.167302,-3.765705,4.368098,0.046273,0.000916,-0.090255,32.07,64.0947080462038
10112,-8.16132,-3.760321,4.372883,0.047647,0.007025,-0.08827,32.05,64.0507778166956
10122,-8.135597,-3.769892,4.370491,0.045968,0.012675,-0.086132,32.05,64.0145326434429
10132,-8.137392,-3.755535,4.367499,0.045204,0.018784,-0.082314,32.05,64.0189176844661
10142,-8.135597,-3.765705,4.369295,0.044746,0.025045,-0.078343,32.05,64.0162800231776
10152,-8.122437,-3.759723,4.368098,0.043524,0.031154,-0.072846,32.04,63.9860359706704
10162,-8.117052,-3.775874,4.36391,0.043066,0.03879,-0.067195,32.04,64.0125168378364
10172,-8.110473,-3.768098,4.365107,0.043371,0.045815,-0.06185,32.02,63.9830015357027
10182,-8.111669,-3.758526,4.358526,0.04444,0.051771,-0.05452,32.02,64.0096325494614
10192,-8.122437,-3.759125,4.356134,0.045051,0.058338,-0.047189,32.11,64.0472907360786
10202,-8.127223,-3.75733,4.350152,0.044746,0.064446,-0.03879,32.11,64.0872927268576
10212,-8.124829,-3.75733,4.346562,0.045051,0.070097,-0.031918,32.04,64.1004174569946
10222,-8.128419,-3.758526,4.341777,0.046426,0.074831,-0.024893,32.04,64.1346542083762
10232,-8.123632,-3.753741,4.34417,0.048106,0.079565,-0.017715,32.04,64.1062887485998
10242,-8.158329,-3.754937,4.331009,0.050091,0.082772,-0.010996,32.04,64.2546496242069
10252,-8.167302,-3.739982,4.322036,0.051618,0.085521,-0.000305,32.04,64.3058851038502
10262,-8.190632,-3.744169,4.322634,0.055283,0.089492,0.003054,32.02,64.3598828431158
10272,-8.195418,-3.745365,4.31725,0.057269,0.089492,0.005192,32.02,64.3997515879072
10282,-8.213962,-3.745365,4.318447,0.060018,0.089186,0.007178,32.02,64.4353041847117
10292,-8.231908,-3.728018,4.311268,0.062156,0.087048,0.007636,32.02,64.4949872740187
10302,-8.246863,-3.711866,4.31067,0.06353,0.085368,0.007789,32.05,64.5152719572716
10312,-8.257631,-3.718446,4.31067,0.064904,0.082925,0.006109,32.05,64.5460454476329
10322,-8.260622,-3.71725,4.305286,0.06689,0.078954,0.003512,32.04,64.5793081975899
10332,-8.286943,-3.710072,4.301099,0.068111,0.074831,-0.000611,32.04,64.6524636657234
10342,-8.287541,-3.705884,4.306482,0.070402,0.070555,-0.005345,32.04,64.6218808755395
10352,-8.291729,-3.689135,4.371687,0.070555,0.06521,-0.00901,32.04,64.2794865768585
10362,-8.306085,-3.701099,4.319643,0.060934,0.058643,-0.012523,32.03,64.5907531438251
10372,-8.310272,-3.705286,4.287939,0.057574,0.051465,-0.018173,32.03,64.7673889976185
10382,-8.31446,-3.697509,4.284947,0.059407,0.045357,-0.024282,32.06,64.784415172403
10392,-8.310272,-3.701099,4.297509,0.061087,0.037263,-0.030238,32.06,64.713953083005
10402,-8.309675,-3.695715,4.290929,0.061545,0.030696,-0.034972,32.08,64.7411967964995
10412,-8.315059,-3.699902,4.296911,0.062003,0.023824,-0.041539,32.08,64.7264817158541
10422,-8.295916,-3.698107,4.298706,0.062919,0.017104,-0.04612,32.07,64.6728797110693
10432,-8.290532,-3.707679,4.294518,0.063988,0.004581,-0.054825,32.07,64.691996181686
10442,-8.297112,-3.702295,4.296313,0.063072,-0.001069,-0.058796,32.06,64.6920348124672
10452,-8.271988,-3.71067,4.31067,0.063988,-0.005956,-0.060476,32.05,64.5703483087951
10462,-8.270193,-3.699304,4.304688,0.063225,-0.009468,-0.062461,32.05,64.5857927567649
10472,-8.245667,-3.713063,4.299304,0.062614,-0.013286,-0.064294,32.04,64.5725058883133
10482,-8.252247,-3.714259,4.319045,0.062461,-0.016341,-0.063683,32.04,64.4865593083954
10492,-8.243872,-3.71725,4.320241,0.061087,-0.018784,-0.062919,32.04,64.4646111151226
10502,-8.228917,-3.713661,4.323233,0.060781,-0.0197,-0.061087,32.04,64.4118803381597
10512,-8.204989,-3.723232,4.320839,0.059865,-0.020617,-0.058338,32.03,64.3800475029617
10522,-8.205587,-3.73041,4.326224,0.059559,-0.021075,-0.055589,32.03,64.360926754734
10532,-8.195418,-3.735795,4.325027,0.058032,-0.020769,-0.052687,32.03,64.3496861217846
10542,-8.180463,-3.741776,4.326224,0.057574,-0.019853,-0.048717,32.03,64.3158634542782
10552,-8.184649,-3.725625,4.335197,0.057269,-0.017562,-0.045662,32.06,64.2622485137553
10562,-8.18764,-3.745365,4.341777,0.056963,-0.016799,-0.041844,32.06,64.2554450647803
10572,-8.181061,-3.752544,4.336991,0.054825,-0.013592,-0.038637,32.06,64.2727151251716
10582,-8.172686,-3.751946,4.346562,0.054214,-0.01069,-0.035277,32.06,64.203679332896
10592,-8.186445,-3.756134,4.353741,0.053298,-0.007789,-0.032987,32.04,64.20218112375
10602,-8.182856,-3.760321,4.358526,0.052687,0.000305,-0.0281,32.04,64.1737350102754
10612,-8.181659,-3.758526,4.368696,0.050549,0.004429,-0.027947,32.05,64.1167429021754
10622,-8.181061,-3.757928,4.366303,0.049022,0.008247,-0.028405,32.02,64.1270888460386
10632,-8.182856,-3.75075,4.367499,0.048411,0.013592,-0.029016,32.02,64.1175224032538
10642,-8.181061,-3.754339,4.383053,0.047037,0.018021,-0.030085,32.05,64.0371000143659
10652,-8.194819,-3.758526,4.383651,0.044899,0.022449,-0.032376,32.05,64.0696842859665
10662,-8.2014,-3.762714,4.383651,0.043371,0.027642,-0.035736,32.03,64.0889843450491
10672,-8.187043,-3.75075,4.381856,0.041997,0.032529,-0.039248,32.03,64.0531297409263
10682,-8.200203,-3.758526,4.38425,0.041081,0.037721,-0.043371,32.07,64.0788325340027
10692,-8.192427,-3.760919,4.376472,0.039554,0.043371,-0.047189,32.07,64.1036592351356
10702,-8.193025,-3.754937,4.377669,0.038332,0.047495,-0.051313,32.07,64.0926302208516
10712,-8.19123,-3.755535,4.377071,0.037415,0.053145,-0.056505,32.07,64.0922518520182
10722,-8.19123,-3.747759,4.38425,0.037568,0.057727,-0.060323,32.04,64.0472288890897
10732,-8.180463,-3.745365,4.372285,0.037568,0.062766,-0.063072,32.04,64.0818120425927
10742,-8.175676,-3.729812,4.391428,0.036957,0.067806,-0.066584,32.06,63.9560924810409
10752,-8.14457,-3.69392,4.478765,0.027642,0.064599,-0.063225,32.06,63.3979852648231
10762,-8.175079,-3.739982,4.345366,0.016341,0.059101,-0.057727,32.05,64.2028439692537
10772,-8.184649,-3.738786,4.34417,0.017715,0.062308,-0.05681,32.05,64.2294972620983
10782,-8.156534,-3.738786,4.332206,0.022907,0.068264,-0.05452,32.09,64.2275365134233
10792,-8.17448,-3.735196,4.328616,0.025809,0.071013,-0.051924,32.07,64.2831262601192
10802,-8.170892,-3.72383,4.320241,0.028558,0.072998,-0.048411,32.07,64.3065944450115
10812,-8.175079,-3.729812,4.310072,0.03207,0.074831,-0.042761,32.07,64.3749592792448
10822,-8.167302,-3.70409,4.31067,0.034819,0.076053,-0.03711,32.07,64.327702534007
10832,-8.184649,-3.714857,4.306482,0.037874,0.075595,-0.032834,32.06,64.3998233936986
10842,-8.188239,-3.706482,4.286144,0.040928,0.075442,-0.025809,32.06,64.5048915401916
10852,-8.185248,-3.708277,4.301099,0.043524,0.07422,-0.01909,32.04,64.4223457143757
10862,-8.188837,-3.708875,4.292126,0.04612,0.072388,-0.011454,32.04,64.4776280764608
10872,-8.213962,-3.70409,4.277769,0.048564,0.070097,-0.005498,32,64.6038400519645
10882,-8.218747,-3.695715,4.281956,0.051313,0.066432,0.001222,32,64.584395107776
10892,-8.230712,-3.708875,4.275974,0.053145,0.062003,0.008399,32.07,64.655541668771
10902,-8.252846,-3.698706,4.273581,0.054367,0.056352,0.013134,32.07,64.7072115589815
10912,-8.259426,-3.699902,4.271188,0.056047,0.050702,0.018021,32.06,64.735483212316
10922,-8.263015,-3.702295,4.274778,0.057421,0.043524,0.02138,32.06,64.7272939895557
10932,-8.291729,-3.695715,4.266403,0.057727,0.036194,0.023518,32.06,64.827937233461
10942,-8.319845,-3.701099,4.274179,0.058338,0.027947,0.023976,32.06,64.8553838637213
10952,-8.312666,-3.709473,4.272385,0.05849,0.009468,0.021075,32.05,64.8570120643562
10962,-8.345568,-3.7005,4.276572,0.05849,-0.000305,0.017868,32.04,64.8992564707798
10972,-8.342576,-3.706482,4.289733,0.058032,-0.009927,0.014355,32.04,64.8308145373764
10982,-8.346166,-3.716054,4.286742,0.057421,-0.018937,0.007025,32.06,64.8634964016651
10992,-8.343175,-3.716054,4.297509,0.055589,-0.027184,-0.000611,32.06,64.8015795235901
11002,-8.350353,-3.721437,4.308277,0.05452,-0.036194,-0.009163,32.07,64.7674558159904
11012,-8.343773,-3.718446,4.313661,0.052687,-0.042913,-0.018021,32.07,64.7223582090153
11022,-8.345568,-3.722634,4.322634,0.050091,-0.050396,-0.029016,32.04,64.6844657608014
11032,-8.336594,-3.728018,4.328018,0.048258,-0.056352,-0.039248,32.04,64.6423304800123
11042,-8.322835,-3.733402,4.34058,0.046578,-0.059559,-0.04948,32.03,64.5527903034296
11052,-8.3013,-3.744768,4.348357,0.04383,-0.062308,-0.06017,32.03,64.4763846728318
11062,-8.292925,-3.748357,4.369295,0.041081,-0.063835,-0.070708,32.05,64.3540933729283
11072,-8.255836,-3.745365,4.373481,0.039095,-0.062919,-0.081092,32.05,64.246333244218
11082,-8.238488,-3.753741,4.375276,0.036194,-0.059712,-0.089339,32.05,64.2066041498697
11092,-8.230114,-3.754339,4.384848,0.034056,-0.055589,-0.096975,32.05,64.1392022127866
11102,-8.203793,-3.754339,4.393223,0.031612,-0.049175,-0.102778,32.04,64.0365487311382
11112,-8.182856,-3.766303,4.405187,0.02978,-0.041997,-0.10736,32.04,63.9399700570331
11122,-8.133802,-3.777071,4.401597,0.027642,-0.022297,-0.11133,32.01,63.8576640489984
11132,-8.126026,-3.769294,4.400401,0.025656,-0.011301,-0.11133,32.05,63.8377049725182
11142,-8.096116,-3.769294,4.404588,0.024435,0.000458,-0.109345,32.05,63.7472672584791
11152,-8.082954,-3.768696,4.396811,0.024435,0.012828,-0.104458,32.04,63.7564050821735
11162,-8.080563,-3.778865,4.390232,0.02474,0.025045,-0.099266,32.04,63.7958537862589
11172,-8.063214,-3.777669,4.389035,0.02474,0.038637,-0.091172,32.04,63.7607149630365
11182,-8.04826,-3.771687,4.381856,0.02642,0.05116,-0.08262,32.04,63.7568424843723
11192,-8.050652,-3.77408,4.373481,0.027794,0.062766,-0.072693,32.05,63.8084124103932
11202,-8.050054,-3.776472,4.365705,0.030085,0.074373,-0.062156,32.05,63.8499818786779
11212,-8.058429,-3.762115,4.360321,0.032681,0.084758,-0.050855,32.06,63.8817627400804
11222,-8.065607,-3.766303,4.362116,0.034972,0.09499,-0.038485,32.06,63.8935045327707
11232,-8.083553,-3.759723,4.339982,0.037263,0.102931,-0.027794,32.04,64.0426505855021
11242,-8.093722,-3.761517,4.336392,0.039859,0.10965,-0.014966,32.04,64.0865053039527
11252,-8.106883,-3.74716,4.33041,0.043219,0.115759,-0.004123,32.02,64.1324578347692
11262,-8.118848,-3.74716,4.315455,0.045357,0.119424,0.005192,32.02,64.2374599139995
11272,-8.145168,-3.74058,4.311268,0.047495,0.121257,0.014203,32.05,64.3121542904436
11282,-8.154739,-3.74058,4.301099,0.049022,0.122173,0.021686,32.05,64.3866404143011
11292,-8.19781,-3.736392,4.3005,0.051465,0.121868,0.033292,32.01,64.4826060649995
11302,-8.238488,-3.736991,4.294518,0.054978,0.114079,0.036041,32.05,64.6053747595665
11312,-8.257033,-3.716054,4.283153,0.056658,0.109498,0.039095,32.05,64.6844114502034
11322,-8.276175,-3.718446,4.280162,0.058032,0.10232,0.039248,32.04,64.744884876474
11332,-8.30489,-3.709473,4.287939,0.057727,0.094226,0.036194,32.04,64.7595957259067
11342,-8.31446,-3.71067,4.275974,0.058796,0.085521,0.033598,32.04,64.8436514789208
11352,-8.317451,-3.708277,4.278965,0.058948,0.075595,0.028405,32.04,64.8324874274465
11362,-8.348558,-3.699902,4.269393,0.05849,0.065515,0.021686,32.03,64.9422138916738
11372,-8.35155,-3.710072,4.269992,0.05849,0.054062,0.013592,32.03,64.955634125634
11382,-8.35155,-3.699304,4.271188,0.058338,0.044135,0.006567,32.06,64.9389746643931
11392,-8.348558,-3.7005,4.274179,0.058338,0.033445,-0.001374,32.06,64.9181599516152
11402,-8.356933,-3.684349,4.283153,0.057269,0.022602,-0.012065,32.08,64.8747155448831
11412,-8.35454,-3.698107,4.279563,0.057421,0.013286,-0.020464,32.08,64.901301407473
11422,-8.3348,-3.695715,4.282554,0.057727,0.003512,-0.029627,32.05,64.8400121025433
11432,-8.335398,-3.689733,4.286144,0.05681,-0.005803,-0.039859,32.05,64.8169917620274
11442,-8.335398,-3.695715,4.294518,0.056963,-0.013439,-0.048869,32.04,64.7797727227517
11452,-8.315658,-3.694518,4.286742,0.057269,-0.020464,-0.055741,32.04,64.7748732307507
11462,-8.291131,-3.701099,4.304688,0.056658,-0.026878,-0.063225,32.06,64.6343631716329
11472,-8.277969,-3.689135,4.31067,0.05681,-0.035277,-0.073304,32.08,64.5621846971416
11482,-8.260024,-3.699304,4.320241,0.057269,-0.038179,-0.076053,32.08,64.4827781807017
11492,-8.24148,-3.705884,4.320241,0.056658,-0.039554,-0.079565,32.05,64.4477252479101
11502,-8.229516,-3.71067,4.322036,0.056963,-0.040012,-0.081092,32.05,64.416369792525
11512,-8.216354,-3.702295,4.323831,0.056658,-0.04047,-0.081856,32.07,64.3688686166549
11522,-8.204391,-3.704688,4.322634,0.056963,-0.039248,-0.079412,32.07,64.3504375042896
11532,-8.198408,-3.722634,4.333402,0.056047,-0.036652,-0.077733,32.06,64.2996248947181
11542,-8.187043,-3.725625,4.338786,0.056047,-0.034667,-0.076053,32.06,64.2491289914949
11552,-8.187043,-3.725027,4.342375,0.056505,-0.031918,-0.071166,32.04,64.2299681051859
11562,-8.17807,-3.722634,4.34417,0.0562,-0.027947,-0.067806,32.04,64.1978305966035
11572,-8.160722,-3.732205,4.338786,0.056352,-0.024435,-0.063835,32.05,64.1961452407503
11582,-8.169695,-3.736991,4.358526,0.0562,-0.020006,-0.058338,32.05,64.1195241218221
11592,-8.178668,-3.738187,4.348955,0.055589,-0.016035,-0.053603,32.03,64.1905934099184
11602,-8.17149,-3.743571,4.353143,0.054978,-0.011606,-0.048411,32.03,64.1582554659866
11612,-8.157133,-3.754937,4.361517,0.05452,-0.007941,-0.04444,32.06,64.0942271651774
11622,-8.167302,-3.750151,4.359723,0.053909,-0.00336,-0.040012,32.06,64.1216275030189
11632,-8.176275,-3.755535,4.369295,0.053603,0.001985,-0.035736,32.05,64.0982996179993
11642,-8.182856,-3.757928,4.381856,0.052534,0.010385,-0.032223,32.05,64.0510942861473
11652,-8.186445,-3.751348,4.377071,0.051465,0.014661,-0.02978,32.05,64.0770140649723
11662,-8.197212,-3.754339,4.38425,0.049175,0.01909,-0.029627,32.01,64.067682461319
11672,-8.199007,-3.759723,4.381856,0.048258,0.02306,-0.028863,32.01,64.0896653400052
11682,-8.19781,-3.754937,4.377669,0.047342,0.026878,-0.030391,32.05,64.1034947722393
11692,-8.208578,-3.767499,4.380062,0.045204,0.031918,-0.032681,32.05,64.1286604952899
11702,-8.202596,-3.753741,4.382454,0.044288,0.035583,-0.035736,32.01,64.0885185264063
11712,-8.209177,-3.767499,4.392624,0.042761,0.039859,-0.038026,32.01,64.0655372608256
11722,-8.203195,-3.761517,4.375276,0.040928,0.04444,-0.041844,32.03,64.1348474586454
11732,-8.202596,-3.759125,4.379463,0.040775,0.048869,-0.044288,32.03,64.1094835058034
11742,-8.198408,-3.756732,4.377669,0.039554,0.053603,-0.047953,32.03,64.1067181585072
11752,-8.19123,-3.755535,4.378268,0.038943,0.058338,-0.050702,32.03,64.0860941822397
11762,-8.188239,-3.760321,4.377071,0.038485,0.062766,-0.053756,32.05,64.0904463374701
11772,-8.17448,-3.757928,4.366901,0.038637,0.067959,-0.0562,32.05,64.1090561350963
11782,-8.181061,-3.75075,4.36391,0.038943,0.071777,-0.05849,32.06,64.1319390517699
11792,-8.169695,-3.75075,4.360321,0.039248,0.076816,-0.060323,32.06,64.1246108883602
11802,-8.172088,-3.741776,4.357928,0.040164,0.081551,-0.060018,32.09,64.1330438078596
11812,-8.169096,-3.753142,4.348955,0.041081,0.086743,-0.057269,32.09,64.1844193403456
11822,-8.166105,-3.736392,4.345366,0.043677,0.095295,-0.055436,32.02,64.1787152119381
11832,-8.158927,-3.736991,4.342375,0.045204,0.098349,-0.051771,32.03,64.1784749785219
11842,-8.154141,-3.726821,4.314857,0.046731,0.101404,-0.048411,32.03,64.299587273644
11852,-8.164311,-3.731009,4.311268,0.04948,0.103694,-0.04383,32.04,64.3456179870701
11862,-8.176275,-3.733402,4.313661,0.051007,0.105832,-0.039401,32.04,64.3627713549135
11872,-8.177471,-3.733402,4.302894,0.052534,0.106291,-0.034208,32.04,64.4212835417049
11882,-8.178668,-3.714857,4.290331,0.054825,0.105374,-0.028863,32.04,64.4701128721097
11892,-8.184649,-3.71725,4.293921,0.057879,0.105222,-0.022907,32.06,64.4674326716383
11902,-8.190632,-3.715455,4.282554,0.059712,0.102167,-0.017104,32.06,64.5380947695229
11912,-8.218747,-3.703491,4.280162,0.062003,0.09896,-0.012523,32.1,64.6015637652233
11922,-8.225926,-3.715455,4.266403,0.063683,0.094379,-0.006872,32.1,64.7011128510424
11932,-8.239684,-3.71067,4.269393,0.065057,0.088423,-0.003207,32.04,64.7115210221594
11942,-8.245069,-3.701697,4.26401,0.066279,0.080634,-0.000305,32.04,64.742442671698
11952,-8.26481,-3.711268,4.26401,0.067348,0.072998,0.002138,32.02,64.7959840096944
11962,-8.285748,-3.703491,4.263412,0.069639,0.064141,0.003971,32.02,64.83783366679
11972,-8.291729,-3.7005,4.249653,0.07025,0.054367,0.004276,32.07,64.9193127697155
11982,-8.322237,-3.698107,4.252644,0.071777,0.04444,0.004429,32.07,64.9688623502654
11992,-8.333604,-3.703491,4.259823,0.073151,0.020464,-0.000764,32.04,64.9621193231053
12002,-8.3348,-3.696313,4.255635,0.073762,0.008858,-0.005345,32.01,64.9793415219048
12012,-8.346166,-3.699902,4.254438,0.073151,-0.003512,-0.010079,32.01,65.0140105007883
12022,-8.34796,-3.698706,4.255635,0.073457,-0.015119,-0.016188,32.05,65.010615684726
12032,-8.352745,-3.712464,4.276572,0.073915,-0.026573,-0.022602,32.05,64.9267471713795
12042,-8.344969,-3.712464,4.283751,0.073151,-0.037415,-0.030085,32.06,64.8727151657424
12052,-8.355738,-3.718446,4.288536,0.072388,-0.0478,-0.03711,32.06,64.8776974493635
12062,-8.343175,-3.714259,4.298108,0.071624,-0.056963,-0.043982,32.06,64.7967381547095
12072,-8.320443,-3.709473,4.308277,0.07086,-0.064294,-0.051007,32.06,64.6894356341512
12082,-8.30788,-3.723232,4.314857,0.069944,-0.071166,-0.058948,32.06,64.6413725383092
12092,-8.297711,-3.73041,4.325625,0.068722,-0.075136,-0.064294,32.06,64.5705903248193
12102,-8.274381,-3.729812,4.331009,0.06689,-0.078343,-0.070555,32.02,64.4902421815179
12112,-8.251051,-3.697509,4.423731,0.065057,-0.079107,-0.075289,32.02,63.9292750907959
12122,-8.210373,-3.696911,4.465007,0.046578,-0.081703,-0.076511,32.02,63.6243320254863
12132,-8.210373,-3.751348,4.362714,0.030085,-0.082467,-0.0759,32.02,64.2051661670272
12142,-8.18764,-3.749553,4.368696,0.029169,-0.079718,-0.077427,32.06,64.1209798679108
12152,-8.151151,-3.751946,4.38066,0.029322,-0.074678,-0.076816,32.06,63.9786657547515
12162,-8.134999,-3.758526,4.382454,0.027947,-0.060628,-0.075595,32.05,63.9393907368442
12172,-8.126624,-3.753741,4.393821,0.027794,-0.051007,-0.07254,32.05,63.8564622259267
12182,-8.107481,-3.757928,4.400401,0.026573,-0.040164,-0.069333,32.05,63.7829086472579
12192,-8.093722,-3.764508,4.398008,0.026114,-0.028405,-0.06521,32.02,63.7705750553578
12202,-8.087741,-3.772883,4.406981,0.025198,-0.01573,-0.060934,32.02,63.7194440748438
12212,-8.083553,-3.762714,4.41416,0.024129,-0.00168,-0.056047,32.05,63.6617434915438
12222,-8.075178,-3.762714,4.411169,0.024282,0.011301,-0.050855,32.05,63.6577790295851
12232,-8.093124,-3.768696,4.41416,0.023976,0.024893,-0.045662,32.04,63.6903347837927
12242,-8.079964,-3.763312,4.418945,0.023213,0.037874,-0.040928,32.04,63.6293781573077
12252,-8.085348,-3.763312,4.411767,0.02306,0.051924,-0.034819,32.05,63.6788953745802
12262,-8.085348,-3.762115,4.398606,0.021533,0.064904,-0.029932,32.05,63.7455778006508
12272,-8.099705,-3.760919,4.395615,0.022907,0.076969,-0.023976,32.07,63.7928873316851
12282,-8.11466,-3.754339,4.388436,0.022602,0.087659,-0.020006,32.07,63.85738037549
12292,-8.126624,-3.754339,4.387838,0.023976,0.097586,-0.016646,32.04,63.8879645072902
12302,-8.140383,-3.753741,4.379463,0.023976,0.10568,-0.013592,32.04,63.9620953588784
12312,-8.148159,-3.748955,4.365107,0.02474,0.11301,-0.010385,32.05,64.0489451623283
12322,-8.173882,-3.748955,4.347161,0.026114,0.119577,-0.008094,32.05,64.2001853030837
12332,-8.196015,-3.739383,4.332804,0.027184,0.125991,-0.004581,32.07,64.3145458620961
12342,-8.216354,-3.727419,4.332804,0.030696,0.127518,-0.004276,32,64.3481877665506
12352,-8.233703,-3.738786,4.316652,0.032223,0.126755,-0.004887,32,64.4821761189528
12362,-8.246264,-3.726821,4.315455,0.033598,0.124617,-0.006414,32.02,64.5043631319745
12372,-8.270193,-3.721437,4.305884,0.035583,0.121257,-0.008094,32.02,64.6018176557059
12382,-8.266603,-3.717848,4.293921,0.03711,0.117897,-0.00901,32.08,64.6519225091282
12392,-8.268398,-3.715455,4.291527,0.038332,0.111636,-0.010843,32.08,64.6658866186748
12402,-8.293524,-3.722036,4.282554,0.039554,0.104305,-0.013439,32,64.7746282245108
12412,-8.306085,-3.71725,4.289733,0.041233,0.096364,-0.015882,32,64.7607121488434
12422,-8.306684,-3.704688,4.278367,0.043066,0.087354,-0.018326,32.06,64.8081912202595
12432,-8.315658,-3.714857,4.26401,0.043524,0.078038,-0.020617,32.06,64.9121339257322
12442,-8.307282,-3.7005,4.271787,0.045051,0.067806,-0.023671,32.03,64.8393320229253
12452,-8.31446,-3.682554,4.258028,0.046273,0.057879,-0.025504,32.03,64.9086351989545
12462,-8.318049,-3.688536,4.26401,0.047647,0.047189,-0.027642,32.07,64.8915398279461
12472,-8.297711,-3.691527,4.261019,0.048411,0.036652,-0.027794,32.07,64.8649041964014
12482,-8.309077,-3.703491,4.258626,0.048564,0.027336,-0.030238,32.07,64.9142104176614
12492,-8.297711,-3.693322,4.259823,0.049327,0.017257,-0.031612,32.07,64.8728585429428
12502,-8.287541,-3.697509,4.264608,0.050702,0.006872,-0.032681,32.11,64.8296995901027
12512,-8.286943,-3.708277,4.263412,0.050702,-0.010385,-0.033445,32.04,64.8452289420316
12522,-8.257033,-3.703491,4.278367,0.051618,-0.018021,-0.032681,32.04,64.6965736711933
12532,-8.268997,-3.707081,4.267001,0.051465,-0.024893,-0.032223,32.05,64.7856339001886
12542,-8.256434,-3.708875,4.281956,0.051771,-0.031154,-0.031765,32.05,64.6820629673978
12552,-8.252846,-3.715455,4.280162,0.052382,-0.036805,-0.030696,32.02,64.6899398938247
12562,-8.248059,-3.722036,4.298108,0.053145,-0.041692,-0.030238,32.02,64.5930942350539
12572,-8.239684,-3.72383,4.292724,0.053298,-0.044288,-0.028253,32.04,64.60400050193
12582,-8.237292,-3.732205,4.310072,0.052993,-0.0478,-0.027489,32.04,64.5174933482216
12592,-8.227122,-3.729214,4.311268,0.052993,-0.049175,-0.026878,32.08,64.4854584249937
12602,-8.221141,-3.734,4.321437,0.053298,-0.050396,-0.026573,32.08,64.424377602622
12612,-8.226524,-3.741776,4.334,0.053145,-0.050549,-0.027642,32.04,64.379632620164
12622,-8.219944,-3.736991,4.335794,0.053145,-0.050549,-0.027642,32.04,64.3506653945522
12632,-8.222337,-3.741776,4.336991,0.052382,-0.04948,-0.029169,32.06,64.354790116658
12642,-8.215756,-3.744169,4.350152,0.051924,-0.046731,-0.031001,32.06,64.2745957950472
12652,-8.213962,-3.748955,4.352544,0.051313,-0.04383,-0.032681,32.06,64.2631554641013
12662,-8.199007,-3.748955,4.365107,0.050091,-0.041081,-0.036652,32.06,64.1646352065387
12672,-8.212168,-3.747759,4.381258,0.048717,-0.036194,-0.039248,32.05,64.1101806261918
12682,-8.207382,-3.765705,4.387838,0.045968,-0.027336,-0.045051,32.05,64.0841607533403
12692,-8.205587,-3.754937,4.390232,0.04444,-0.021686,-0.049633,32.04,64.0566018468888
12702,-8.204391,-3.751946,4.392026,0.041692,-0.015577,-0.053145,32.05,64.0415647886055
12712,-8.199007,-3.753741,4.386642,0.04047,-0.009163,-0.056047,32.05,64.0588472188205
12722,-8.184052,-3.762714,4.398008,0.038943,-0.001833,-0.058185,32.04,63.9757947429018
12732,-8.175676,-3.751348,4.395017,0.036499,0.005956,-0.06185,32.04,63.9601524136197
12742,-8.189436,-3.75733,4.398606,0.03543,0.013744,-0.063225,32.04,63.9793569020911
12752,-8.168499,-3.75733,4.405785,0.034514,0.020617,-0.06521,32.04,63.894679358527
12762,-8.154739,-3.744768,4.38724,0.032681,0.028253,-0.066584,32.06,63.9454061535471
12772,-8.163115,-3.74716,4.395017,0.030849,0.036194,-0.066432,32.06,63.9270429952956
12782,-8.164311,-3.744768,4.380062,0.02978,0.043219,-0.065973,32.05,64.0042867701629
12792,-8.163115,-3.748357,4.382454,0.028405,0.050091,-0.064446,32.05,63.9929917289951
12802,-8.151151,-3.753142,4.372285,0.028711,0.056963,-0.061697,32.08,64.0231230747596
12812,-8.148159,-3.741776,4.371687,0.028863,0.063377,-0.060018,32.08,64.0074254872447
12822,-8.143971,-3.745365,4.368696,0.029169,0.069486,-0.055131,32.05,64.0170641528351
12832,-8.142776,-3.751946,4.352544,0.030849,0.074831,-0.050244,32.05,64.1047329203945
12842,-8.151749,-3.744169,4.346562,0.031154,0.078343,-0.04612,32.1,64.147968769255
12852,-8.149954,-3.743571,4.338188,0.032681,0.086896,-0.034819,32.1,64.1865917280298
12862,-8.160722,-3.727419,4.326822,0.036041,0.089186,-0.028405,32.07,64.2531218915113
12872,-8.163713,-3.721437,4.315455,0.038026,0.090561,-0.021991,32.09,64.3126390453602
12882,-8.176873,-3.720241,4.326822,0.040928,0.09163,-0.016493,32.09,64.2823730449719
12892,-8.175676,-3.723232,4.303492,0.041844,0.092088,-0.010537,32.08,64.4036467242828
12902,-8.172088,-3.706482,4.293322,0.043524,0.092546,-0.005192,32.08,64.4311013221298
12912,-8.193623,-3.716054,4.302295,0.045815,0.090408,-0.001527,32.05,64.4430323687058
12922,-8.209774,-3.725027,4.292126,0.047495,0.088881,0.002902,32.05,64.5412625005676
12932,-8.224131,-3.712464,4.295715,0.049938,0.085827,0.00672,32.03,64.5421534732907
12942,-8.232506,-3.704688,4.290331,0.052076,0.082161,0.00901,32.03,64.5809598772486
12952,-8.240283,-3.708277,4.292724,0.053603,0.078343,0.010232,32.02,64.5896365574943
12962,-8.245667,-3.7005,4.287939,0.054367,0.073609,0.010843,32.02,64.6186261379532
12972,-8.266603,-3.698107,4.292126,0.054978,0.067959,0.010232,32.03,64.6414219128289
12982,-8.286345,-3.711866,4.284947,0.056047,0.062766,0.007941,32.03,64.7362229131753
12992,-8.289336,-3.702893,4.291527,0.056505,0.05681,0.004734,32.01,64.6999971925224
13002,-8.295916,-3.695715,4.293921,0.057727,0.050549,0.001222,32.01,64.6951719602367
13012,-8.306684,-3.701697,4.293322,0.05681,0.043371,-0.00336,32.05,64.728138460666
13022,-8.325229,-3.701697,4.296313,0.057574,0.036652,-0.015119,32.05,64.7538942949093
13032,-8.324032,-3.701697,4.293921,0.057727,0.023518,-0.020922,32.03,64.7635488258603
13042,-8.327023,-3.711268,4.297509,0.056963,0.016493,-0.028711,32.04,64.7611560195544
13052,-8.3348,-3.702893,4.305884,0.056658,0.010232,-0.036194,32.04,64.7270839370358
13062,-8.324032,-3.709473,4.311268,0.056658,0.00336,-0.043066,32.06,64.6820337291912
13072,-8.325229,-3.7005,4.302295,0.055741,-0.003207,-0.051007,32.06,64.7219461921027
13082,-8.309077,-3.707679,4.307081,0.054978,-0.009163,-0.058643,32.04,64.6685527515313
13092,-8.307282,-3.714857,4.312464,0.053298,-0.01405,-0.064446,32.04,64.6440073542073
13102,-8.294122,-3.721437,4.316652,0.052993,-0.01909,-0.070402,32.04,64.5997361717005
13112,-8.280362,-3.726821,4.312464,0.051618,-0.023518,-0.076205,32.04,64.5960096034943
13122,-8.270193,-3.73041,4.315455,0.05116,-0.027031,-0.080329,32.06,64.5615255669755
13132,-8.270791,-3.732804,4.31725,0.050396,-0.029474,-0.08262,32.06,64.5560295691876
13142,-8.245069,-3.731607,4.326224,0.049633,-0.032529,-0.085979,32,64.4510143300582
13152,-8.228318,-3.736991,4.31725,0.049175,-0.033598,-0.086437,32,64.4651762408227
13162,-8.225926,-3.73041,4.326822,0.048869,-0.034208,-0.086743,32.05,64.4036861029061
13172,-8.19781,-3.747759,4.32742,0.0478,-0.034514,-0.085216,32.05,64.3550465634907
13182,-8.184052,-3.750151,4.342973,0.047953,-0.033139,-0.082772,32.02,64.2461074692025
13192,-8.165507,-3.762714,4.337589,0.047342,-0.032376,-0.079718,32.02,64.2449971090677
13202,-8.148159,-3.747759,4.343571,0.047495,-0.02642,-0.07025,32.04,64.1590256364209
13212,-8.147561,-3.744768,4.344768,0.0478,-0.023366,-0.064446,32.03,64.1483374401447
13222,-8.142178,-3.758526,4.349553,0.047495,-0.018631,-0.058796,32.03,64.1257555377413
13232,-8.136793,-3.769892,4.344768,0.047495,-0.014508,-0.051924,32.04,64.1502174609488
13242,-8.12124,-3.765106,4.371089,0.0478,-0.009468,-0.045815,32.04,63.9735438527583
13252,-8.124829,-3.76391,4.360919,0.047495,-0.00336,-0.039401,32.05,64.0330662020402
13262,-8.119445,-3.758526,4.365107,0.048258,0.003054,-0.032376,32.05,63.9933831090502
13272,-8.115856,-3.765705,4.363312,0.048411,0.01069,-0.026878,32.06,64.0020691255763
13282,-8.12782,-3.761517,4.369893,0.048564,0.01741,-0.021228,32.06,63.9909801127915
13292,-8.126624,-3.753741,4.369295,0.048106,0.025351,-0.01573,32.04,63.9831021560227
13302,-8.139186,-3.764508,4.377669,0.048564,0.032987,-0.011912,32.04,63.9799890370807
13312,-8.142776,-3.772883,4.378268,0.048869,0.040317,-0.008247,32.05,63.9939570149861
13322,-8.15773,-3.757928,4.382454,0.048564,0.047495,-0.006872,32.05,63.9907464256587
13332,-8.151749,-3.753741,4.380062,0.048106,0.055589,-0.00504,32.11,63.985005646901
13342,-8.15773,-3.738187,4.393223,0.048106,0.062614,-0.004123,32.11,63.9145186560441
13352,-8.158329,-3.641278,4.63729,0.036194,0.069486,-0.004123,31.99,62.568068392715
13362,-8.175079,-3.748955,4.349553,0.005956,0.078802,-0.004123,31.99,64.1905500909986
13372,-8.196015,-3.748357,4.339384,0.005345,0.08659,-0.00336,32.03,64.2898369935658
13382,-8.201998,-3.748357,4.341179,0.010843,0.089034,-0.004123,32.06,64.2940919403336
13392,-8.231908,-3.739982,4.343571,0.012981,0.090561,-0.006872,32.06,64.3406107631695
13402,-8.23131,-3.734,4.33041,0.014661,0.091172,-0.008399,32.03,64.4009598175843
13412,-8.236095,-3.736392,4.314259,0.017715,0.091324,-0.012065,32.03,64.497452555669
13422,-8.253444,-3.737589,4.31725,0.019853,0.090866,-0.015882,32.05,64.522095306143
13432,-8.268997,-3.729812,4.31067,0.021075,0.089339,-0.018326,32.05,64.5829025034642
13442,-8.260024,-3.71725,4.302295,0.022144,0.08659,-0.022755,32.04,64.5934058124589
13452,-8.282157,-3.716054,4.301697,0.023366,0.083536,-0.025504,32.04,64.6446909009434
13462,-8.268997,-3.710072,4.296911,0.02474,0.079718,-0.029016,32.08,64.6340352528366
13472,-8.261818,-3.722634,4.284349,0.024893,0.074678,-0.031765,32.08,64.6954995443014
13482,-8.279166,-3.710072,4.291527,0.02642,0.069333,-0.033292,32.04,64.6845016986108
13492,-8.276773,-3.707081,4.276572,0.027031,0.062919,-0.033903,32.04,64.753427818036
13502,-8.272586,-3.70409,4.269992,0.02642,0.056505,-0.03543,32.06,64.7751593712593
13512,-8.27139,-3.694518,4.274778,0.026878,0.049022,-0.036652,32.06,64.7382073566829
13522,-8.271988,-3.708875,4.262814,0.0281,0.040623,-0.036041,32.02,64.8157378632565
13532,-8.273185,-3.70409,4.260421,0.028405,0.03207,-0.034667,32.02,64.826022326931
13542,-8.2678,-3.698107,4.255635,0.028711,0.022907,-0.031765,32.02,64.8328990721074
13552,-8.2678,-3.707081,4.249055,0.030849,0.00504,-0.028711,32.01,64.8759247594405
13562,-8.274381,-3.708277,4.260421,0.031001,-0.004581,-0.026114,32.01,64.8328415897603
13572,-8.267202,-3.712464,4.258028,0.031918,-0.012523,-0.023671,32.04,64.8334661461803
13582,-8.257033,-3.717848,4.262814,0.033445,-0.021228,-0.020922,32.04,64.7914660662436
13592,-8.256434,-3.716652,4.267599,0.034056,-0.028711,-0.018021,32.02,64.7641565512345
13602,-8.246863,-3.720839,4.272983,0.036041,-0.03711,-0.014813,32.02,64.7191653073497
13612,-8.253444,-3.726223,4.276572,0.03711,-0.043677,-0.01237,32.04,64.7206655414201
13622,-8.249256,-3.72383,4.294518,0.038637,-0.049175,-0.010079,32.04,64.6161288277659
13632,-8.251051,-3.725027,4.288536,0.039706,-0.054825,-0.008247,32.07,64.6522595201198
13642,-8.245667,-3.726821,4.308277,0.040928,-0.058643,-0.007636,32.07,64.5400646217336
13652,-8.23789,-3.738187,4.314857,0.040775,-0.061545,-0.008094,32.08,64.5002158016058
13662,-8.24148,-3.735196,4.323233,0.041081,-0.063377,-0.00733,32.08,64.4620249171714
13672,-8.2349,-3.751946,4.325027,0.040623,-0.064294,-0.008399,32.06,64.4550905250293
13682,-8.230114,-3.747759,4.347759,0.040317,-0.063988,-0.010843,32.06,64.3229789576487
13692,-8.213365,-3.742973,4.357928,0.040928,-0.062156,-0.013439,32.02,64.2279214791901
13702,-8.214561,-3.744768,4.364508,0.038943,-0.059254,-0.016188,32.02,64.1986172698295
13712,-8.213365,-3.753741,4.383651,0.039095,-0.055131,-0.019853,32.02,64.1067998389691
13722,-8.203195,-3.753142,4.399205,0.035125,-0.043982,-0.028711,32.05,64.0032418497801
13732,-8.202596,-3.75733,4.400999,0.033445,-0.037263,-0.033139,32.05,63.9970370038668
13742,-8.190034,-3.759723,4.407579,0.031612,-0.028405,-0.036957,32.04,63.9371661742982
13752,-8.185248,-3.745365,4.404588,0.02978,-0.019853,-0.040928,32.04,63.9265718018336
13762,-8.175676,-3.762115,4.417749,0.028253,-0.010843,-0.045662,32.02,63.8547058200582
13772,-8.16132,-3.765106,4.413561,0.026878,-0.00168,-0.048564,32.02,63.8464979229656
13782,-8.175676,-3.757928,4.406384,0.024129,0.008399,-0.051771,32.04,63.9086404185703
13792,-8.155338,-3.769892,4.409374,0.021991,0.018631,-0.053298,32.04,63.8593728900118
13802,-8.151151,-3.775276,4.404588,0.020006,0.028405,-0.055131,32.04,63.8800951194298
13812,-8.156534,-3.762714,4.403392,0.018784,0.037874,-0.055741,32.04,63.885275970153
13822,-8.151749,-3.753142,4.397409,0.017868,0.047037,-0.055131,32.07,63.89499881729
13832,-8.140981,-3.753142,4.398008,0.017562,0.056352,-0.054214,32.07,63.8672193388707
13842,-8.136195,-3.743571,4.385446,0.016493,0.063988,-0.051618,32.02,63.9108837453014
13852,-8.143373,-3.75075,4.381258,0.016341,0.071471,-0.048869,32.02,63.9565239896686
13862,-8.140981,-3.753142,4.366303,0.016188,0.079107,-0.045815,32.05,64.0307760286492
13872,-8.142776,-3.754937,4.358526,0.016188,0.083841,-0.042302,32.05,64.0769496837294
13882,-8.148758,-3.736991,4.341179,0.017715,0.088575,-0.03711,32.05,64.1615059845716
13892,-8.169096,-3.728018,4.334598,0.018173,0.095906,-0.027184,32.05,64.2325108537762
13902,-8.170293,-3.724428,4.325027,0.020159,0.09728,-0.022755,31.99,64.2810605329694
13912,-8.175079,-3.729214,4.313661,0.02138,0.097586,-0.017868,32.04,64.3557404555418
13922,-8.190034,-3.726821,4.304688,0.022602,0.096822,-0.013439,32.04,64.4335699089228
13932,-8.199606,-3.722634,4.30409,0.02474,0.095753,-0.008552,32.01,64.4539627831134
13942,-8.217552,-3.725027,4.295715,0.025809,0.092699,-0.00504,32.01,64.5401413492001
13952,-8.218747,-3.711268,4.286742,0.027642,0.089034,-0.001069,32.05,64.5753258658617
13962,-8.240283,-3.711268,4.286742,0.028863,0.084605,0.001985,32.05,64.6236050410897
13972,-8.255239,-3.710072,4.284349,0.030849,0.078649,0.004429,32.05,64.6682189096052
13982,-8.266006,-3.696911,4.277769,0.032987,0.072846,0.005345,32.05,64.7131146991017
13992,-8.274979,-3.707679,4.271787,0.034361,0.065057,0.006414,32.02,64.7747714295227
14002,-8.288139,-3.695715,4.268198,0.035736,0.057116,0.006109,32.02,64.8106875745959
14012,-8.290532,-3.695116,4.271188,0.036652,0.049022,0.005345,32.05,64.7999540640916
14022,-8.298907,-3.69392,4.278965,0.037874,0.04047,0.002902,32.05,64.7772061854701
14032,-8.312666,-3.702295,4.27059,0.039248,0.031001,0.000611,32.07,64.8591957504679
14042,-8.317451,-3.711268,4.26401,0.040164,0.023213,-0.002291,32.07,64.9125544304322
14052,-8.308478,-3.695715,4.283153,0.041692,0.014813,-0.006414,32.04,64.7786232268366
14062,-8.312666,-3.705884,4.283153,0.042455,0.00672,-0.013897,32.04,64.7979499453717
14072,-8.31147,-3.712464,4.288536,0.042913,-0.009774,-0.019242,32.03,64.774069985942
14082,-8.325229,-3.705884,4.301697,0.043677,-0.016035,-0.024435,32.09,64.7303333264403
14092,-8.316256,-3.714259,4.311268,0.043677,-0.022144,-0.029016,32.09,64.6695079555881
14102,-8.312068,-3.699304,4.302295,0.04383,-0.0281,-0.035125,32.05,64.691531017687
14112,-8.298308,-3.713063,4.320241,0.04383,-0.03375,-0.039706,32.05,64.5822481151428
14122,-8.280961,-3.715455,4.307679,0.043219,-0.038485,-0.043982,32,64.6105982646604
14132,-8.272586,-3.716054,4.332206,0.042913,-0.041539,-0.048717,32,64.4662040386282
14142,-8.268997,-3.720839,4.329215,0.041844,-0.044288,-0.051924,32.06,64.4783705004537
14152,-8.249256,-3.731009,4.336392,0.041539,-0.045357,-0.055131,32.06,64.4074385156594
14162,-8.2349,-3.733402,4.342973,0.039859,-0.046731,-0.058643,32.05,64.3437025707446
14172,-8.228917,-3.729812,4.341777,0.039554,-0.047037,-0.060476,32.05,64.332710567794
14182,-8.206185,-3.734,4.339982,0.038943,-0.04612,-0.062308,32.05,64.2949345729176
14192,-8.208578,-3.733402,4.348955,0.038026,-0.043524,-0.061697,32.05,64.253456749788
14202,-8.200203,-3.741776,4.347759,0.036957,-0.040623,-0.06185,32.06,64.2493037120124
14212,-8.17807,-3.750151,4.356134,0.036652,-0.036805,-0.060476,32.06,64.1646204223874
14222,-8.162517,-3.744169,4.362116,0.036652,-0.033139,-0.058032,32.02,64.0921281941494
14232,-8.157133,-3.754937,4.370491,0.035888,-0.027794,-0.0562,32.02,64.0479163069491
14242,-8.149356,-3.759723,4.366303,0.034514,-0.016493,-0.051007,32.05,64.0568221228631
14252,-8.152347,-3.769294,4.366303,0.034208,-0.01069,-0.046884,32.02,64.0737100406571
14262,-8.141579,-3.766901,4.371089,0.033292,-0.004123,-0.042761,32.02,64.0219405335078
14272,-8.142776,-3.752544,4.372883,0.033139,0.001833,-0.040317,32.01,64.0002688937984
14282,-8.142178,-3.756134,4.369295,0.033445,0.008705,-0.036346,32.01,64.0212106399187
14292,-8.151749,-3.76391,4.370491,0.032987,0.015119,-0.032834,32.05,64.0450723969738
14302,-8.154739,-3.760321,4.384848,0.033445,0.021991,-0.029474,32.05,63.9740995994652
14312,-8.143971,-3.762115,4.379463,0.033139,0.028405,-0.026573,32.05,63.9791440600413
14322,-8.159525,-3.756732,4.376472,0.031765,0.034667,-0.024893,32.05,64.0244152040229
14332,-8.172686,-3.75733,4.377071,0.03146,0.040623,-0.023366,32.05,64.0519517745658
14342,-8.170293,-3.765705,4.38724,0.030849,0.047037,-0.020769,32.05,64.002935720452
14352,-8.17149,-3.75733,4.368098,0.031307,0.051771,-0.01909,32.05,64.0954626085841
14362,-8.179267,-3.753142,4.374678,0.030696,0.056658,-0.017868,32.05,64.0748768277529
14372,-8.184052,-3.753142,4.365107,0.030696,0.062003,-0.017562,32.02,64.1350549106834
14382,-8.182856,-3.751946,4.369893,0.030085,0.065973,-0.016799,32.02,64.1064356063158
14392,-8.204391,-3.754339,4.366303,0.029627,0.069028,-0.016646,32,64.176257055463
14402,-8.206783,-3.745964,4.353741,0.029169,0.072082,-0.018631,32,64.2376818329312
14412,-8.218747,-3.75075,4.35075,0.029322,0.076816,-0.018937,32.08,64.2850397943106
14422,-8.215158,-3.732205,4.346562,0.029627,0.078038,-0.020617,32.05,64.2794420994103
14432,-8.222935,-3.738187,4.332804,0.028863,0.078649,-0.021686,32.05,64.3740467367475
14442,-8.219346,-3.73041,4.328616,0.029169,0.079107,-0.021228,32.06,64.3796086894452
14452,-8.219346,-3.714857,4.322036,0.030391,0.078496,-0.022907,32.06,64.3977017438899
14462,-8.23131,-3.722634,4.325625,0.030238,0.077885,-0.023824,32.07,64.414054197727
14472,-8.232506,-3.717848,4.318447,0.030696,0.076511,-0.022907,32.07,64.4489250890874
14482,-8.218747,-3.720241,4.306482,0.031918,0.07422,-0.023976,32.05,64.4822398707479
