t_ms,ax,ay,az,gx,gy,gz,temp,ang_deg
12,-8.120044,-3.979862,3.431308,-0.072693,-0.308182,0.350942,31.42,69.2209071044091
22,-8.126026,-3.942175,3.500101,-0.044746,-0.320399,0.393703,31.42,68.8170707679112
32,-8.140383,-3.912265,3.552145,-0.018021,-0.327882,0.435089,31.41,68.5304156192609
42,-8.173284,-3.873382,3.62393,0.007483,-0.3317,0.472504,31.41,68.1654457331691
52,-8.220542,-3.842873,3.680161,0.029627,-0.3317,0.505338,31.5,67.9248091601589
62,-8.276175,-3.809972,3.754937,0.047647,-0.327118,0.531758,31.5,67.6019386675897
72,-8.327023,-3.777071,3.831507,0.062156,-0.320093,0.548557,31.47,67.2645302409942
82,-8.386245,-3.718446,3.909872,0.071624,-0.310167,0.556651,31.47,66.9159786856985
92,-8.451449,-3.643072,4.025326,0.075747,-0.296117,0.557415,31.46,66.3762437800769
102,-8.551949,-3.606582,4.088138,0.075595,-0.264963,0.529315,31.46,66.2280189142929
112,-8.605188,-3.571886,4.137789,0.061239,-0.248011,0.504575,31.46,66.0535713244693
122,-8.649456,-3.522833,4.184449,0.046273,-0.231365,0.471283,31.47,65.865471389924
132,-8.686545,-3.494119,4.214359,0.027336,-0.214566,0.430049,31.47,65.7670177859838
142,-8.729016,-3.470191,4.258626,0.004429,-0.198837,0.383318,31.43,65.6124306129288
152,-8.754142,-3.428915,4.278367,-0.022907,-0.183412,0.332463,31.43,65.5315291835638
162,-8.772088,-3.399603,4.292724,-0.054214,-0.168446,0.277486,31.44,65.473079510233
172,-8.755937,-3.381657,4.295715,-0.087201,-0.156076,0.220522,31.44,65.4083485993336
182,-8.764909,-3.3673,4.295117,-0.120799,-0.143553,0.163101,31.42,65.4187826195878
192,-8.741579,-3.347559,4.283751,-0.155007,-0.133321,0.10797,31.42,65.4095092003578
202,-8.721839,-3.339782,4.259823,-0.186925,-0.124464,0.054214,31.45,65.4816763277196
212,-8.688339,-3.337389,4.229314,-0.217315,-0.116981,0.004123,31.45,65.5625062311438
222,-8.655437,-3.337988,4.218546,-0.246026,-0.110261,-0.040164,31.47,65.5467032438868
232,-8.620144,-3.334399,4.19402,-0.270308,-0.104763,-0.07926,31.47,65.5927804769692
242,-8.582456,-3.332604,4.166502,-0.291535,-0.100335,-0.111025,31.46,65.6510063929247
252,-8.542377,-3.352345,4.150351,-0.310625,-0.09728,-0.138972,31.46,65.663983112563
262,-8.496913,-3.358925,4.109075,-0.324217,-0.094226,-0.158978,31.49,65.7850600663118
272,-8.451449,-3.394219,4.118048,-0.336281,-0.090561,-0.181122,31.49,65.6695657030604
282,-8.420941,-3.400799,4.099504,-0.352469,-0.082467,-0.184481,31.44,65.7055074205874
292,-8.409575,-3.439084,4.100101,-0.356745,-0.07758,-0.184023,31.46,65.7115659396628
302,-8.383853,-3.447459,4.091727,-0.3598,-0.072693,-0.180969,31.46,65.7066731582421
312,-8.362316,-3.467798,4.068995,-0.361785,-0.066279,-0.17486,31.44,65.7974389089347
322,-8.350951,-3.501896,4.057629,-0.360869,-0.060018,-0.166003,31.44,65.8635342988831
332,-8.357532,-3.525226,4.042076,-0.357051,-0.054214,-0.157909,31.46,65.9810764317342
342,-8.352147,-3.538387,4.025924,-0.352775,-0.049327,-0.147371,31.46,66.0666406649177
352,-8.342576,-3.582056,4.004389,-0.346819,-0.045968,-0.138972,31.46,66.1998021224981
362,-8.338388,-3.601796,3.993023,-0.338725,-0.043371,-0.127213,31.46,66.2690865371831
372,-8.335398,-3.638885,3.963711,-0.328493,-0.042913,-0.115148,31.44,66.4520127089962
382,-8.320443,-3.655635,3.935595,-0.317803,-0.044135,-0.102167,31.44,66.5849960627753
392,-8.307282,-3.684947,3.918845,-0.306196,-0.046578,-0.088575,31.46,66.6735169715902
402,-8.291131,-3.717848,3.896712,-0.292146,-0.049327,-0.071471,31.46,66.788201255854
412,-8.260622,-3.747759,3.878167,-0.278555,-0.053756,-0.052534,31.44,66.8516796243938
422,-8.259426,-3.761517,3.844668,-0.264505,-0.061087,-0.033139,31.44,67.0412556174126
432,-8.25464,-3.789633,3.833302,-0.250607,-0.069333,-0.010843,31.5,67.1187165260154
442,-8.243872,-3.830909,3.79741,-0.235794,-0.07926,0.012981,31.5,67.3280647031947
452,-8.257631,-3.846462,3.79741,-0.206167,-0.104305,0.062003,31.43,67.3706613396268
462,-8.2678,-3.87398,3.793222,-0.191048,-0.119119,0.084605,31.45,67.4395769014797
472,-8.275578,-3.885944,3.786044,-0.176998,-0.135001,0.105222,31.45,67.5048871392515
482,-8.298308,-3.900899,3.787838,-0.162796,-0.1518,0.125533,31.48,67.5548239214789
492,-8.303694,-3.905685,3.792026,-0.150578,-0.168904,0.142026,31.48,67.5477130147079
502,-8.321041,-3.915256,3.804588,-0.138208,-0.186314,0.156076,31.45,67.5243450231351
512,-8.339585,-3.923033,3.829114,-0.129045,-0.203418,0.164475,31.45,67.4383289236025
522,-8.35813,-3.929015,3.854837,-0.121257,-0.219148,0.168599,31.46,67.3447873441344
532,-8.376076,-3.93739,3.88056,-0.113774,-0.232892,0.169973,31.46,67.2528144043963
542,-8.414959,-3.942773,3.91406,-0.10965,-0.245873,0.165392,31.45,67.1596291576795
552,-8.417951,-3.936193,3.955336,-0.10797,-0.255494,0.157451,31.45,66.9436503703392
562,-8.432905,-3.940381,4.004389,-0.108734,-0.262214,0.14676,31.42,66.7223660035244
572,-8.421539,-3.934997,4.044468,-0.111941,-0.264199,0.133779,31.42,66.4861873241618
582,-8.422137,-3.921836,4.080361,-0.117439,-0.262519,0.117744,31.5,66.2890317843844
592,-8.408379,-3.918845,4.124628,-0.125075,-0.256563,0.101862,31.5,66.0291266366323
602,-8.389835,-3.900899,4.158726,-0.135307,-0.246026,0.085216,31.47,65.7971860491899
612,-8.375478,-3.888935,4.224528,-0.147219,-0.231823,0.069486,31.47,65.4167671885583
622,-8.325827,-3.872185,4.250251,-0.160505,-0.191048,0.04383,31.47,65.1616086861257
632,-8.318647,-3.867998,4.274778,-0.187994,-0.16753,0.034208,31.46,65.0159233466887
642,-8.303694,-3.858427,4.292724,-0.202044,-0.142484,0.026725,31.46,64.8816575767702
652,-8.273782,-3.832105,4.299902,-0.214414,-0.115454,0.02306,31.43,64.7525318369179
662,-8.255836,-3.826722,4.289135,-0.22602,-0.088575,0.022449,31.43,64.7629434037816
672,-8.239087,-3.814159,4.278367,-0.235489,-0.06185,0.024435,31.47,64.7687038167089
682,-8.244471,-3.806383,4.276572,-0.241444,-0.034667,0.029932,31.47,64.7819239956926
692,-8.236693,-3.796811,4.25085,-0.245262,-0.009468,0.037721,31.42,64.8880504218769
702,-8.223534,-3.786044,4.229912,-0.24679,0.013897,0.046426,31.42,64.9567119499431
712,-8.239684,-3.771089,4.198207,-0.242666,0.034514,0.057727,31.48,65.1419997143384
722,-8.228917,-3.765705,4.171886,-0.23503,0.052534,0.070708,31.48,65.2502382706997
732,-8.245069,-3.751946,4.135994,-0.224798,0.067653,0.085063,31.47,65.4594164762619
742,-8.253444,-3.750151,4.108477,-0.211054,0.079107,0.09896,31.47,65.6199642371006
752,-8.274979,-3.736991,4.088736,-0.194102,0.087812,0.112399,31.46,65.757115884914
762,-8.283952,-3.729214,4.072584,-0.174097,0.092241,0.124464,31.46,65.853649850143
772,-8.290532,-3.726223,4.042076,-0.153785,0.094837,0.137292,31.45,66.0252408747978
782,-8.318049,-3.717848,4.03071,-0.132558,0.096669,0.147829,31.45,66.1356394641851
792,-8.350951,-3.696313,4.040879,-0.11133,0.097128,0.163865,31.46,66.1317498694138
802,-8.377871,-3.678965,4.045067,-0.07422,0.096059,0.167683,31.46,66.1506808736883
812,-8.399406,-3.67418,4.042674,-0.059407,0.094837,0.168446,31.46,66.2043591187278
822,-8.399406,-3.665206,4.051049,-0.047342,0.093921,0.168904,31.44,66.1522502129038
832,-8.416754,-3.664608,4.058227,-0.039706,0.093004,0.16585,31.44,66.1509253442168
842,-8.437093,-3.656233,4.078567,-0.03543,0.092546,0.161574,31.43,66.0802420910276
852,-8.454441,-3.656233,4.08395,-0.035125,0.093004,0.157298,31.43,66.0889666760145
862,-8.456833,-3.638885,4.070191,-0.038943,0.093004,0.150731,31.48,66.149775413882
872,-8.459227,-3.638885,4.082754,-0.046884,0.092393,0.142179,31.48,66.0894774709692
882,-8.475378,-3.64068,4.081557,-0.057116,0.090866,0.135154,31.44,66.1314862746942
892,-8.481958,-3.649653,4.068397,-0.07025,0.088728,0.127976,31.44,66.2218537607005
902,-8.493324,-3.65384,4.057629,-0.085827,0.086437,0.12034,31.47,66.3054432792966
912,-8.498708,-3.658028,4.041477,-0.103389,0.082161,0.114232,31.47,66.4044278137331
922,-8.498708,-3.654438,4.039085,-0.121562,0.075442,0.106443,31.47,66.4136463292574
932,-8.500502,-3.668795,4.012764,-0.140346,0.067501,0.100182,31.47,66.5672634756875
942,-8.505288,-3.669394,3.984648,-0.159894,0.057269,0.092699,31.46,66.7243088938803
952,-8.501699,-3.667599,3.955336,-0.178831,0.04383,0.085216,31.46,66.8685271345798
962,-8.514261,-3.684947,3.903292,-0.196546,0.028558,0.078496,31.44,67.1821465679923
972,-8.520842,-3.701697,3.86381,-0.226326,-0.011454,0.065363,31.49,67.4174311135398
982,-8.505288,-3.705286,3.842873,-0.237932,-0.035125,0.058948,31.49,67.4996190809437
992,-8.504689,-3.713063,3.806981,-0.246179,-0.060781,0.052993,31.49,67.6946303381231
1002,-8.492725,-3.719045,3.768696,-0.250913,-0.089034,0.047342,31.49,67.8787995957159
1012,-8.492725,-3.718446,3.734598,-0.253204,-0.119119,0.041844,31.44,68.0593574615721
1022,-8.470592,-3.733402,3.716652,-0.251066,-0.151036,0.036652,31.44,68.1243909547912
1032,-8.472386,-3.733402,3.69392,-0.245415,-0.184481,0.031612,31.46,68.249159114385
1042,-8.455637,-3.733402,3.680759,-0.237016,-0.219301,0.029016,31.46,68.2868522906064
1052,-8.445468,-3.743571,3.667599,-0.224493,-0.253662,0.024893,31.45,68.3462719969594
1062,-8.443074,-3.734598,3.661617,-0.21029,-0.288481,0.021533,31.45,68.3659531057313
1072,-8.426923,-3.720839,3.67418,-0.193033,-0.322842,0.019395,31.48,68.2551756107906
1082,-8.398808,-3.737589,3.687938,-0.172722,-0.355829,0.018784,31.48,68.1407204147204
1092,-8.397013,-3.726821,3.713063,-0.152105,-0.385609,0.019242,31.47,67.9929399414258
1102,-8.374281,-3.722634,3.75075,-0.130267,-0.411876,0.021075,31.47,67.7420368684971
1112,-8.340183,-3.71725,3.784847,-0.108123,-0.433409,0.022449,31.5,67.4859137314659
1122,-8.321041,-3.705884,3.839882,-0.086743,-0.450208,0.025809,31.5,67.142163016495
1132,-8.27139,-3.701099,3.954139,-0.067501,-0.460592,0.031612,31.48,66.4255498175405
1142,-8.253444,-3.686144,4.009174,-0.04948,-0.462425,0.044135,31.48,66.081165705068
1152,-8.252247,-3.669394,4.079762,-0.021533,-0.455858,0.052534,31.46,65.6895542128053
1162,-8.228917,-3.66042,4.145566,-0.012217,-0.441961,0.060934,31.45,65.2836040574825
1172,-8.209177,-3.646662,4.205984,-0.006109,-0.423177,0.069944,31.45,64.9094984187326
1182,-8.198408,-3.652046,4.268795,-0.003207,-0.400269,0.07926,31.45,64.562853478956
1192,-8.188239,-3.638287,4.341179,-0.003665,-0.370642,0.088881,31.45,64.1498969022732
1202,-8.176873,-3.625126,4.386642,-0.006414,-0.337503,0.097433,31.44,63.8751468681179
1212,-8.166105,-3.618546,4.448257,-0.012981,-0.299782,0.105069,31.44,63.5258616783433
1222,-8.169695,-3.620341,4.499703,-0.022907,-0.258549,0.110567,31.46,63.2723723705426
1232,-8.17448,-3.61077,4.545764,-0.034361,-0.214108,0.11469,31.46,63.0385680212044
1242,-8.17448,-3.605386,4.580461,-0.048717,-0.16585,0.115301,31.46,62.8564564389885
1252,-8.182856,-3.610171,4.608576,-0.06353,-0.115759,0.11469,31.46,62.7389120914294
1262,-8.19781,-3.617948,4.640281,-0.080481,-0.064294,0.109803,31.46,62.6226341452813
1272,-8.207382,-3.618546,4.651049,-0.098655,-0.011148,0.102167,31.46,62.5918779508184
1282,-8.22772,-3.626921,4.658826,-0.117439,0.042608,0.091783,31.45,62.6100830283443
1292,-8.237292,-3.635894,4.662415,-0.135612,0.095906,0.076816,31.45,62.6242567725894
1302,-8.273782,-3.640081,4.628317,-0.153022,0.147982,0.059865,31.46,62.8861048617618
1312,-8.316854,-3.669394,4.609773,-0.170126,0.198989,0.017257,31.46,63.1101574963066
1322,-8.330612,-3.683152,4.564907,-0.200211,0.291994,-0.005803,31.47,63.3813354903732
1332,-8.356335,-3.698107,4.527221,-0.212428,0.332616,-0.031154,31.45,63.645072707272
1342,-8.368897,-3.713063,4.478168,-0.223424,0.368352,-0.056963,31.45,63.9359500854035
1352,-8.393424,-3.731009,4.418945,-0.232587,0.39859,-0.082467,31.45,64.3083478563919
1362,-8.391031,-3.74716,4.378268,-0.239306,0.423024,-0.105832,31.45,64.5253743523457
1372,-8.432307,-3.76391,4.307679,-0.244499,0.442266,-0.126296,31.48,64.9913799607245
1382,-8.4347,-3.781258,4.242475,-0.248164,0.454178,-0.14508,31.48,65.3463420578798
1392,-8.444869,-3.801597,4.17727,-0.250149,0.459829,-0.161421,31.44,65.7219807483185
1402,-8.459825,-3.814758,4.103093,-0.250455,0.457844,-0.173791,31.44,66.1480087305043
1412,-8.455039,-3.826722,4.036094,-0.248622,0.450208,-0.181274,31.45,66.496217159523
1422,-8.450851,-3.836293,3.952943,-0.244957,0.436158,-0.185245,31.45,66.9296305213737
1432,-8.443074,-3.847061,3.888935,-0.242361,0.415694,-0.183565,31.46,67.2591691351041
1442,-8.445468,-3.867399,3.814159,-0.237627,0.389121,-0.178067,31.46,67.6761136495595
1452,-8.443074,-3.862016,3.74058,-0.230907,0.356593,-0.167377,31.45,68.0561178029138
1462,-8.439486,-3.878766,3.680161,-0.222508,0.31933,-0.1518,31.45,68.3854865045369
1472,-8.420941,-3.888337,3.561717,-0.214261,0.276875,-0.131489,31.44,68.9932256027011
1482,-8.380861,-3.902096,3.503691,-0.203876,0.230907,-0.104916,31.44,69.2436428592801
1492,-8.368299,-3.893721,3.468396,-0.180358,0.127518,-0.043066,31.46,69.4046969685371
1502,-8.350951,-3.906283,3.424727,-0.166003,0.072998,-0.006872,31.44,69.6215083600806
1512,-8.344969,-3.908676,3.399603,-0.151189,0.017104,0.029322,31.44,69.7499485325329
1522,-8.327621,-3.902694,3.379862,-0.135918,-0.038637,0.067195,31.41,69.8213194280371
1532,-8.323434,-3.896712,3.376273,-0.118966,-0.093768,0.104763,31.41,69.8282568612032
1542,-8.315658,-3.896114,3.401397,-0.10232,-0.147371,0.140804,31.46,69.6755583098615
1552,-8.321639,-3.893721,3.419942,-0.08491,-0.198378,0.176235,31.46,69.5828563660754
1562,-8.322835,-3.882953,3.445665,-0.067806,-0.245415,0.207847,31.46,69.434965939484
1572,-8.332406,-3.871587,3.47378,-0.050549,-0.287412,0.235641,31.46,69.2893700864233
1582,-8.32463,-3.867399,3.518646,-0.03375,-0.325286,0.260381,31.47,69.0265967930096
1592,-8.337193,-3.852444,3.575475,-0.017868,-0.359189,0.280234,31.47,68.7287463770745
1602,-8.353344,-3.836293,3.625126,-0.002291,-0.386678,0.294284,31.46,68.477101214603
1612,-8.368299,-3.822534,3.694518,0.011301,-0.40928,0.3036,31.46,68.1207115333067
1622,-8.378469,-3.81057,3.756732,0.024129,-0.425926,0.308334,31.41,67.7971949068749
1632,-8.369495,-3.793222,3.825525,0.036194,-0.437074,0.308334,31.41,67.3971819906016
1642,-8.390432,-3.775276,3.906283,0.045357,-0.441961,0.303295,31.44,66.9955860868155
1652,-8.401799,-3.751946,4.04746,0.051465,-0.440434,0.293215,31.44,66.2567314360002
1662,-8.406584,-3.732804,4.119244,0.057727,-0.417068,0.264657,31.42,65.8753564217313
1672,-8.41436,-3.716054,4.180261,0.0562,-0.396452,0.245262,31.47,65.5603230944587
1682,-8.420941,-3.697509,4.237091,0.051771,-0.371253,0.223882,31.47,65.2641786369375
1692,-8.402397,-3.681358,4.286144,0.044288,-0.341932,0.199295,31.46,64.9565023655307
1702,-8.410771,-3.658626,4.326224,0.035125,-0.31032,0.175013,31.46,64.7479482848229
1712,-8.405987,-3.64726,4.368696,0.022907,-0.2755,0.149204,31.45,64.5096654202245
1722,-8.405388,-3.637689,4.402196,0.008705,-0.238696,0.124158,31.45,64.32859949826
1732,-8.405987,-3.632305,4.423731,-0.008247,-0.200975,0.099266,31.46,64.2153742638974
1742,-8.405987,-3.611966,4.430909,-0.025504,-0.163101,0.076511,31.46,64.1592126022958
1752,-8.4012,-3.605386,4.443472,-0.04444,-0.126907,0.05284,31.46,64.0782941204242
1762,-8.409575,-3.588636,4.436294,-0.064141,-0.09163,0.033292,31.46,64.1174260396121
1772,-8.407781,-3.584448,4.430311,-0.084758,-0.058032,0.015119,31.46,64.1396810484344
1782,-8.401799,-3.570091,4.402196,-0.104,-0.027489,-0.003971,31.46,64.2552711799929
1792,-8.395219,-3.573082,4.372883,-0.123547,-0.000916,-0.01909,31.46,64.3927757084601
1802,-8.415558,-3.568297,4.342375,-0.140957,0.021991,-0.031612,31.46,64.5897683759176
1812,-8.409575,-3.577868,4.322634,-0.156534,0.042302,-0.043982,31.45,64.6865317797327
1822,-8.403594,-3.583252,4.253242,-0.170584,0.058796,-0.053909,31.45,65.0349433688042
1832,-8.413164,-3.576073,4.216154,-0.182496,0.082009,-0.070097,31.47,65.2407010923972
1842,-8.404789,-3.578466,4.191627,-0.198837,0.090408,-0.076969,31.43,65.3515062355301
1852,-8.4012,-3.588037,4.164708,-0.205098,0.096669,-0.082009,31.43,65.4922087349894
1862,-8.383254,-3.595814,4.149753,-0.208152,0.101709,-0.086896,31.43,65.5381371843022
1872,-8.38804,-3.602395,4.119244,-0.209832,0.105832,-0.09163,31.43,65.7135759178126
1882,-8.376076,-3.610171,4.1007,-0.208916,0.108887,-0.094379,31.47,65.7917626931171
1892,-8.373085,-3.627519,4.084548,-0.206625,0.112552,-0.097586,31.47,65.8859086181875
1902,-8.350353,-3.643671,4.071986,-0.202807,0.115454,-0.099418,31.45,65.9179457212572
1912,-8.359925,-3.649055,4.061816,-0.196546,0.11973,-0.101098,31.45,65.9968065849132
1922,-8.344371,-3.669992,4.056432,-0.190437,0.122937,-0.102931,31.45,66.0113989184921
1932,-8.337193,-3.677171,4.041477,-0.181885,0.126907,-0.102778,31.45,66.0813451276686
1942,-8.320443,-3.695715,4.034897,-0.173791,0.131641,-0.099724,31.43,66.0977308858515
1952,-8.312666,-3.714259,4.022335,-0.164475,0.135918,-0.098197,31.43,66.1648712041291
1962,-8.288737,-3.72383,4.023531,-0.154549,0.141568,-0.09331,31.46,66.1168033823651
1972,-8.288737,-3.754339,4.012166,-0.145844,0.146302,-0.08827,31.46,66.2059399333075
1982,-8.27139,-3.760321,3.991827,-0.135918,0.151342,-0.081092,31.41,66.2823459450608
1992,-8.272586,-3.769892,3.969693,-0.126602,0.156687,-0.070708,31.41,66.4111300269038
2002,-8.2678,-3.795615,3.949354,-0.117592,0.160047,-0.046578,31.41,66.5334864066042
2012,-8.2678,-3.808775,3.935595,-0.100793,0.164017,-0.032529,31.49,66.6190527748364
2022,-8.274979,-3.827918,3.900301,-0.09331,0.161268,-0.018021,31.49,66.8395687421216
2032,-8.289336,-3.835097,3.882953,-0.086896,0.156076,-0.002443,31.45,66.968079286637
2042,-8.29472,-3.844069,3.847061,-0.081551,0.147982,0.014661,31.45,67.1784477990397
2052,-8.316854,-3.870391,3.824927,-0.075747,0.136528,0.031765,31.48,67.3657348992411
2062,-8.338388,-3.865007,3.800999,-0.071013,0.11973,0.048258,31.48,67.5312378720108
2072,-8.362316,-3.870989,3.784249,-0.067195,0.09896,0.064446,31.48,67.6735180911987
2082,-8.378469,-3.872185,3.759125,-0.063988,0.0759,0.079107,31.48,67.840244709104
2092,-8.41436,-3.875176,3.719045,-0.060781,0.048869,0.092393,31.45,68.1265662332891
2102,-8.443673,-3.885346,3.713661,-0.05849,0.018326,0.103542,31.45,68.2210232332522
2112,-8.463414,-3.882953,3.701099,-0.055741,-0.015424,0.113316,31.49,68.3236627239083
2122,-8.480762,-3.890131,3.692724,-0.053603,-0.051618,0.121562,31.49,68.4076679887652
2132,-8.487941,-3.881158,3.674777,-0.05116,-0.090255,0.125686,31.45,68.5088558045215
2142,-8.508877,-3.876373,3.675375,-0.048106,-0.129656,0.128282,31.45,68.5413248047681
2152,-8.522038,-3.868596,3.665804,-0.045357,-0.168904,0.129045,31.45,68.6103703558247
2162,-8.536395,-3.854239,3.692126,-0.043982,-0.20861,0.126449,31.45,68.4857439458444
2172,-8.548359,-3.848257,3.73041,-0.040317,-0.247248,0.124006,31.46,68.3010810603603
2182,-8.526226,-3.831507,3.762115,-0.036805,-0.316581,0.111483,31.46,68.0766917944557
2192,-8.516654,-3.821936,3.802195,-0.034667,-0.346208,0.103542,31.46,67.8384839782456
2202,-8.501699,-3.806383,3.850052,-0.033139,-0.370032,0.094073,31.42,67.5436301615902
2212,-8.483154,-3.802195,3.897908,-0.03146,-0.387899,0.085216,31.42,67.2517846392337
2222,-8.470592,-3.78724,3.957131,-0.031612,-0.399506,0.074678,31.43,66.9029587224235
2232,-8.419147,-3.77049,4.022335,-0.030849,-0.40424,0.064141,31.43,66.4413259707975
2242,-8.38445,-3.760321,4.067799,-0.031307,-0.402255,0.054062,31.45,66.1220835420098
2252,-8.368299,-3.736392,4.126423,-0.033292,-0.393245,0.045204,31.45,65.7599152531959
2262,-8.346166,-3.725027,4.173083,-0.035277,-0.376751,0.037874,31.45,65.4591260807124
2272,-8.315658,-3.711866,4.22393,-0.037263,-0.354607,0.031612,31.45,65.1163638902302
2282,-8.280961,-3.705286,4.275974,-0.039401,-0.326966,0.026267,31.45,64.7640445058992
2292,-8.253444,-3.684947,4.312464,-0.042608,-0.293979,0.023824,31.45,64.493683189525
2302,-8.228917,-3.674777,4.343571,-0.044593,-0.258549,0.023366,31.43,64.2674346144531
2312,-8.209177,-3.67418,4.377669,-0.045815,-0.219911,0.02474,31.43,64.0460657559143
2323,-8.185846,-3.644269,4.40399,-0.048106,-0.178831,0.026878,31.46,63.8261236946437
2332,-8.175676,-3.652644,4.419543,-0.049022,-0.136528,0.029169,31.46,63.7311613119236
2342,-8.166105,-3.644867,4.436294,-0.049022,-0.093157,0.034056,31.44,63.6146910975309
2352,-8.159525,-3.642474,4.441079,-0.048869,-0.007025,0.043677,31.44,63.5722564916227
2362,-8.154739,-3.63051,4.438088,-0.047342,0.036652,0.049022,31.44,63.5640075041304
2372,-8.163115,-3.634698,4.435097,-0.046578,0.077885,0.053298,31.45,63.6033109823507
2382,-8.194819,-3.644269,4.415356,-0.045968,0.117744,0.056963,31.45,63.788385026086
2392,-8.215158,-3.641278,4.400401,-0.044899,0.155312,0.059254,31.45,63.9091647687202
2402,-8.235497,-3.641876,4.376472,-0.044288,0.191354,0.060628,31.45,64.0795661565081
2412,-8.255239,-3.633501,4.360919,-0.044135,0.224035,0.060323,31.43,64.1962696971729
2422,-8.280961,-3.649055,4.326822,-0.044593,0.25244,0.058032,31.43,64.4457361678022
2432,-8.306684,-3.650849,4.293322,-0.045204,0.27718,0.05284,31.44,64.677993764862
2442,-8.352147,-3.653242,4.261617,-0.046884,0.29688,0.045815,31.44,64.9449014296566
2452,-8.387442,-3.669394,4.22094,-0.049022,0.311999,0.035583,31.46,65.2477445020537
2462,-8.412566,-3.672385,4.188038,-0.052382,0.321926,0.025198,31.46,65.4750080435135
2472,-8.447262,-3.690929,4.149753,-0.056047,0.326507,0.011912,31.41,65.7646786810405
2482,-8.474779,-3.686741,4.1007,-0.060628,0.325897,-0.001833,31.41,66.0729335352708
2492,-8.49452,-3.695116,4.045665,-0.065821,0.319941,-0.016493,31.43,66.4073705510503
2502,-8.510672,-3.715455,4.021138,-0.071166,0.309709,-0.032376,31.43,66.5865986247628
2512,-8.52144,-3.714857,3.924229,-0.076664,0.294895,-0.046578,31.45,67.1133042525393
2522,-8.547162,-3.732205,3.888935,-0.082772,0.274737,-0.072693,31.45,67.3649598414166
2532,-8.545368,-3.743571,3.835695,-0.09331,0.222202,-0.08323,31.45,67.650439279443
2542,-8.548359,-3.756134,3.794419,-0.098502,0.191048,-0.09163,31.44,67.884292308566
2552,-8.534002,-3.756134,3.751946,-0.102778,0.156534,-0.097891,31.44,68.0803991959634
2562,-8.526226,-3.76391,3.722634,-0.105374,0.119882,-0.100029,31.46,68.2271646353394
2572,-8.509476,-3.766901,3.691527,-0.107207,0.08094,-0.100335,31.46,68.3625372585313
2582,-8.481958,-3.767499,3.671188,-0.108276,0.040317,-0.096669,31.45,68.4183330676776
2592,-8.467602,-3.771089,3.655036,-0.108123,-0.002443,-0.089339,31.45,68.4800421174003
2602,-8.437093,-3.768098,3.629912,-0.105985,-0.045051,-0.078954,31.44,68.5533645246794
2612,-8.412566,-3.772883,3.632305,-0.10232,-0.08659,-0.064752,31.44,68.4972911535674
2622,-8.389835,-3.77408,3.641278,-0.097433,-0.128434,-0.049327,31.46,68.4059727486203
2632,-8.367103,-3.778267,3.644269,-0.091783,-0.167683,-0.031765,31.46,68.3492710402042
2642,-8.342576,-3.780062,3.659822,-0.083841,-0.20296,-0.01069,31.42,68.2189865836052
2652,-8.316256,-3.767499,3.689733,-0.075595,-0.236405,0.011301,31.42,67.9944211097574
2662,-8.297112,-3.769294,3.721437,-0.065668,-0.264963,0.032987,31.42,67.7869250562004
2672,-8.289336,-3.760919,3.755535,-0.055283,-0.288328,0.054367,31.42,67.5800536638732
2682,-8.266006,-3.763312,3.789035,-0.043524,-0.306043,0.073609,31.47,67.3547909285676
2692,-8.271988,-3.756134,3.877569,-0.030085,-0.318414,0.092241,31.47,66.886362051318
2702,-8.264212,-3.742374,3.932604,-0.004734,-0.328035,0.119424,31.43,66.5640174188943
2712,-8.266006,-3.742374,3.975675,0.006872,-0.325897,0.128434,31.46,66.3392178866323
2722,-8.26481,-3.733402,4.035496,0.0197,-0.31765,0.135307,31.46,66.0118588184704
2732,-8.265409,-3.73041,4.077968,0.031612,-0.305433,0.138056,31.45,65.7866489121252
2742,-8.276773,-3.720839,4.137789,0.042608,-0.288481,0.136528,31.45,65.4883731145759
2752,-8.279764,-3.709473,4.180261,0.051924,-0.267101,0.132252,31.41,65.2621428164985
2762,-8.292327,-3.692724,4.219144,0.059407,-0.242666,0.125686,31.41,65.0711196204359
2772,-8.295319,-3.688536,4.266403,0.065057,-0.214719,0.116217,31.46,64.8288118010792
2782,-8.298308,-3.690929,4.311867,0.06857,-0.184481,0.104153,31.46,64.6032938845428
2792,-8.300103,-3.685545,4.328616,0.069639,-0.151189,0.090866,31.44,64.5157896456404
2802,-8.31446,-3.67418,4.361517,0.06857,-0.116217,0.076053,31.44,64.3678523667172
2812,-8.335996,-3.666403,4.380062,0.065363,-0.08094,0.059254,31.46,64.3136906291854
2822,-8.344969,-3.667599,4.39083,0.059407,-0.044593,0.043524,31.46,64.2800819544093
2832,-8.343773,-3.659822,4.404588,0.051924,-0.008552,0.027489,31.45,64.1995333284399
2842,-8.356335,-3.655036,4.408776,0.041997,0.026114,0.01069,31.45,64.2018061083121
2852,-8.368299,-3.649653,4.409374,0.029474,0.05849,-0.004734,31.45,64.2204294982938
2862,-8.39821,-3.662215,4.377669,0.01573,0.088575,-0.020617,31.45,64.4611304415916
2872,-8.39462,-3.664608,4.362116,0,0.138972,-0.045968,31.41,64.534702664219
2882,-8.405987,-3.669992,4.341777,-0.033139,0.160047,-0.057269,31.46,64.6689002286335
2892,-8.413763,-3.663411,4.323233,-0.050549,0.176998,-0.066432,31.46,64.7744389718909
2902,-8.418548,-3.680759,4.293322,-0.068264,0.190285,-0.073915,31.41,64.9545722386096
2912,-8.422735,-3.693322,4.269992,-0.084147,0.201127,-0.08094,31.41,65.0952331495748
2922,-8.418548,-3.688536,4.240082,-0.099418,0.209985,-0.084758,31.44,65.2350740956751
2932,-8.415558,-3.695715,4.208975,-0.113621,0.215788,-0.088728,31.44,65.3955112452005
2942,-8.426923,-3.702893,4.177869,-0.127365,0.220064,-0.092088,31.43,65.5871855029743
2952,-8.425727,-3.719045,4.143172,-0.137903,0.223424,-0.094531,31.43,65.7791343529585
2962,-8.427522,-3.726821,4.107878,-0.147066,0.224951,-0.097738,31.48,65.9730740804394
2972,-8.403594,-3.742374,4.088138,-0.153785,0.225562,-0.097738,31.48,66.0396268102871
2982,-8.421539,-3.753142,4.041477,-0.157756,0.224188,-0.099418,31.45,66.3303304333775
2992,-8.403594,-3.765106,4.010969,-0.159283,0.221439,-0.100793,31.45,66.4633778955846
3002,-8.412566,-3.766901,3.968496,-0.158214,0.216399,-0.100487,31.43,66.7060391929726
3012,-8.407183,-3.783651,3.942773,-0.153938,0.20861,-0.101404,31.43,66.8454461342759
3022,-8.410173,-3.801597,3.908078,-0.147524,0.19792,-0.101556,31.43,67.0505181182284
3032,-8.397013,-3.803392,3.830311,-0.137445,0.184329,-0.099266,31.43,67.436374749397
3042,-8.387442,-3.815954,3.809374,-0.125227,0.167072,-0.093157,31.45,67.539707396979
3052,-8.377273,-3.826123,3.776472,-0.095295,0.125075,-0.087965,31.45,67.7036570089671
3062,-8.374879,-3.824329,3.757928,-0.077885,0.102014,-0.08094,31.45,67.7961251517375
3072,-8.367103,-3.822534,3.736991,-0.060476,0.077427,-0.072235,31.43,67.8909330863946
3082,-8.349755,-3.824927,3.719045,-0.041844,0.053145,-0.061545,31.43,67.9549078454004
3092,-8.342576,-3.826123,3.71725,-0.02474,0.028253,-0.048258,31.45,67.9514438367053
3102,-8.316854,-3.82732,3.706482,-0.007789,0.003971,-0.032681,31.45,67.9595294899422
3112,-8.309675,-3.823731,3.710072,0.009774,-0.020617,-0.014813,31.45,67.9227409573479
3122,-8.312666,-3.816552,3.714857,0.025198,-0.044899,0.003512,31.45,67.8963951363455
3132,-8.304291,-3.799204,3.710072,0.039554,-0.069944,0.02306,31.43,67.88970349889
3142,-8.310871,-3.817749,3.72383,0.052687,-0.09499,0.04444,31.43,67.8456877522144
3152,-8.319246,-3.801597,3.736392,0.065057,-0.120493,0.066279,31.45,67.7801575484409
3162,-8.310272,-3.798008,3.741179,0.07422,-0.145844,0.086437,31.45,67.7332555121079
3172,-8.325229,-3.789633,3.765106,0.082772,-0.170279,0.10736,31.5,67.627238013778
3182,-8.339585,-3.775874,3.789035,0.087201,-0.194713,0.126449,31.5,67.5155282098145
3192,-8.331809,-3.766901,3.809374,0.091324,-0.217163,0.144164,31.47,67.3829723905962
3202,-8.338987,-3.759723,3.839284,0.09331,-0.238085,0.159436,31.47,67.231480702627
3212,-8.366504,-3.738786,3.920042,0.093462,-0.257327,0.171959,31.41,66.8401924004139
3222,-8.371889,-3.728616,3.956532,0.088423,-0.287259,0.189368,31.46,66.6493747616957
3232,-8.386245,-3.712464,4.00379,0.083078,-0.296575,0.193033,31.46,66.4158589813905
3242,-8.38804,-3.702893,4.03729,0.078191,-0.302836,0.193644,31.48,66.235176749663
3252,-8.401799,-3.703491,4.082156,0.069791,-0.305891,0.190132,31.48,66.0305238153186
3262,-8.400601,-3.690929,4.135994,0.061239,-0.304974,0.182801,31.43,65.7362311236527
3272,-8.397612,-3.668197,4.168297,0.05284,-0.298408,0.172875,31.43,65.5408889144516
3282,-8.4012,-3.671188,4.205386,0.04444,-0.287718,0.160352,31.5,65.3596682466831
3292,-8.400601,-3.669394,4.243671,0.034667,-0.272751,0.143248,31.5,65.1592948135075
3302,-8.38804,-3.644867,4.294518,0.024893,-0.253204,0.124617,31.43,64.8468621006994
3312,-8.394022,-3.641876,4.32742,0.01573,-0.229533,0.103847,31.43,64.688611259234
3322,-8.383254,-3.633501,4.349553,0.007178,-0.201738,0.08094,31.49,64.5433434592932
3332,-8.374281,-3.61735,4.371089,-0.001833,-0.171806,0.056352,31.49,64.3975366409027
3342,-8.376674,-3.61735,4.394419,-0.009316,-0.139277,0.031765,31.44,64.2838776683613
3352,-8.350951,-3.612564,4.409972,-0.016646,-0.104305,0.009163,31.44,64.1417491925903
3362,-8.349755,-3.619144,4.409374,-0.023366,-0.067959,-0.01405,31.45,64.1485472750432
3372,-8.344969,-3.611368,4.41416,-0.029169,-0.030391,-0.036805,31.45,64.1056388002637
3382,-8.335996,-3.602395,4.412365,-0.034208,0.00733,-0.056047,31.41,64.0855646125625
3392,-8.318049,-3.605984,4.400401,-0.03879,0.078191,-0.090713,31.41,64.1093641147465
3402,-8.322835,-3.602993,4.389633,-0.046731,0.111941,-0.104458,31.42,64.1724030175364
3412,-8.323434,-3.602395,4.370491,-0.049786,0.143095,-0.11637,31.47,64.2712334728267
3422,-8.323434,-3.611966,4.356732,-0.052993,0.17318,-0.124617,31.47,64.3511964400943
3432,-8.321041,-3.612564,4.335197,-0.056352,0.199906,-0.130267,31.44,64.4569993359272
3442,-8.327621,-3.611368,4.31067,-0.059559,0.223729,-0.134696,31.44,64.5968515475227
3452,-8.325827,-3.616751,4.278965,-0.06353,0.245568,-0.136223,31.47,64.7615833145025
3462,-8.32463,-3.621537,4.252046,-0.066737,0.264199,-0.136834,31.47,64.9027257389372
3472,-8.3348,-3.632903,4.22094,-0.070555,0.27886,-0.135612,31.48,65.0973426374251
3482,-8.337791,-3.641278,4.185645,-0.07422,0.291688,-0.132405,31.48,65.2951666478862
3492,-8.337791,-3.653242,4.152744,-0.077733,0.301004,-0.129809,31.45,65.4778033840869
3502,-8.34138,-3.658626,4.130012,-0.080787,0.308029,-0.123853,31.45,65.6092435247407
3512,-8.35155,-3.684349,4.089334,-0.083078,0.31261,-0.118202,31.43,65.8679845365679
3522,-8.35454,-3.68375,4.05404,-0.085216,0.314137,-0.111483,31.43,66.0585612407206
3532,-8.353344,-3.705884,4.017549,-0.086437,0.312458,-0.105832,31.45,66.268288506137
3542,-8.348558,-3.716652,3.984648,-0.088117,0.307571,-0.099418,31.45,66.4413854361838
3552,-8.349156,-3.728018,3.912863,-0.087965,0.302684,-0.091477,31.46,66.8323780229699
3562,-8.370093,-3.766901,3.883551,-0.086437,0.280998,-0.076664,31.46,67.0664851492185
3572,-8.38146,-3.778865,3.851846,-0.080329,0.26649,-0.070402,31.47,67.2685345761013
3582,-8.386245,-3.783053,3.816552,-0.076053,0.24908,-0.061392,31.46,67.4693146301476
3592,-8.39462,-3.79382,3.786044,-0.069944,0.229227,-0.053603,31.46,67.658016118666
3602,-8.4012,-3.818945,3.766901,-0.06353,0.205556,-0.046884,31.45,67.7955528494938
3612,-8.407781,-3.833302,3.744768,-0.055741,0.180969,-0.039401,31.45,67.9392365535407
3622,-8.42453,-3.834498,3.722634,-0.048564,0.152564,-0.033445,31.45,68.0909915754335
3632,-8.427522,-3.838686,3.699902,-0.039706,0.122478,-0.026267,31.45,68.2217230349121
3642,-8.439486,-3.84048,3.686144,-0.031307,0.090866,-0.019853,31.46,68.3198664867554
3652,-8.438888,-3.858427,3.665206,-0.022297,0.057879,-0.012675,31.46,68.4462531117283
3662,-8.446067,-3.862016,3.659822,-0.012981,0.022602,-0.006872,31.48,68.4919090714963
3672,-8.461619,-3.866203,3.649055,-0.003818,-0.012217,-0.001374,31.48,68.5827353135737
3682,-8.461619,-3.866203,3.652644,0.005498,-0.049327,0.005651,31.45,68.5635811526301
3692,-8.475378,-3.866802,3.647858,0.014661,-0.085827,0.012981,31.45,68.6158117224017
3702,-8.464012,-3.863212,3.663411,0.023213,-0.122173,0.019395,31.43,68.5081103724365
3712,-8.472985,-3.860221,3.666403,0.030391,-0.160047,0.02474,31.43,68.5066932220815
3722,-8.467003,-3.852444,3.690331,0.036805,-0.194713,0.032834,31.43,68.3610446098693
3732,-8.461619,-3.843472,3.722634,0.042608,-0.229533,0.046426,31.43,68.1710223202425
3742,-8.455637,-3.830909,3.751348,0.053145,-0.292146,0.052534,31.45,67.9958515578836
3752,-8.449656,-3.819543,3.786642,0.056658,-0.319941,0.058796,31.45,67.7869428333463
3762,-8.432307,-3.812963,3.820141,0.059712,-0.343764,0.065057,31.45,67.5693943920413
3772,-8.427522,-3.80399,3.874578,0.061239,-0.363465,0.070555,31.47,67.2642506492898
3782,-8.408379,-3.78724,3.911069,0.061239,-0.378126,0.075595,31.47,67.0179476392096
3792,-8.388638,-3.771687,3.948756,0.061697,-0.387899,0.079412,31.42,66.7648420686101
3802,-8.359326,-3.756732,4.009174,0.060323,-0.391717,0.081856,31.42,66.3725830840112
3812,-8.357532,-3.744768,4.064807,0.05849,-0.38851,0.082925,31.45,66.066145920793
3822,-8.337193,-3.734598,4.121637,0.055741,-0.379042,0.083994,31.45,65.7164962947161
3832,-8.328817,-3.731607,4.180261,0.051465,-0.364534,0.08262,31.47,65.3906797034567
3842,-8.303095,-3.711268,4.22752,0.046578,-0.344375,0.079565,31.47,65.0695988629418
3852,-8.289934,-3.698706,4.265206,0.041233,-0.318108,0.075289,31.44,64.8331023882283
3862,-8.271988,-3.686741,4.306482,0.036346,-0.287412,0.070402,31.44,64.567994482127
3872,-8.258827,-3.677768,4.348357,0.030849,-0.252135,0.063988,31.46,64.3135686977877
3882,-8.242676,-3.662215,4.380062,0.025045,-0.214108,0.054978,31.46,64.0980963192133
3892,-8.232506,-3.659822,4.413561,0.018937,-0.173638,0.045968,31.46,63.9003886639257
3902,-8.218149,-3.656831,4.442276,0.013744,-0.130725,0.036805,31.46,63.7170999226783
3912,-8.208578,-3.652046,4.456034,0.004581,-0.041692,0.016646,31.46,63.619580825456
3922,-8.216354,-3.650849,4.458427,0.000305,0.003512,0.006567,31.47,63.6241323246632
3932,-8.217552,-3.64068,4.444668,-0.002902,0.047953,-0.003818,31.47,63.6868801831265
3942,-8.218149,-3.643671,4.426124,-0.005192,0.091477,-0.012065,31.46,63.7863835051847
3952,-8.229516,-3.635894,4.426124,-0.008399,0.132252,-0.020617,31.46,63.8046755804184
3962,-8.228917,-3.646064,4.418945,-0.010385,0.173028,-0.028711,31.43,63.8504831238835
3972,-8.243872,-3.656233,4.392026,-0.010996,0.209679,-0.035736,31.43,64.033295568868
3982,-8.260622,-3.661617,4.359723,-0.012675,0.243277,-0.041233,31.47,64.2429001706638
3992,-8.274381,-3.662813,4.34058,-0.013439,0.273668,-0.04612,31.47,64.3737406698849
4002,-8.291131,-3.662813,4.293322,-0.014813,0.299629,-0.050244,31.43,64.6550059869941
4012,-8.310272,-3.677171,4.266403,-0.015882,0.321773,-0.053756,31.43,64.850805512757
4022,-8.320443,-3.672983,4.233501,-0.01741,0.340252,-0.053756,31.46,65.0393744469238
4032,-8.356335,-3.684349,4.180261,-0.020159,0.353233,-0.054825,31.46,65.404819152494
4042,-8.367103,-3.698107,4.149753,-0.021838,0.361785,-0.055436,31.44,65.5996195100732
4052,-8.393424,-3.692724,4.106682,-0.023671,0.365297,-0.055894,31.44,65.8749151304405
4062,-8.405388,-3.717848,4.066602,-0.025809,0.364839,-0.0562,31.48,66.1325828039461
4072,-8.420342,-3.729812,3.979862,-0.028253,0.359647,-0.055131,31.48,66.6283843244106
4082,-8.455637,-3.728616,3.94397,-0.031612,0.336281,-0.054062,31.45,66.888196260006
4092,-8.466404,-3.742374,3.899703,-0.036346,0.319024,-0.053145,31.47,67.154932950391
4102,-8.477173,-3.737589,3.859025,-0.038637,0.297186,-0.053145,31.47,67.3864981730995
4112,-8.492725,-3.747759,3.814758,-0.040317,0.271071,-0.054367,31.45,67.6600328797965
4122,-8.493923,-3.75733,3.785445,-0.042608,0.243277,-0.053603,31.45,67.8256976892939
4132,-8.504092,-3.760321,3.743571,-0.042608,0.210901,-0.05284,31.45,68.0700233909775
4142,-8.502296,-3.77049,3.712464,-0.041539,0.175318,-0.053298,31.45,68.2404084904137
4152,-8.513663,-3.763312,3.68375,-0.041539,0.137292,-0.053603,31.46,68.4089288061263
4162,-8.502296,-3.768696,3.668795,-0.040623,0.097891,-0.05284,31.46,68.4712971165892
4172,-8.506484,-3.768098,3.655635,-0.03711,0.057421,-0.051465,31.43,68.5490092704993
4182,-8.496315,-3.771089,3.641876,-0.033598,0.015272,-0.050396,31.43,68.6055365483893
4192,-8.490333,-3.772883,3.642474,-0.028253,-0.026725,-0.047647,31.47,68.5924145707899
4202,-8.470592,-3.757928,3.641876,-0.022755,-0.069639,-0.045509,31.47,68.5449752634272
4212,-8.463414,-3.771089,3.651447,-0.015882,-0.110261,-0.04215,31.44,68.4911771861535
4222,-8.449057,-3.765705,3.662215,-0.008399,-0.148898,-0.036041,31.44,68.4011645870612
4232,-8.434101,-3.769892,3.672385,-0.000764,-0.184634,-0.029932,31.48,68.3213134328921
4242,-8.404191,-3.77049,3.735196,0.008399,-0.216704,-0.024435,31.48,67.9272510801379
4252,-8.362915,-3.756134,3.77049,0.016188,-0.243888,-0.004887,31.46,67.6436433727801
4262,-8.357532,-3.747759,3.809972,0.033598,-0.285427,0.005192,31.45,67.4144250494383
4272,-8.328817,-3.738187,3.852444,0.04215,-0.299629,0.015577,31.45,67.1207888547176
4282,-8.33121,-3.741179,3.896114,0.050091,-0.308792,0.027031,31.46,66.8962613483094
4292,-8.30788,-3.735196,3.953541,0.057421,-0.313985,0.037415,31.46,66.5377459589103
4302,-8.289934,-3.729812,3.991827,0.064752,-0.313374,0.047647,31.45,66.2923833960885
4312,-8.273782,-3.712464,4.045067,0.070097,-0.308792,0.057421,31.45,65.9604307989325
4324,-8.266006,-3.711866,4.095914,0.076053,-0.299782,0.064752,31.45,65.6756397343253
4332,-8.2678,-3.711866,4.138387,0.079565,-0.28619,0.072388,31.45,65.4569421673054
4342,-8.26481,-3.698706,4.181458,0.081856,-0.267254,0.077885,31.44,65.2125090984185
4352,-8.255836,-3.696911,4.225127,0.082772,-0.244652,0.081703,31.44,64.9635162506087
4362,-8.25464,-3.695715,4.274778,0.082314,-0.21869,0.082467,31.47,64.702027260203
4372,-8.265409,-3.679563,4.296313,0.08094,-0.188146,0.08262,31.47,64.5985910392609
4382,-8.273782,-3.679563,4.334598,0.077733,-0.155771,0.07926,31.44,64.4199401579095
4392,-8.270791,-3.678366,4.34417,0.073762,-0.120951,0.07422,31.44,64.3627387094707
4402,-8.280362,-3.675974,4.372285,0.06918,-0.085674,0.065515,31.43,64.2375304297874
4412,-8.300103,-3.677768,4.380062,0.062003,-0.048717,0.056047,31.43,64.2440989121068
4422,-8.333604,-3.671786,4.372883,0.054672,-0.012065,0.044593,31.45,64.3503335750386
4432,-8.34796,-3.67059,4.362116,0.039095,0.058185,0.016952,31.45,64.4364006718777
4442,-8.359326,-3.667599,4.356732,0.030238,0.090103,-0.000458,31.49,64.486409411201
4452,-8.377273,-3.679563,4.341777,0.021228,0.119271,-0.016799,31.43,64.6145278030713
4462,-8.390432,-3.680161,4.322634,0.012065,0.145691,-0.033139,31.43,64.7421402029043
4472,-8.413164,-3.691527,4.293921,0.003665,0.168752,-0.050244,31.45,64.9500436322129
4482,-8.428718,-3.689733,4.260421,-0.005192,0.188605,-0.066737,31.45,65.1539006595711
4492,-8.4347,-3.695715,4.234698,-0.01405,0.20464,-0.082772,31.43,65.3045637648368
4502,-8.450851,-3.699304,4.213162,-0.021533,0.216399,-0.097891,31.43,65.4534238960277
4512,-8.449057,-3.707081,4.186243,-0.028711,0.224798,-0.110567,31.45,65.5953676723291
4522,-8.450851,-3.710072,4.163511,-0.036041,0.229685,-0.122631,31.45,65.7191618971991
4532,-8.450851,-3.718446,4.124628,-0.041539,0.232129,-0.130725,31.46,65.9278358403839
4542,-8.453244,-3.725625,4.091727,-0.046273,0.231212,-0.138666,31.46,66.1099466682066
4552,-8.462815,-3.732205,4.062415,-0.050396,0.228616,-0.143706,31.44,66.2881648183279
4562,-8.434101,-3.74716,4.03729,-0.054672,0.223119,-0.146302,31.44,66.3727957162879
4572,-8.42812,-3.74716,4.010969,-0.056963,0.215941,-0.146455,31.46,66.4976878881094
4582,-8.418548,-3.755535,3.988835,-0.05849,0.206167,-0.144775,31.46,66.6013334782011
4592,-8.419745,-3.76391,3.946362,-0.059712,0.195935,-0.142637,31.43,66.8341956090605
4602,-8.374879,-3.771089,3.927818,-0.059407,0.173333,-0.128282,31.43,66.8462484600275
4612,-8.356335,-3.767499,3.911667,-0.05681,0.160199,-0.120188,31.44,66.8900698163359
4622,-8.34796,-3.78066,3.891328,-0.053451,0.147066,-0.109956,31.45,66.9927271518237
4632,-8.32463,-3.783651,3.882355,-0.049786,0.134085,-0.097738,31.45,66.9952558275614
4642,-8.316256,-3.782454,3.875176,-0.044593,0.121104,-0.085063,31.42,67.0150896003549
4652,-8.315658,-3.79741,3.851846,-0.037874,0.108734,-0.07086,31.42,67.1519015089292
4662,-8.292327,-3.795017,3.841079,-0.030543,0.095906,-0.056505,31.46,67.1594102863557
4672,-8.286345,-3.811168,3.835695,-0.022297,0.083536,-0.041539,31.46,67.1910599711455
4682,-8.28455,-3.805186,3.82732,-0.013134,0.071319,-0.026114,31.44,67.2265205472491
4692,-8.282756,-3.814159,3.818347,-0.002138,0.059559,-0.010843,31.44,67.2792256863671
4702,-8.293524,-3.801597,3.812963,0.009316,0.047495,0.004429,31.48,67.3181634477587
4712,-8.291729,-3.812963,3.796213,0.021686,0.034819,0.01909,31.48,67.4147005848934
4722,-8.297112,-3.809972,3.791427,0.034667,0.021838,0.033292,31.45,67.4484188414917
4732,-8.310272,-3.80399,3.791427,0.047342,0.00733,0.045968,31.45,67.4694485977328
4742,-8.322835,-3.801597,3.790829,0.059407,-0.008094,0.056658,31.46,67.4957642960554
4752,-8.342576,-3.803392,3.793222,0.072998,-0.024587,0.067042,31.46,67.5243387264926
4762,-8.365907,-3.794419,3.788436,0.083841,-0.044288,0.075136,31.42,67.5884674313899
4772,-8.402397,-3.784249,3.807579,0.095142,-0.064141,0.088881,31.42,67.5504459832139
4782,-8.416754,-3.763312,3.821338,0.114232,-0.10736,0.093921,31.46,67.4873670326039
4792,-8.436494,-3.766901,3.821338,0.121715,-0.130725,0.095448,31.47,67.5301241355452
4802,-8.452048,-3.75075,3.850052,0.127365,-0.153327,0.09728,31.47,67.3950506917657
4812,-8.453244,-3.731607,3.864408,0.131336,-0.176235,0.097128,31.45,67.3046041044426
4822,-8.47119,-3.739982,3.893123,0.133016,-0.197462,0.096669,31.45,67.1970742494151
4832,-8.483154,-3.716652,3.921836,0.132863,-0.217926,0.094379,31.47,67.0497315894428
4842,-8.48136,-3.701697,3.946961,0.131336,-0.235641,0.091324,31.47,66.9010123500517
4852,-8.480762,-3.699304,3.991228,0.127365,-0.25244,0.087048,31.46,66.6661307080643
4862,-8.469396,-3.688536,4.027121,0.121409,-0.264047,0.082467,31.46,66.4455950244405
4872,-8.462217,-3.668795,4.070789,0.113926,-0.27214,0.075442,31.42,66.1852784818755
4882,-8.446067,-3.658028,4.114459,0.103847,-0.2755,0.067195,31.42,65.9144042986394
4892,-8.44128,-3.647858,4.162315,0.093157,-0.274737,0.060323,31.45,65.6468780451435
4902,-8.425129,-3.637689,4.208377,0.082009,-0.268475,0.052687,31.45,65.3645915547684
4912,-8.39462,-3.626323,4.254438,0.068417,-0.256869,0.041233,31.45,65.0497410775212
4922,-8.38146,-3.62393,4.293322,0.054367,-0.240375,0.031154,31.45,64.8183421279149
4932,-8.36471,-3.622135,4.316652,0.041233,-0.218537,0.019242,31.45,64.6595216207869
4942,-8.321041,-3.61735,4.381258,0.027642,-0.19059,0.008094,31.45,64.2253483518653
4952,-8.30489,-3.606582,4.40399,0.001833,-0.1237,-0.015882,31.43,64.061585764984
4962,-8.293524,-3.61077,4.42074,-0.009621,-0.085216,-0.028253,31.44,63.9540761736966
4972,-8.273782,-3.607778,4.42732,-0.019548,-0.044288,-0.040317,31.44,63.8721033409838
4982,-8.263614,-3.612564,4.431507,-0.0281,-0.00168,-0.052382,31.45,63.832079589238
4992,-8.261818,-3.616153,4.431507,-0.03375,0.041539,-0.06353,31.45,63.8315587827398
5002,-8.24148,-3.625725,4.417749,-0.038485,0.085216,-0.075595,31.45,63.8648694783599
5012,-8.248658,-3.628117,4.398606,-0.04215,0.127518,-0.086437,31.45,63.9820275963008
5022,-8.235497,-3.622734,4.378268,-0.042302,0.167988,-0.096822,31.45,64.0509810070051
5032,-8.263614,-3.640081,4.356134,-0.041997,0.206778,-0.10568,31.45,64.2465527862306
5042,-8.260622,-3.647858,4.331607,-0.040623,0.243124,-0.113163,31.48,64.3739257364359
5052,-8.267202,-3.654438,4.298108,-0.037415,0.275348,-0.119882,31.48,64.5683154631831
5062,-8.283354,-3.668197,4.275974,-0.034208,0.303447,-0.125533,31.47,64.7325958629968
5072,-8.295319,-3.667001,4.233501,-0.031307,0.326202,-0.131641,31.47,64.9780197064348
5082,-8.313862,-3.686144,4.185645,-0.026573,0.345902,-0.134085,31.48,65.2860019656475
5092,-8.329416,-3.688536,4.152145,-0.022449,0.359647,-0.135612,31.48,65.4965123423793
5102,-8.356335,-3.699304,4.095914,-0.01909,0.368657,-0.136987,31.48,65.8580058053467
5112,-8.366504,-3.726821,4.010371,-0.015119,0.371864,-0.136376,31.48,66.3532907455834
5122,-8.388638,-3.737589,3.981059,-0.012065,0.362396,-0.130572,31.48,66.563472444567
5132,-8.390432,-3.750151,3.936193,-0.005345,0.349568,-0.124464,31.47,66.8147829631544
5142,-8.422137,-3.751946,3.88056,-0.004734,0.332005,-0.117897,31.47,67.1746343616964
5152,-8.429914,-3.766303,3.844668,-0.002138,0.310167,-0.110872,31.45,67.392931237853
5162,-8.4347,-3.788436,3.814159,0,0.284663,-0.102625,31.45,67.5838107845754
5172,-8.450851,-3.781258,3.778865,0.001069,0.255647,-0.093157,31.46,67.7965414647501
5182,-8.452645,-3.786642,3.751946,0.002138,0.223729,-0.08323,31.46,67.9477517311709
5192,-8.438888,-3.809374,3.724428,0.003818,0.191506,-0.071624,31.48,68.0872302026274
5202,-8.449057,-3.81057,3.703491,0.005651,0.156382,-0.06017,31.48,68.2196451764405
5212,-8.456235,-3.816552,3.693322,0.00733,0.120188,-0.049633,31.45,68.2929947260897
5222,-8.451449,-3.832105,3.67418,0.00901,0.083383,-0.039095,31.45,68.3994438008104
5232,-8.450253,-3.824927,3.674777,0.01237,0.045815,-0.0281,31.46,68.3876908209815
5242,-8.440681,-3.829713,3.66042,0.016188,0.008247,-0.017562,31.46,68.4501530487132
5252,-8.442476,-3.841079,3.661617,0.020006,-0.028558,-0.007941,31.44,68.4571277350261
5262,-8.440681,-3.8339,3.666403,0.02474,-0.065973,0.001069,31.44,68.4218246363515
5272,-8.438888,-3.832704,3.678965,0.030238,-0.10232,0.009927,31.46,68.3502106835009
5282,-8.438289,-3.824927,3.707081,0.036346,-0.136987,0.018021,31.46,68.1922019172301
5292,-8.427522,-3.834498,3.729812,0.043982,-0.169515,0.030849,31.46,68.0585983369974
5302,-8.417951,-3.828516,3.756134,0.057574,-0.228005,0.035125,31.48,67.8944481182584
5312,-8.422137,-3.813561,3.789035,0.064904,-0.252593,0.039401,31.48,67.7145389734226
5322,-8.405987,-3.806981,3.836293,0.072693,-0.272904,0.041997,31.46,67.4259444687928
5332,-8.392226,-3.790231,3.870391,0.079107,-0.288939,0.043219,31.46,67.2025349862622
5342,-8.392825,-3.790829,3.923033,0.085368,-0.300393,0.043677,31.47,66.9265140660203
5352,-8.378469,-3.777669,3.970291,0.090713,-0.306807,0.044135,31.47,66.63620477349
5362,-8.379066,-3.765705,4.020541,0.094837,-0.308334,0.041692,31.45,66.3627345697974
5372,-8.368299,-3.739982,4.074379,0.098655,-0.304211,0.039859,31.45,66.0344155427828
5382,-8.350951,-3.738187,4.11386,0.10064,-0.295353,0.037568,31.45,65.7899227539315
5392,-8.347363,-3.74716,4.163511,0.101404,-0.280845,0.033292,31.45,65.5327467439593
5402,-8.334201,-3.738187,4.192225,0.10064,-0.26313,0.029322,31.48,65.3467225410858
5412,-8.313264,-3.711268,4.244269,0.098044,-0.240681,0.025045,31.48,65.0052878610261
5422,-8.299506,-3.699902,4.271787,0.094226,-0.214108,0.020006,31.44,64.8215099711423
5432,-8.289336,-3.692126,4.307081,0.089492,-0.184787,0.015577,31.44,64.6090937479312
5442,-8.273782,-3.680161,4.334,0.083383,-0.152258,0.011912,31.42,64.4236174383365
5452,-8.261818,-3.665206,4.368098,0.076969,-0.117897,0.006261,31.42,64.2061686287418
5462,-8.25464,-3.650849,4.37408,0.06918,-0.082925,-0.001069,31.43,64.1446346821676
5472,-8.246863,-3.658626,4.377669,0.053145,-0.008399,-0.003665,31.47,64.1163118641271
5482,-8.248059,-3.662215,4.373481,0.044288,0.028405,-0.006414,31.47,64.1441967234651
5492,-8.255836,-3.657429,4.360321,0.036957,0.064752,-0.009927,31.47,64.2247448826517
5502,-8.257033,-3.651447,4.353741,0.029322,0.099266,-0.01237,31.47,64.2553181185591
5512,-8.272586,-3.650849,4.331607,0.022297,0.131183,-0.014508,31.5,64.4039617295484
5522,-8.261818,-3.659224,4.312464,0.016035,0.161268,-0.017257,31.5,64.4867825523797
5532,-8.286943,-3.658028,4.296313,0.011301,0.188452,-0.018937,31.45,64.625456848768
5542,-8.301898,-3.66042,4.258626,0.006109,0.212123,-0.021838,31.45,64.8559970316978
5552,-8.316854,-3.661019,4.218546,0.003971,0.231976,-0.025045,31.45,65.0973415044266
5562,-8.337791,-3.671786,4.198806,0.001374,0.248622,-0.0281,31.45,65.2561253614367
5572,-8.35155,-3.679563,4.163511,-0.000611,0.26145,-0.031612,31.49,65.4768141309597
5582,-8.361719,-3.677768,4.139583,-0.000611,0.270155,-0.035125,31.49,65.6215387510018
5592,-8.380861,-3.698107,4.112065,0.000305,0.275042,-0.038332,31.44,65.8251310526231
5602,-8.400601,-3.699902,4.08395,0.001527,0.277638,-0.043066,31.44,66.0152825293703
5612,-8.42453,-3.70409,4.055834,0.00168,0.276875,-0.046273,31.47,66.2162604156202
5622,-8.438888,-3.71725,4.027121,0.002902,0.273209,-0.051465,31.47,66.4082206895458
5632,-8.469995,-3.71725,3.978666,0.005345,0.267406,-0.056658,31.48,66.7257459437497
5642,-8.478967,-3.729812,3.954139,0.010537,0.2474,-0.066737,31.48,66.8837430641953
5652,-8.489736,-3.731607,3.930212,0.013592,0.233503,-0.071319,31.46,67.0325551236699
5662,-8.488539,-3.742973,3.911069,0.01573,0.216552,-0.076205,31.46,67.1405981666821
5672,-8.495118,-3.742374,3.891328,0.01741,0.198226,-0.08094,31.46,67.2569221966636
5682,-8.490931,-3.748357,3.867998,0.0197,0.177151,-0.083383,31.44,67.3764018428947
5692,-8.489736,-3.75733,3.859025,0.021686,0.155618,-0.085674,31.44,67.4291582311245
5702,-8.490333,-3.754339,3.847061,0.022602,0.133016,-0.087659,31.42,67.4906950413305
5712,-8.473583,-3.751946,3.835097,0.023213,0.109039,-0.088423,31.42,67.5182184658314
5722,-8.465807,-3.754937,3.836891,0.023671,0.084452,-0.087965,31.42,67.4958549497858
5732,-8.460423,-3.762714,3.824329,0.023976,0.059712,-0.086285,31.42,67.5583680895116
5742,-8.446664,-3.752544,3.812963,0.024129,0.034667,-0.082467,31.41,67.5820278809398
5752,-8.429317,-3.751348,3.811168,0.021991,0.010232,-0.079565,31.41,67.5557933593002
5762,-8.41137,-3.760919,3.811168,0.020617,-0.012523,-0.073609,31.46,67.5283900029084
5772,-8.397013,-3.763312,3.813561,0.020159,-0.036346,-0.066279,31.46,67.4890090836226
5782,-8.388638,-3.762714,3.809972,0.020159,-0.058643,-0.059254,31.45,67.4907134509831
5792,-8.370691,-3.754937,3.812365,0.0197,-0.079565,-0.051618,31.45,67.4347830828788
5802,-8.359925,-3.755535,3.823731,0.019242,-0.099724,-0.043219,31.46,67.3530212958252
5812,-8.342576,-3.754339,3.826722,0.021075,-0.138056,-0.023518,31.46,67.3007785444211
5822,-8.343175,-3.754339,3.842873,0.027794,-0.155007,-0.013286,31.44,67.2159647882194
5832,-8.338388,-3.746562,3.845864,0.032529,-0.171806,-0.003971,31.43,67.1831299136129
5842,-8.332406,-3.74716,3.860221,0.037721,-0.186925,0.00504,31.43,67.0950088066816
5852,-8.332406,-3.754937,3.88714,0.044593,-0.199906,0.013897,31.43,66.9591261409275
5862,-8.329416,-3.74058,3.905685,0.05284,-0.213039,0.022449,31.43,66.8412110042008
5872,-8.328817,-3.718446,3.929613,0.061392,-0.223119,0.029016,31.46,66.6925305472071
5882,-8.326425,-3.725625,3.946961,0.069486,-0.230907,0.035736,31.46,66.6023874283011
5892,-8.321041,-3.724428,3.987639,0.078496,-0.235947,0.041386,31.45,66.3750646471666
5902,-8.335996,-3.724428,4.015156,0.087506,-0.238085,0.044899,31.45,66.2616701330553
5912,-8.323434,-3.712464,4.05404,0.095906,-0.235947,0.047495,31.41,66.019413708868
5922,-8.32463,-3.705286,4.095316,0.103236,-0.230754,0.047342,31.41,65.798853169099
5932,-8.32463,-3.704688,4.134199,0.109039,-0.222813,0.04612,31.43,65.5951962947874
5942,-8.323434,-3.684349,4.1671,0.113163,-0.210443,0.044288,31.43,65.4016211140166
5952,-8.318647,-3.692126,4.211967,0.116675,-0.193644,0.041233,31.41,65.1656338929697
5962,-8.321041,-3.682554,4.255635,0.118508,-0.173791,0.036805,31.41,64.9355508401459
5972,-8.315658,-3.675974,4.328616,0.117744,-0.150731,0.030849,31.45,64.5411152188374
5982,-8.307282,-3.676572,4.349553,0.114843,-0.125075,0.016493,31.45,64.4154389971386
5992,-8.302496,-3.663411,4.371687,0.103084,-0.06521,0.008552,31.48,64.2780630201942
6002,-8.299506,-3.672983,4.393821,0.09499,-0.031307,0,31.45,64.1675542719038
6012,-8.293524,-3.658626,4.404588,0.085216,0.00336,-0.007483,31.45,64.0845299227488
6022,-8.312068,-3.667599,4.415356,0.073304,0.03879,-0.016493,31.46,64.0806318010996
6032,-8.310871,-3.667001,4.418347,0.06185,0.074678,-0.026573,31.46,64.0620596069949
6042,-8.310272,-3.662813,4.408178,0.049022,0.110414,-0.034514,31.42,64.1084059192197
6052,-8.306684,-3.667001,4.406981,0.036652,0.144928,-0.04383,31.42,64.1105710818305
6062,-8.31446,-3.668795,4.38066,0.024129,0.179442,-0.051007,31.45,64.2644893336196
6072,-8.321639,-3.677768,4.359125,0.010232,0.210138,-0.059407,31.45,64.3997960507457
6082,-8.335398,-3.675974,4.325625,-0.001833,0.239001,-0.06689,31.41,64.6005602990729
6092,-8.34138,-3.684947,4.299304,-0.013592,0.264505,-0.073915,31.41,64.7578596057657
6102,-8.353344,-3.688536,4.27059,-0.023366,0.286343,-0.081856,31.46,64.9355181274286
6112,-8.370691,-3.696313,4.222734,-0.03207,0.304364,-0.087812,31.46,65.2277619319554
6122,-8.376076,-3.703491,4.176672,-0.039248,0.318261,-0.094073,31.41,65.4844955544623
6132,-8.383853,-3.711268,4.128816,-0.045357,0.326966,-0.099876,31.41,65.7568543411515
6142,-8.406584,-3.712464,4.088138,-0.049175,0.331089,-0.104763,31.42,66.0178994985604
6152,-8.412566,-3.728018,4.005585,-0.051618,0.330478,-0.10965,31.42,66.4758277238171
6162,-8.432905,-3.74716,3.968496,-0.049786,0.316428,-0.114843,31.45,66.7297972142196
6172,-8.429914,-3.756732,3.9338,-0.047647,0.3036,-0.117439,31.43,66.914442559671
6182,-8.437093,-3.760919,3.895515,-0.04444,0.287107,-0.117286,31.43,67.1342414073165
6192,-8.433504,-3.765106,3.859623,-0.03879,0.267406,-0.116981,31.44,67.3200454644223
6202,-8.437692,-3.776472,3.82732,-0.032681,0.244499,-0.117592,31.44,67.5094113292915
6212,-8.43111,-3.775276,3.804588,-0.026114,0.22037,-0.115148,31.47,67.6156124005567
6222,-8.430512,-3.784847,3.789633,-0.018784,0.194408,-0.110872,31.47,67.7022991454382
6232,-8.431709,-3.79382,3.763312,-0.01069,0.166613,-0.105832,31.46,67.8524644447
6242,-8.430512,-3.79741,3.75075,-0.001527,0.138208,-0.099571,31.46,67.9201027678499
6252,-8.413164,-3.795615,3.744768,0.007636,0.109039,-0.090255,31.47,67.916197101362
6262,-8.401799,-3.799204,3.737589,0.016493,0.079871,-0.080176,31.47,67.9352794882748
6272,-8.391031,-3.792624,3.731607,0.026114,0.050244,-0.069944,31.44,67.9401220789145
6282,-8.379066,-3.795615,3.729812,0.034819,0.020617,-0.058338,31.44,67.92876546931
6292,-8.370093,-3.805186,3.731009,0.044899,-0.007636,-0.043677,31.47,67.9132128945409
6302,-8.364112,-3.801597,3.731009,0.053451,-0.035125,-0.028863,31.47,67.8981567350521
6312,-8.361719,-3.807579,3.741179,0.06185,-0.061697,-0.013592,31.48,67.8443846976389
6325,-8.350951,-3.79741,3.759125,0.079565,-0.112246,0.017562,31.43,67.7177882882316
6332,-8.355139,-3.787838,3.776472,0.079565,-0.134696,0.034361,31.43,67.6247675143945
6342,-8.350353,-3.786044,3.789035,0.094837,-0.155618,0.049633,31.45,67.5464619420793
6352,-8.346166,-3.778267,3.803392,0.102625,-0.177609,0.06353,31.45,67.4543292366654
6362,-8.359326,-3.771687,3.829114,0.108887,-0.196699,0.076664,31.4,67.3378872196192
6372,-8.364112,-3.767499,3.856632,0.115454,-0.214261,0.087812,31.4,67.1975406359673
6382,-8.38146,-3.760919,3.876971,0.120951,-0.230907,0.096517,31.44,67.1190310916303
6392,-8.387442,-3.751348,3.916452,0.125533,-0.245415,0.103389,31.44,66.9138192158285
6402,-8.394022,-3.731009,3.940381,0.128129,-0.258091,0.107512,31.39,66.7825281297772
6412,-8.401799,-3.720241,3.976273,0.130725,-0.268017,0.108123,31.39,66.5999498721919
6422,-8.413164,-3.716652,4.015755,0.131794,-0.275348,0.107665,31.45,66.4133588721129
6432,-8.408977,-3.71067,4.052245,0.131336,-0.279165,0.103694,31.45,66.208353388503
6442,-8.42453,-3.697509,4.09412,0.129198,-0.280234,0.096822,31.43,66.0108500836184
6452,-8.429914,-3.68375,4.138985,0.125227,-0.277791,0.085674,31.43,65.7766838770071
6462,-8.432905,-3.677768,4.186841,0.119577,-0.27153,0.073151,31.46,65.5301084614934
6472,-8.421539,-3.66401,4.231707,0.112705,-0.260992,0.060323,31.46,65.2613766116901
6482,-8.42453,-3.652644,4.265805,0.103542,-0.246637,0.043982,31.45,65.0818999549801
6492,-8.406584,-3.644867,4.338786,0.092241,-0.228005,0.02642,31.45,64.6612648070581
6502,-8.379066,-3.625725,4.371687,0.080329,-0.206778,-0.008858,31.41,64.4133558830647
6512,-8.352745,-3.618546,4.398606,0.054214,-0.152411,-0.025962,31.45,64.209657847682
6522,-8.344969,-3.616153,4.415954,0.041081,-0.120646,-0.04383,31.45,64.1011987267404
6532,-8.327621,-3.611966,4.42074,0.027184,-0.08659,-0.058338,31.45,64.0331865945798
6542,-8.298907,-3.614359,4.430311,0.01405,-0.049327,-0.071319,31.45,63.921085723651
6552,-8.279166,-3.611368,4.438686,0.002138,-0.01237,-0.084299,31.45,63.82997926609
6562,-8.266603,-3.621537,4.4339,-0.009468,0.026725,-0.094226,31.45,63.8357624029012
6572,-8.239684,-3.614957,4.431507,-0.018326,0.066126,-0.102625,31.45,63.7792761911901
6582,-8.233105,-3.626921,4.417151,-0.026573,0.104763,-0.10797,31.45,63.8498500449709
6592,-8.212168,-3.628716,4.40399,-0.032987,0.14279,-0.111788,31.42,63.8709971265993
6602,-8.206783,-3.644867,4.377071,-0.036957,0.180053,-0.113163,31.42,64.0136991938417
6612,-8.198408,-3.644269,4.35075,-0.040623,0.215177,-0.113621,31.43,64.1297722302677
6622,-8.203195,-3.641278,4.312464,-0.042761,0.248928,-0.111025,31.43,64.3359328173032
6632,-8.207382,-3.668197,4.280162,-0.041997,0.279165,-0.107818,31.47,64.5403056902803
6642,-8.218747,-3.673581,4.256233,-0.040317,0.306043,-0.102625,31.47,64.6957165768243
6652,-8.239684,-3.683152,4.21077,-0.038026,0.329104,-0.096975,31.45,64.9887752129959
6662,-8.239684,-3.702295,4.176074,-0.034208,0.347888,-0.091324,31.45,65.1888560189973
6672,-8.28455,-3.723232,4.098307,-0.029474,0.362549,-0.084605,31.42,65.7141957337925
6682,-8.312068,-3.722634,4.063612,-0.017257,0.378126,-0.073457,31.43,65.9546289508573
6692,-8.3348,-3.731009,4.01396,-0.011148,0.378584,-0.067042,31.43,66.2716464813524
6702,-8.350353,-3.753741,3.974478,-0.004887,0.372781,-0.062156,31.43,66.5334119023749
6712,-8.396414,-3.750151,3.938586,0.002443,0.363159,-0.057727,31.43,66.8144996894477
6722,-8.417352,-3.772285,3.892524,0.00901,0.349262,-0.053603,31.42,67.1202488868453
6732,-8.432905,-3.78066,3.862614,0.014966,0.328798,-0.05116,31.42,67.317063212525
6742,-8.467003,-3.777669,3.830909,0.020922,0.305433,-0.04948,31.42,67.5500056420471
6752,-8.483154,-3.779463,3.795017,0.02642,0.279013,-0.048106,31.42,67.7732163931844
6762,-8.497512,-3.781258,3.767499,0.031612,0.248317,-0.045968,31.45,67.9485658230647
6772,-8.510672,-3.796213,3.751946,0.036957,0.214872,-0.045662,31.45,68.0695541497453
6782,-8.528021,-3.800999,3.735795,0.040928,0.178831,-0.045968,31.46,68.1927793210208
6792,-8.535198,-3.808177,3.712464,0.043982,0.141873,-0.044288,31.46,68.3362528154273
6802,-8.532805,-3.809374,3.705884,0.0478,0.103236,-0.044746,31.43,68.3675359330269
6812,-8.536993,-3.806383,3.689135,0.049327,0.063377,-0.044288,31.43,68.4617860025027
6822,-8.531011,-3.800999,3.684947,0.05116,0.023213,-0.042608,31.46,68.4679776891167
6832,-8.520243,-3.802195,3.691527,0.052534,-0.016646,-0.040623,31.46,68.4134361478771
6842,-8.508279,-3.805784,3.708875,0.053298,-0.0562,-0.039706,31.45,68.3014235532178
6852,-8.49452,-3.792624,3.728616,0.054672,-0.131336,-0.032223,31.45,68.1586622285437
6862,-8.480762,-3.795017,3.737589,0.054978,-0.166155,-0.0281,31.46,68.0863553950044
6872,-8.453843,-3.793222,3.75733,0.056658,-0.197309,-0.022297,31.42,67.9273001341408
6882,-8.429317,-3.780062,3.790829,0.05681,-0.226173,-0.01741,31.42,67.6893117573381
6892,-8.423334,-3.77049,3.826722,0.05681,-0.25076,-0.010079,31.48,67.4784685959053
6902,-8.395817,-3.775276,3.854837,0.056505,-0.270766,-0.003818,31.48,67.2784696104206
6912,-8.378469,-3.775276,3.898506,0.056963,-0.286496,0.003207,31.42,67.0122056738286
6922,-8.353344,-3.744169,3.938586,0.058185,-0.297186,0.010079,31.42,66.719977153015
6932,-8.334201,-3.747759,3.972684,0.059559,-0.302531,0.015882,31.42,66.5035256267429
6942,-8.316854,-3.738786,4.010371,0.06017,-0.303753,0.020769,31.42,66.2600141188589
6952,-8.305488,-3.724428,4.058825,0.06185,-0.299782,0.025198,31.44,65.9674140960622
6962,-8.295319,-3.731607,4.103093,0.064599,-0.290314,0.02978,31.44,65.7204526447174
6972,-8.288737,-3.712464,4.133003,0.065973,-0.277027,0.032223,31.41,65.5312129420765
6982,-8.275578,-3.707679,4.178466,0.066432,-0.259923,0.032223,31.41,65.2605632141266
6992,-8.263015,-3.701099,4.211967,0.068722,-0.239001,0.032223,31.47,65.0519956390704
7002,-8.263015,-3.702893,4.240082,0.070708,-0.213345,0.031918,31.47,64.907688218769
7012,-8.258827,-3.683152,4.295117,0.071166,-0.186008,0.029169,31.4,64.5936003022246
7022,-8.250452,-3.676572,4.313661,0.07254,-0.155923,0.022297,31.4,64.4723551471619
7032,-8.261221,-3.659224,4.332206,0.072388,-0.08995,0.01741,31.43,64.3835614025419
7042,-8.26481,-3.659224,4.34417,0.070402,-0.056352,0.011148,31.42,64.330031562441
7052,-8.260024,-3.66042,4.351946,0.06918,-0.020922,0.005345,31.42,64.2803572299497
7062,-8.268997,-3.662215,4.355535,0.06689,0.01405,-0.000153,31.42,64.2840237443776
7072,-8.282157,-3.655635,4.347161,0.063683,0.049022,-0.007025,31.42,64.3502764132978
7082,-8.293524,-3.656233,4.345366,0.060476,0.081398,-0.012675,31.41,64.3857571715656
7092,-8.288737,-3.650849,4.331607,0.055589,0.112552,-0.018937,31.41,64.4403984056003
7102,-8.306085,-3.661019,4.320241,0.051313,0.142026,-0.024282,31.43,64.5479609370136
7112,-8.323434,-3.663411,4.3005,0.045968,0.16753,-0.02978,31.43,64.6907098217263
7122,-8.333604,-3.669394,4.274179,0.040775,0.190895,-0.035125,31.48,64.8547796258881
7132,-8.358727,-3.668795,4.237091,0.034667,0.211665,-0.037874,31.48,65.1009743290052
7142,-8.35454,-3.666403,4.214359,0.029932,0.226631,-0.041997,31.46,65.2070157279902
7152,-8.358727,-3.678965,4.184449,0.025504,0.239306,-0.045357,31.46,65.3831436292104
7162,-8.369495,-3.681358,4.165306,0.020159,0.247859,-0.045815,31.4,65.5080872479811
7172,-8.382656,-3.683152,4.127619,0.014661,0.253356,-0.048258,31.4,65.7339393432348
7182,-8.406584,-3.697509,4.076771,0.010232,0.255036,-0.050549,31.45,66.0631425459587
7192,-8.413164,-3.707679,4.051049,0.006567,0.252898,-0.051465,31.45,66.2206315610131
7202,-8.419745,-3.708875,4.013362,-0.000611,0.242514,-0.053145,31.43,66.4324603773633
7212,-8.438888,-3.717848,3.993023,-0.00336,0.233503,-0.055436,31.46,66.5869373152612
7222,-8.435897,-3.720839,3.966702,-0.004887,0.222355,-0.056963,31.46,66.7213455471581
7232,-8.452645,-3.738786,3.949952,-0.005803,0.21029,-0.058948,31.45,66.8599027183729
7242,-8.455637,-3.738187,3.940979,-0.006567,0.196088,-0.059407,31.45,66.9125305279873
7252,-8.456235,-3.741179,3.921836,-0.006872,0.180511,-0.062614,31.43,67.0169140028327
7262,-8.457432,-3.742973,3.90389,-0.00733,0.163559,-0.063988,31.43,67.1152658575963
7272,-8.450851,-3.748955,3.891926,-0.005345,0.145844,-0.066432,31.41,67.1702425784494
7282,-8.439486,-3.751946,3.888337,-0.004276,0.128434,-0.068111,31.41,67.1688064892813
7292,-8.448458,-3.76391,3.867998,-0.002902,0.109345,-0.07086,31.45,67.3049049659419
7302,-8.425727,-3.76391,3.869194,-0.001069,0.090561,-0.071624,31.45,67.2527267184213
7312,-8.423933,-3.764508,3.870989,0.000916,0.071166,-0.072388,31.45,67.2401612045098
7322,-8.413164,-3.776472,3.858427,0.004123,0.05284,-0.072693,31.45,67.2956056620826
7332,-8.410173,-3.771687,3.854239,0.007941,0.034819,-0.072082,31.43,67.3073860416994
7342,-8.405388,-3.765106,3.851846,0.010996,0.016646,-0.071319,31.43,67.3044293234371
7352,-8.389236,-3.759723,3.854239,0.014508,-0.001527,-0.069639,31.43,67.2541703002005
7362,-8.377871,-3.753142,3.862016,0.018173,-0.017257,-0.066432,31.43,67.1838540803958
7372,-8.378469,-3.764508,3.86381,0.027336,-0.048869,-0.05681,31.43,67.1859359362712
7382,-8.372486,-3.758526,3.870391,0.031918,-0.064294,-0.050855,31.47,67.1334004274331
7392,-8.359925,-3.755535,3.867998,0.036346,-0.080481,-0.043982,31.47,67.1177115500803
7402,-8.353344,-3.75075,3.870989,0.042455,-0.094684,-0.035736,31.43,67.0839829868054
7412,-8.34138,-3.751348,3.874578,0.048106,-0.109498,-0.02642,31.43,67.0409544540888
7422,-8.353344,-3.741179,3.877569,0.05452,-0.123853,-0.016952,31.43,67.0402598191642
7432,-8.35454,-3.742973,3.887738,0.061087,-0.137139,-0.005651,31.43,66.9904209333516
7442,-8.344969,-3.725625,3.900301,0.06689,-0.151342,0.004734,31.42,66.888086053689
7452,-8.341978,-3.724428,3.911069,0.072998,-0.164323,0.015272,31.42,66.8237001435435
7462,-8.352745,-3.714259,3.929613,0.078649,-0.176082,0.025198,31.45,66.7384449655385
7472,-8.340183,-3.718446,3.952345,0.084299,-0.187536,0.03543,31.45,66.5959644525486
7482,-8.356335,-3.707679,3.975077,0.089339,-0.196088,0.044746,31.46,66.499764076319
7492,-8.35155,-3.706482,4.010969,0.094379,-0.203113,0.051313,31.46,66.2996460198322
7502,-8.347363,-3.698706,4.051647,0.097586,-0.206931,0.057879,31.39,66.0699010280431
7512,-8.353942,-3.687938,4.073781,0.100335,-0.209221,0.060323,31.39,65.9578361570307
7522,-8.356335,-3.687938,4.109075,0.102014,-0.207541,0.06185,31.44,65.778550789293
7532,-8.35813,-3.67418,4.182056,0.102167,-0.202196,0.061545,31.44,65.3896783870481
7542,-8.341978,-3.672385,4.219144,0.101251,-0.18158,0.054978,31.45,65.1604826564802
7552,-8.364112,-3.66401,4.255635,0.095448,-0.165086,0.048258,31.44,65.0125202425861
7562,-8.355738,-3.667001,4.289135,0.090255,-0.145691,0.039859,31.44,64.8244463240951
7572,-8.350353,-3.657429,4.31725,0.083689,-0.123089,0.030391,31.45,64.6587114810525
7582,-8.348558,-3.661019,4.34058,0.076816,-0.097128,0.017868,31.45,64.5385661491346
7592,-8.335398,-3.655036,4.363312,0.067959,-0.067195,0.005651,31.43,64.3867840193673
7602,-8.321041,-3.665206,4.38066,0.058796,-0.036194,-0.007483,31.43,64.2757642348541
7612,-8.329416,-3.659224,4.381856,0.049327,-0.003971,-0.019548,31.43,64.282598194485
7622,-8.31446,-3.66042,4.395017,0.038637,0.030696,-0.033598,31.43,64.1827365339039
7632,-8.317451,-3.659224,4.395615,0.028558,0.066126,-0.04612,31.45,64.1852573930524
7642,-8.312666,-3.654438,4.398008,0.017562,0.101709,-0.058643,31.45,64.157428117704
7652,-8.302496,-3.67059,4.387838,0.007178,0.136681,-0.07025,31.42,64.2025301301074
7662,-8.300103,-3.676572,4.369295,-0.003207,0.171195,-0.080023,31.42,64.298051387832
7672,-8.298308,-3.68375,4.347759,-0.013134,0.203876,-0.08995,31.49,64.4116327566318
7682,-8.31147,-3.684349,4.315455,-0.021533,0.235183,-0.097433,31.49,64.6076931444835
7692,-8.310272,-3.684947,4.283153,-0.029932,0.261756,-0.103389,31.43,64.7719881016016
7702,-8.310272,-3.689135,4.204788,-0.037721,0.285427,-0.108581,31.43,65.1815943007017
7712,-8.332406,-3.71067,4.1671,-0.043066,0.305127,-0.111788,31.43,65.4465252908418
7722,-8.327023,-3.72383,4.11386,-0.050244,0.330478,-0.112399,31.44,65.7248693112039
7732,-8.34796,-3.734598,4.066004,-0.052993,0.335518,-0.110414,31.44,66.0299414213438
7742,-8.356335,-3.735196,4.026522,-0.05284,0.336434,-0.106291,31.46,66.2550202727385
7752,-8.364112,-3.750151,3.975077,-0.051313,0.331853,-0.100793,31.46,66.5555674089918
7762,-8.374879,-3.767499,3.923631,-0.048869,0.321773,-0.095448,31.38,66.8650120964135
7772,-8.396414,-3.768696,3.892524,-0.046273,0.307418,-0.089339,31.38,67.074385551526
7782,-8.405987,-3.77049,3.854239,-0.041386,0.289703,-0.082009,31.42,67.2978480395313
7792,-8.41137,-3.775276,3.816552,-0.034972,0.266948,-0.074526,31.42,67.5127047747628
7802,-8.421539,-3.781258,3.786642,-0.027642,0.241597,-0.066432,31.44,67.6971526311192
7812,-8.422735,-3.774678,3.754937,-0.019853,0.21365,-0.057879,31.44,67.8623237665846
7822,-8.433504,-3.783651,3.722036,-0.012065,0.181732,-0.049786,31.44,68.0668026633018
7832,-8.452048,-3.798606,3.711268,-0.003054,0.148898,-0.041081,31.44,68.1735405072899
7842,-8.456833,-3.791427,3.695715,0.007025,0.114232,-0.032834,31.43,68.259494270821
7852,-8.458031,-3.795615,3.686741,0.017562,0.077274,-0.025198,31.43,68.3133363143602
7862,-8.458628,-3.796811,3.687938,0.027642,0.039095,-0.018631,31.41,68.3091443642099
7872,-8.462815,-3.799803,3.679563,0.038026,0.00168,-0.01237,31.41,68.3645273432202
7882,-8.454441,-3.780062,3.689135,0.048869,-0.035583,-0.004581,31.42,68.2800883859601
7892,-8.455637,-3.785445,3.719045,0.068111,-0.108123,0.007941,31.42,68.1275988457746
7902,-8.441879,-3.775276,3.731009,0.078649,-0.140804,0.014966,31.43,68.02803395698
7912,-8.455637,-3.775276,3.756732,0.087965,-0.172264,0.0197,31.45,67.9182092964848
7922,-8.448458,-3.764508,3.779463,0.09499,-0.202044,0.025504,31.45,67.7738325376888
7932,-8.426325,-3.759125,3.822534,0.101251,-0.228616,0.030696,31.46,67.4964739979559
7942,-8.422735,-3.76391,3.851248,0.106901,-0.249997,0.034972,31.46,67.3415260648789
7952,-8.420342,-3.755535,3.89731,0.110872,-0.268933,0.03879,31.48,67.0858694966118
7962,-8.407183,-3.750151,3.937988,0.11301,-0.282372,0.041997,31.48,66.839800498025
7972,-8.399406,-3.728616,3.97747,0.113774,-0.292452,0.043677,31.44,66.5964065097281
7982,-8.372486,-3.719643,4.023531,0.113163,-0.297797,0.045968,31.44,66.2901150567859
7992,-8.37129,-3.710072,4.068995,0.110872,-0.297797,0.046884,31.43,66.0406478614456
8002,-8.350353,-3.708875,4.110869,0.10736,-0.29291,0.046273,31.43,65.7762479277194
8012,-8.344371,-3.686144,4.148556,0.100793,-0.284052,0.045051,31.47,65.545321553221
8022,-8.333005,-3.691527,4.187439,0.095295,-0.270766,0.042761,31.47,65.3236999722468
8032,-8.321639,-3.678965,4.224528,0.087965,-0.254425,0.040928,31.45,65.0943007642818
8042,-8.310871,-3.663411,4.262814,0.078649,-0.233656,0.037263,31.45,64.8571969188487
8052,-8.306085,-3.654438,4.312464,0.069333,-0.210901,0.032529,31.43,64.5815066214538
8062,-8.291131,-3.643072,4.323831,0.059865,-0.15684,0.018784,31.43,64.4781331770081
8072,-8.276175,-3.652046,4.345964,0.041081,-0.12706,0.011606,31.46,64.339331056079
8082,-8.286345,-3.641876,4.35733,0.031918,-0.095448,0.004887,31.41,64.2937621104771
8092,-8.277969,-3.635894,4.366303,0.022144,-0.063225,-0.003971,31.41,64.2226875447434
8102,-8.283952,-3.639483,4.360321,0.013439,-0.02978,-0.012523,31.45,64.270585762967
8112,-8.27139,-3.638287,4.367499,0.005498,0.002902,-0.020769,31.45,64.203977236324
8122,-8.262416,-3.640081,4.360919,-0.002138,0.036346,-0.029932,31.44,64.2192037139813
8132,-8.269596,-3.644867,4.342973,-0.008094,0.068111,-0.037874,31.44,64.3326728357447
8142,-8.28455,-3.64068,4.329813,-0.013439,0.099113,-0.045815,31.45,64.4301067863952
8152,-8.289934,-3.641876,4.31725,-0.017562,0.12874,-0.05284,31.45,64.5081735091831
8162,-8.293524,-3.652046,4.305286,-0.021686,0.156534,-0.060018,31.43,64.5879877986878
8172,-8.298907,-3.645465,4.278367,-0.024129,0.180816,-0.065821,31.43,64.7325642855295
8182,-8.30489,-3.655635,4.258028,-0.02474,0.203724,-0.070402,31.46,64.8610562838269
8192,-8.317451,-3.663411,4.223332,-0.025198,0.224188,-0.074831,31.46,65.076159329919
8202,-8.320443,-3.671188,4.201199,-0.025045,0.241292,-0.078191,31.48,65.2051166495606
8212,-8.331809,-3.683152,4.174279,-0.023976,0.256105,-0.078649,31.48,65.3813745520806
8222,-8.338388,-3.692126,4.115057,-0.021533,0.267254,-0.080176,31.41,65.7127200001179
8232,-8.348558,-3.696313,4.09412,-0.018937,0.275348,-0.078802,31.41,65.8478899385194
8242,-8.366504,-3.718446,4.061816,-0.012523,0.281609,-0.077122,31.44,66.0759048365411
8252,-8.370691,-3.728018,4.030112,-0.009163,0.279929,-0.075289,31.43,66.2596865126774
8262,-8.390432,-3.731607,4.008576,-0.006109,0.2755,-0.072388,31.43,66.4172962859693
8272,-8.395219,-3.739982,3.97747,-0.002749,0.268475,-0.068264,31.39,66.5982078210607
8282,-8.39821,-3.745365,3.959523,0.000458,0.258549,-0.064599,31.39,66.7036580687347
8292,-8.406584,-3.756732,3.93739,0.004123,0.24679,-0.059712,31.44,66.8477526799013
8302,-8.409575,-3.765106,3.910471,0.00733,0.232129,-0.055589,31.44,67.0032723557209
8312,-8.423334,-3.765705,3.879962,0.010079,0.21533,-0.051771,31.47,67.1926678391855
8326,-8.438289,-3.781856,3.872185,0.012981,0.196393,-0.046884,31.47,67.278499630681
8332,-8.443673,-3.784249,3.845864,0.015272,0.175776,-0.042913,31.44,67.4303347200142
8342,-8.437093,-3.778267,3.84048,0.018326,0.154396,-0.039706,31.44,67.4402265176822
8352,-8.446664,-3.786642,3.821936,0.02138,0.131031,-0.036041,31.42,67.5648905051962
8362,-8.438289,-3.795017,3.806981,0.022755,0.106596,-0.033292,31.42,67.6348512994483
8372,-8.450253,-3.789633,3.799803,0.024893,0.081551,-0.029627,31.44,67.6918108659345
8382,-8.457432,-3.798606,3.796213,0.026878,0.056047,-0.026114,31.44,67.732999952507
8392,-8.441879,-3.792624,3.792026,0.029016,0.02978,-0.023824,31.46,67.7190793286519
8402,-8.455637,-3.790231,3.786642,0.030238,0.003054,-0.02138,31.46,67.7727091306749
8412,-8.448458,-3.784847,3.785445,0.032987,-0.050244,-0.016035,31.43,67.7600885407561
8422,-8.452048,-3.783053,3.804588,0.034208,-0.076053,-0.014966,31.43,67.6641891338386
8432,-8.449057,-3.77408,3.812963,0.035583,-0.101556,-0.013439,31.43,67.6059325862362
8442,-8.440681,-3.767499,3.821936,0.036805,-0.125991,-0.01069,31.44,67.5358628729402
8452,-8.43111,-3.774678,3.842873,0.038179,-0.148593,-0.009774,31.44,67.4123515336324
8462,-8.446067,-3.769892,3.851846,0.039859,-0.169668,-0.008247,31.42,67.3906770374947
8472,-8.426325,-3.74716,3.870391,0.041844,-0.189215,-0.006567,31.42,67.2325074303087
8482,-8.419745,-3.748955,3.899703,0.043219,-0.206167,-0.005803,31.44,67.0660644476533
8492,-8.411968,-3.734598,3.919443,0.043524,-0.220522,-0.005498,31.44,66.93306127673
8502,-8.401799,-3.733402,3.945765,0.045662,-0.232129,-0.004734,31.46,66.7724306280517
8512,-8.383254,-3.737589,3.981657,0.047342,-0.240986,-0.003818,31.46,66.5491295440719
8522,-8.385648,-3.71725,4.007978,0.049327,-0.245568,-0.002291,31.46,66.3970790060406
8532,-8.36471,-3.721437,4.03729,0.049786,-0.2474,-0.001527,31.46,66.2032955809988
8542,-8.350353,-3.716054,4.073183,0.049786,-0.245415,-0.000611,31.43,65.9798866538274
8552,-8.337791,-3.701697,4.10728,0.051313,-0.240375,0.000764,31.43,65.761169243225
8562,-8.330013,-3.696911,4.140181,0.051618,-0.231212,0.001222,31.43,65.5681793067199
8572,-8.296515,-3.681358,4.189234,0.052229,-0.218842,0.001527,31.43,65.2246679843969
8582,-8.269596,-3.665804,4.225127,0.052534,-0.183718,0.002291,31.45,64.963295817895
8592,-8.278568,-3.677171,4.243073,0.051924,-0.160963,0.003054,31.45,64.9012171434518
8602,-8.253444,-3.680161,4.271787,0.051924,-0.135459,0.003971,31.45,64.6993109903555
8612,-8.248059,-3.671786,4.282554,0.051465,-0.10797,0.004734,31.45,64.6230915267538
8622,-8.237292,-3.669992,4.302295,0.05116,-0.079412,0.004581,31.45,64.4948457049122
8632,-8.23131,-3.669394,4.305884,0.049938,-0.047953,0.00504,31.41,64.4621661715919
8642,-8.229516,-3.67059,4.316652,0.049022,-0.016341,0.004887,31.41,64.4036043479049
8652,-8.234302,-3.662813,4.318447,0.046884,0.016493,0.005956,31.48,64.3973140695298
8662,-8.236095,-3.676572,4.321437,0.045051,0.048869,0.005345,31.48,64.3997851824426
8672,-8.243872,-3.676572,4.319045,0.043066,0.081703,0.005345,31.43,64.4297076729811
8682,-8.251051,-3.67059,4.302894,0.040928,0.112552,0.004581,31.43,64.5233491486879
8692,-8.263614,-3.66042,4.287939,0.037721,0.141721,0.004887,31.49,64.6187981369212
8702,-8.268997,-3.681956,4.275974,0.034208,0.168752,0.001374,31.49,64.7141818400476
8712,-8.286943,-3.683152,4.267599,0.031154,0.194866,0,31.45,64.7986963367316
8722,-8.316854,-3.681956,4.238885,0.026725,0.216399,-0.002902,31.45,65.01233680196
8732,-8.336594,-3.684947,4.21735,0.023976,0.235336,-0.006414,31.43,65.1701157281505
8742,-8.362316,-3.696313,4.169494,0.0197,0.251371,-0.010232,31.43,65.4850918368649
8752,-8.404789,-3.699902,4.14078,0.014966,0.262825,-0.019395,31.45,65.7288177353647
8762,-8.421539,-3.704688,4.104887,0.006261,0.275348,-0.025656,31.46,65.9552516316251
8772,-8.438289,-3.719045,4.080959,0.002443,0.276111,-0.031918,31.46,66.1282908584946
8782,-8.454441,-3.724428,4.053442,-0.001833,0.272904,-0.03879,31.43,66.3101587915861
8792,-8.467602,-3.724428,4.016353,-0.00672,0.266795,-0.04612,31.43,66.5306175178296
8802,-8.477173,-3.734598,3.992425,-0.01069,0.257174,-0.053451,31.46,66.6843728657011
8812,-8.483154,-3.743571,3.964907,-0.014813,0.244193,-0.059559,31.46,66.8483970682628
8822,-8.492128,-3.745964,3.940381,-0.01909,0.228464,-0.065973,31.47,66.9970357499629
8832,-8.495118,-3.744768,3.916452,-0.022297,0.211054,-0.072388,31.47,67.1272902222251
8842,-8.490931,-3.750151,3.893123,-0.024435,0.192117,-0.078191,31.45,67.2459757328224
8852,-8.49452,-3.75733,3.876373,-0.027031,0.170584,-0.082925,31.45,67.3475249983562
8862,-8.483753,-3.758526,3.854239,-0.028253,0.147066,-0.086743,31.46,67.4434455820265
8872,-8.468798,-3.761517,3.830311,-0.029016,0.123242,-0.088881,31.46,67.5424082866901
8882,-8.47119,-3.769892,3.818945,-0.029169,0.098502,-0.091019,31.43,67.6146215661894
8892,-8.452048,-3.777669,3.811767,-0.027336,0.073609,-0.091324,31.43,67.6214067992616
8902,-8.44427,-3.769892,3.803392,-0.025198,0.048106,-0.089339,31.44,67.6433692752943
8912,-8.428718,-3.787838,3.790829,-0.022144,0.023213,-0.086285,31.44,67.6950569062393
8922,-8.406584,-3.778865,3.786642,-0.016799,-0.001985,-0.082314,31.45,67.6652446152297
8932,-8.374281,-3.775276,3.799204,-0.005192,-0.049938,-0.068417,31.42,67.530525292811
8942,-8.367702,-3.769294,3.798606,0.002138,-0.071929,-0.058643,31.42,67.5150707720357
8952,-8.359326,-3.771089,3.79382,0.010232,-0.093615,-0.048717,31.41,67.525370121256
8962,-8.348558,-3.771089,3.815954,0.019548,-0.112857,-0.03711,31.41,67.3856219642841
8972,-8.32463,-3.75733,3.82074,0.02978,-0.130725,-0.024435,31.41,67.298922220461
8982,-8.329416,-3.766901,3.834498,0.039706,-0.147677,-0.012523,31.41,67.2440830476662
8992,-8.328817,-3.753741,3.849453,0.049786,-0.163406,0.001069,31.43,67.1510514996573
9002,-8.325229,-3.752544,3.871587,0.06017,-0.177609,0.013897,31.43,67.0247854825921
9012,-8.33121,-3.739383,3.888935,0.069944,-0.189368,0.02642,31.41,66.9327127041979
9022,-8.327621,-3.737589,3.922434,0.078954,-0.199753,0.037721,31.41,66.7459095385754
9032,-8.3348,-3.735196,3.939184,0.087965,-0.207694,0.048411,31.46,66.6699332950129
9042,-8.34138,-3.729214,3.975077,0.09499,-0.214566,0.056963,31.46,66.4885297702539
9052,-8.361719,-3.713063,4.00379,0.101098,-0.218384,0.063225,31.47,66.3649505827976
9062,-8.367103,-3.708277,4.040879,0.104763,-0.219759,0.067348,31.47,66.1772010074595
9072,-8.365308,-3.702295,4.081557,0.107054,-0.218995,0.06918,31.44,65.9549685087764
9082,-8.370691,-3.691527,4.115057,0.107512,-0.215635,0.069333,31.44,65.7815642446239
9092,-8.383254,-3.675974,4.185047,0.10568,-0.209832,0.066279,31.44,65.4304432658475
9102,-8.390432,-3.667001,4.21077,0.097586,-0.189215,0.055436,31.44,65.3044873475378
9112,-8.392226,-3.661019,4.252046,0.089492,-0.175471,0.046731,31.43,65.0898702752784
9122,-8.378469,-3.654438,4.261019,0.081856,-0.158672,0.037263,31.43,65.0071654323389
9132,-8.380263,-3.650251,4.303492,0.072846,-0.139277,0.025809,31.43,64.7887832153592
9142,-8.367702,-3.646662,4.321437,0.062461,-0.11805,0.013439,31.48,64.6653797415918
9152,-8.363514,-3.640081,4.325625,0.050244,-0.094226,0.000611,31.48,64.6281892695297
9162,-8.340183,-3.647858,4.342973,0.039554,-0.068722,-0.011606,31.46,64.494663215416
9172,-8.331809,-3.649653,4.352544,0.028405,-0.041233,-0.023976,31.46,64.428573296279
9182,-8.325229,-3.659224,4.356134,0.016188,-0.012981,-0.036194,31.43,64.4048262217224
9192,-8.312068,-3.653242,4.360321,0.005651,0.016035,-0.047342,31.43,64.3478212187804
9202,-8.306684,-3.663411,4.359723,-0.004734,0.046731,-0.056963,31.47,64.3488436687186
9212,-8.291729,-3.661617,4.343571,-0.014355,0.077122,-0.065363,31.47,64.3962927456375
9222,-8.268997,-3.668795,4.335794,-0.022449,0.107665,-0.071929,31.47,64.3922149483563
9232,-8.263015,-3.686741,4.308876,-0.02978,0.137903,-0.076358,31.47,64.5355136720321
9242,-8.26481,-3.690929,4.301697,-0.036652,0.167072,-0.080023,31.39,64.5807952182466
9252,-8.26481,-3.696911,4.274778,-0.041386,0.194561,-0.082009,31.39,64.7259219322185
9262,-8.25464,-3.711866,4.22393,-0.045051,0.219606,-0.082925,31.48,64.9819522757311
9272,-8.26481,-3.71725,4.195216,-0.046731,0.263894,-0.07926,31.48,65.1591046019434
9282,-8.277372,-3.733402,4.140181,-0.047647,0.280998,-0.075747,31.43,65.489465109605
9292,-8.274979,-3.725625,4.121039,-0.04612,0.295048,-0.071471,31.45,65.5767658936951
9302,-8.302496,-3.736991,4.079762,-0.044288,0.304516,-0.067195,31.45,65.863258414121
9312,-8.31446,-3.74716,4.046263,-0.040775,0.310778,-0.063072,31.47,66.0742374929226
9322,-8.340183,-3.751348,4.014558,-0.037415,0.311389,-0.058032,31.47,66.2990653978502
9332,-8.361719,-3.756732,3.983452,-0.033292,0.309098,-0.05284,31.45,66.5126879956741
9342,-8.379066,-3.764508,3.936791,-0.029016,0.302226,-0.047953,31.45,66.8014717978817
9352,-8.403594,-3.766901,3.900899,-0.023366,0.290466,-0.043524,31.43,67.0431765913402
9362,-8.412566,-3.766303,3.881158,-0.017868,0.27382,-0.039859,31.43,67.1650657309102
9372,-8.444869,-3.772285,3.844069,-0.012828,0.254578,-0.036652,31.44,67.4314852881793
9382,-8.470592,-3.784847,3.833302,-0.006567,0.231365,-0.032834,31.44,67.5509039446467
9392,-8.465807,-3.782454,3.792624,-0.001374,0.20464,-0.030849,31.46,67.7542492570134
9402,-8.487941,-3.784249,3.775874,0.003971,0.174249,-0.028711,31.46,67.8880897207953
9412,-8.507083,-3.781856,3.760321,0.010385,0.141873,-0.026573,31.44,68.0057863476408
9422,-8.503493,-3.778267,3.735196,0.01573,0.107818,-0.024893,31.44,68.1287686106617
9432,-8.511868,-3.777071,3.726821,0.021533,0.072388,-0.022907,31.44,68.1884205776119
9442,-8.498111,-3.773481,3.714857,0.026573,0.036652,-0.018937,31.44,68.2221498293847
9452,-8.499905,-3.784847,3.720241,0.039248,-0.039248,-0.01573,31.46,68.2068363191362
9462,-8.489137,-3.788436,3.720241,0.045662,-0.075289,-0.012981,31.44,68.1890469672408
9472,-8.48136,-3.781856,3.734,0.051313,-0.110414,-0.009316,31.44,68.0951147902651
9482,-8.46461,-3.78066,3.75075,0.05681,-0.144775,-0.003665,31.43,67.9723425657455
9492,-8.458628,-3.762714,3.771089,0.062919,-0.176235,0,31.43,67.8368244092376
9502,-8.445468,-3.756732,3.796213,0.067348,-0.20464,0.004581,31.45,67.67214229634
9512,-8.425129,-3.751946,3.819543,0.071013,-0.230602,0.009774,31.45,67.5035138503907
9522,-8.413164,-3.753741,3.862614,0.074984,-0.252593,0.015577,31.42,67.2528961576254
9532,-8.39462,-3.745365,3.900301,0.078343,-0.270002,0.020159,31.42,67.0083258374355
9542,-8.371889,-3.731009,3.94397,0.07926,-0.283289,0.024282,31.44,66.7178157132747
9552,-8.353942,-3.727419,3.988835,0.079565,-0.292452,0.028405,31.44,66.4406929234684
9562,-8.356335,-3.715455,4.018745,0.079718,-0.295353,0.031612,31.46,66.2772864945166
9572,-8.347363,-3.714259,4.066602,0.078954,-0.294284,0.033598,31.46,66.0062530666464
9582,-8.331809,-3.7005,4.113262,0.075747,-0.289245,0.034208,31.45,65.7159208020997
9592,-8.315658,-3.689733,4.159324,0.071777,-0.278096,0.034667,31.45,65.4303694024519
9602,-8.298308,-3.681358,4.195815,0.067348,-0.262672,0.033598,31.45,65.1943702504174
9612,-8.283354,-3.674777,4.265206,0.061392,-0.244957,0.03207,31.45,64.7948137378103
9622,-8.291729,-3.654438,4.28734,0.047342,-0.195324,0.02306,31.43,64.6789722792112
9632,-8.273185,-3.649653,4.317849,0.040164,-0.167835,0.01741,31.43,64.4750693792632
9642,-8.267202,-3.640081,4.335794,0.032376,-0.137597,0.010537,31.43,64.3594682114594
9652,-8.275578,-3.64068,4.344768,0.024282,-0.106291,0.003818,31.47,64.3328019149031
9662,-8.269596,-3.650849,4.351348,0.01573,-0.073304,-0.003207,31.47,64.2955346129453
9672,-8.276175,-3.646064,4.359723,0.007941,-0.039248,-0.010537,31.45,64.2625897034133
9682,-8.277372,-3.649055,4.356732,0.001069,-0.005803,-0.018021,31.45,64.2836677547495
9692,-8.268997,-3.641876,4.354938,-0.005651,0.02642,-0.025809,31.44,64.2667290654267
9702,-8.285748,-3.649653,4.341777,-0.011759,0.058338,-0.031765,31.44,64.3801252840215
9712,-8.283354,-3.641278,4.325625,-0.016799,0.08827,-0.036652,31.42,64.4495827306101
9722,-8.279764,-3.652644,4.305286,-0.020464,0.117897,-0.041997,31.42,64.5576880087511
9732,-8.286345,-3.655635,4.27717,-0.023824,0.144164,-0.04612,31.44,64.7206884506099
9742,-8.288139,-3.665206,4.262215,-0.025198,0.167683,-0.049327,31.44,64.8115122747416
9752,-8.285748,-3.665206,4.226323,-0.025351,0.189674,-0.050855,31.45,64.9923180209608
9762,-8.301898,-3.667001,4.198806,-0.024893,0.206778,-0.051618,31.45,65.172735598838
9772,-8.319246,-3.681358,4.17069,-0.022297,0.222202,-0.050244,31.43,65.3709220234609
9782,-8.313264,-3.696911,4.112664,-0.020006,0.233198,-0.049175,31.43,65.6756145651634
9792,-8.327621,-3.702893,4.089334,-0.016646,0.245873,-0.045357,31.47,65.8342877060065
9802,-8.353344,-3.711866,4.052245,-0.008247,0.248317,-0.041081,31.43,66.0918819994712
9812,-8.365907,-3.713063,4.032505,-0.003818,0.246331,-0.037415,31.43,66.223044625149
9822,-8.368897,-3.729812,4.013362,0.000458,0.242972,-0.033598,31.45,66.3454155424315
9832,-8.382057,-3.734598,3.993023,0.004276,0.236405,-0.030696,31.45,66.4841656687663
9842,-8.419147,-3.747759,3.975077,0.00733,0.2277,-0.028405,31.45,66.6674809863834
9852,-8.407781,-3.74716,3.96072,0.010232,0.216704,-0.026878,31.45,66.7187916764065
9862,-8.431709,-3.752544,3.941577,0.012828,0.204029,-0.025962,31.46,66.8734535236192
9872,-8.442476,-3.757928,3.92722,0.015424,0.190285,-0.02474,31.46,66.975746738013
9882,-8.44427,-3.766901,3.929015,0.016188,0.174097,-0.025656,31.43,66.9781270221081
9892,-8.456833,-3.754937,3.911667,0.016035,0.157451,-0.027336,31.43,67.0839405976565
9902,-8.465807,-3.77049,3.906881,0.015272,0.140194,-0.029474,31.45,67.1412622095817
9912,-8.469396,-3.77049,3.903292,0.014508,0.122631,-0.031918,31.45,67.1673541806096
9922,-8.466404,-3.77408,3.898506,0.012981,0.103389,-0.034361,31.41,67.1896738746766
9932,-8.484949,-3.77408,3.887738,0.010996,0.084605,-0.038026,31.41,67.2835433083033
9942,-8.474181,-3.772883,3.881757,0.008552,0.06521,-0.04047,31.43,67.292261151284
9952,-8.458031,-3.78066,3.88056,0.007025,0.046578,-0.043066,31.43,67.2730593285781
9962,-8.446067,-3.782454,3.861418,0.004734,0.026573,-0.047953,31.44,67.3514506490446
9972,-8.4347,-3.768696,3.862614,0.001527,-0.013439,-0.048411,31.42,67.3098938889647
9982,-8.436494,-3.773481,3.860819,0.001374,-0.032376,-0.048717,31.42,67.3272906571005
9992,-8.428718,-3.77049,3.87398,0.000764,-0.051924,-0.048564,31.46,67.2394542459872
10002,-8.412566,-3.771687,3.860221,0.001833,-0.070555,-0.046578,31.46,67.2805777773761
10012,-8.409575,-3.78066,3.861418,0.003054,-0.088881,-0.042913,31.4,67.2763444006003
10022,-8.388638,-3.768696,3.872783,0.004581,-0.106138,-0.039401,31.4,67.1629171218812
10032,-8.377273,-3.763312,3.864408,0.00733,-0.123395,-0.034667,31.43,67.1792408332942
10042,-8.370093,-3.762115,3.87398,0.011148,-0.138514,-0.028405,31.43,67.112786562957
10052,-8.359925,-3.75075,3.891328,0.015119,-0.153022,-0.021075,31.44,66.9896149807904
10062,-8.355139,-3.753142,3.905087,0.019395,-0.165697,-0.013897,31.44,66.9091241514398
10072,-8.350951,-3.748357,3.926024,0.025656,-0.17654,-0.00672,31.42,66.7852902019414
10082,-8.352147,-3.738786,3.936193,0.030849,-0.186925,-0.000153,31.42,66.7251348079429
10092,-8.341978,-3.732205,3.961318,0.036194,-0.194408,0.007636,31.43,66.5651605288124
10102,-8.328219,-3.720241,3.984648,0.043066,-0.198989,0.014661,31.43,66.4020117175627
10112,-8.326425,-3.702295,4.013362,0.048106,-0.20296,0.020617,31.43,66.229997271159
10122,-8.327621,-3.701697,4.045067,0.053145,-0.203571,0.026878,31.43,66.0652302189555
10132,-8.328817,-3.681358,4.092325,0.057727,-0.201738,0.031918,31.43,65.8006896172347
10142,-8.327023,-3.678366,4.128217,0.063225,-0.191201,0.037721,31.45,65.6063345995489
10152,-8.334201,-3.683152,4.156333,0.063835,-0.181885,0.037568,31.45,65.4799254488107
10162,-8.334201,-3.67059,4.190431,0.064599,-0.169515,0.036346,31.45,65.2905850541167
10172,-8.322835,-3.672385,4.214957,0.063835,-0.153785,0.03543,31.45,65.1401446171112
10182,-8.323434,-3.654438,4.251448,0.061392,-0.137292,0.031154,31.42,64.9350711458973
10192,-8.315658,-3.667599,4.27059,0.058032,-0.117286,0.026725,31.42,64.8317476057295
10202,-8.325827,-3.652046,4.284349,0.054672,-0.095142,0.021533,31.46,64.7681428905522
10212,-8.31446,-3.661617,4.287939,0.049938,-0.070402,0.016341,31.46,64.7336845469197
10222,-8.312666,-3.650251,4.305884,0.045051,-0.045357,0.009468,31.45,64.6260164231933
10232,-8.295916,-3.66042,4.326822,0.038943,-0.018021,0.003054,31.45,64.4906778480381
10242,-8.278568,-3.667001,4.323831,0.032834,0.010385,-0.003818,31.46,64.4736172277009
10252,-8.294122,-3.669394,4.322036,0.02642,0.039401,-0.00901,31.46,64.5201882197611
10262,-8.283354,-3.659822,4.31725,0.020311,0.06857,-0.014966,31.44,64.511157205806
10272,-8.289934,-3.665206,4.31725,0.01405,0.096669,-0.020464,31.44,64.5312829447116
10282,-8.286943,-3.671786,4.295117,0.007941,0.12538,-0.025809,31.48,64.6452515335846
10292,-8.285748,-3.681358,4.279563,0.002596,0.152105,-0.028711,31.48,64.732403141836
10302,-8.279166,-3.686741,4.241278,-0.002443,0.177151,-0.032529,31.39,64.9212975539441
10312,-8.297711,-3.701099,4.21077,-0.00672,0.222355,-0.037263,31.39,65.1346493452365
10322,-8.301898,-3.706482,4.188038,-0.014508,0.240375,-0.03879,31.43,65.2671851741286
10332,-8.31147,-3.714857,4.159324,-0.017104,0.254578,-0.039859,31.41,65.445590892807
10342,-8.330612,-3.725027,4.12403,-0.020006,0.26649,-0.04047,31.41,65.6806825372509
10352,-8.346764,-3.728616,4.085745,-0.021533,0.275042,-0.039859,31.43,65.9185113359237
10362,-8.35813,-3.731607,4.051049,-0.022755,0.278096,-0.039401,31.43,66.1269152229541
10372,-8.372486,-3.729812,4.026522,-0.024129,0.278096,-0.040012,31.47,66.2839541189477
10382,-8.389835,-3.742973,4.001398,-0.025045,0.274737,-0.039859,31.47,66.4642432873361
10392,-8.419745,-3.754339,3.965506,-0.025198,0.266795,-0.040012,31.45,66.7249462142978
10402,-8.4347,-3.759723,3.926622,-0.024893,0.255342,-0.039859,31.45,66.9646575118328
10412,-8.450851,-3.75733,3.906881,-0.024435,0.24007,-0.039859,31.42,67.0991092914602
10422,-8.459227,-3.756134,3.881757,-0.023976,0.221286,-0.040164,31.42,67.2471535839939
10432,-8.475378,-3.759723,3.856034,-0.02306,0.199142,-0.04215,31.47,67.4182914706211
10442,-8.480762,-3.77049,3.835097,-0.022755,0.174707,-0.04444,31.47,67.5489429581909
10452,-8.496913,-3.760919,3.817749,-0.020769,0.147982,-0.045204,31.44,67.6640911601232
10462,-8.498708,-3.764508,3.802794,-0.018631,0.119882,-0.046731,31.44,67.7497182760808
10472,-8.512466,-3.765705,3.786642,-0.016952,0.088881,-0.048106,31.39,67.8631612078335
10482,-8.502296,-3.773481,3.775276,-0.014813,0.057727,-0.051771,31.39,67.91002696795
10492,-8.490333,-3.765106,3.765106,-0.007178,-0.005956,-0.051924,31.46,67.933089366473
10502,-8.489736,-3.760321,3.773481,-0.003207,-0.038026,-0.051924,31.46,67.8833839762515
10512,-8.471789,-3.759125,3.778267,0.002291,-0.06857,-0.049327,31.46,67.8215968529787
10522,-8.461619,-3.762714,3.784249,0.007789,-0.098807,-0.047342,31.43,67.7729261080952
10532,-8.435897,-3.75075,3.795615,0.013592,-0.126602,-0.045051,31.43,67.650946672909
10542,-8.426923,-3.76391,3.815356,0.020006,-0.151495,-0.039706,31.45,67.5400013315776
10552,-8.400601,-3.755535,3.82732,0.027642,-0.175166,-0.034208,31.45,67.4161492363436
10562,-8.395219,-3.75075,3.847061,0.034819,-0.19563,-0.027642,31.44,67.2962153525548
10572,-8.366504,-3.757928,3.868596,0.042455,-0.213345,-0.020769,31.44,67.1301667324009
10582,-8.355139,-3.74058,3.90389,0.050244,-0.227395,-0.012675,31.45,66.9038571499928
10592,-8.343773,-3.729214,3.932604,0.058643,-0.239001,-0.003512,31.45,66.7178330263448
10602,-8.320443,-3.733402,3.964309,0.06521,-0.246179,0.004734,31.43,66.505435979484
10612,-8.309675,-3.723232,3.991228,0.071166,-0.250149,0.012981,31.43,66.3310284226402
10622,-8.30489,-3.714259,4.02413,0.077274,-0.250455,0.020464,31.44,66.1388917198495
10632,-8.289336,-3.718446,4.053442,0.081703,-0.246179,0.029016,31.44,65.9554199208022
10642,-8.299506,-3.709473,4.134798,0.085368,-0.240223,0.035583,31.42,65.5422957929623
10652,-8.283354,-3.698107,4.164708,0.087812,-0.229074,0.040775,31.42,65.3399512276836
10662,-8.283354,-3.678366,4.19402,0.08659,-0.199906,0.047189,31.41,65.1678975407187
10672,-8.287541,-3.669394,4.22094,0.084299,-0.180511,0.0478,31.43,65.0283518765433
10682,-8.283952,-3.66401,4.247859,0.080023,-0.159436,0.046731,31.43,64.8753979081771
10692,-8.282157,-3.659822,4.274778,0.074373,-0.13607,0.043677,31.47,64.727835807426
10702,-8.287541,-3.656831,4.289733,0.067195,-0.111177,0.03879,31.47,64.6595989368877
10712,-8.308478,-3.654438,4.314857,0.059254,-0.085521,0.032529,31.44,64.5745447311578
10722,-8.305488,-3.645465,4.325027,0.050396,-0.058796,0.025504,31.44,64.5066364244979
10732,-8.325229,-3.64726,4.325625,0.040623,-0.031612,0.017104,31.45,64.5496220690496
10743,-8.321041,-3.663411,4.338786,0.030085,-0.003665,0.00733,31.45,64.4885339783983
10752,-8.321041,-3.656233,4.33041,0.019242,0.023824,-0.002596,31.43,64.5244708105288
10762,-8.333005,-3.651447,4.334,0.008705,0.051313,-0.012675,31.43,64.5281335449677
10772,-8.324032,-3.658626,4.326224,-0.001069,0.076969,-0.02306,31.45,64.5550319006296
10782,-8.320443,-3.66401,4.310072,-0.011454,0.101709,-0.033139,31.45,64.6353563236441
10792,-8.325229,-3.661617,4.298706,-0.020311,0.126144,-0.042761,31.43,64.7021883741555
10802,-8.330612,-3.666403,4.271787,-0.028558,0.147982,-0.050855,31.43,64.8575701011001
10812,-8.336594,-3.680161,4.259823,-0.035888,0.168752,-0.05849,31.45,64.9459339980614
10822,-8.333604,-3.695116,4.209573,-0.042302,0.187077,-0.065057,31.45,65.2137027819997
10832,-8.335996,-3.708875,4.181458,-0.045968,0.217621,-0.072388,31.45,65.3780190141722
10842,-8.329416,-3.705286,4.156931,-0.050855,0.229533,-0.074526,31.43,65.4877246857615
10852,-8.332406,-3.712464,4.118646,-0.051007,0.238543,-0.074984,31.43,65.7005591657505
10862,-8.352147,-3.725625,4.088138,-0.049327,0.245415,-0.072998,31.45,65.914642018338
10872,-8.340183,-3.733402,4.061218,-0.046426,0.248928,-0.071319,31.45,66.0373380425243
10882,-8.337791,-3.736991,4.02413,-0.042608,0.251218,-0.067501,31.41,66.2301671422718
10892,-8.347363,-3.742973,4.001398,-0.037568,0.249997,-0.063072,31.41,66.3754045188157
10902,-8.355139,-3.757928,3.978068,-0.03207,0.244652,-0.057574,31.42,66.5284147843713
10912,-8.352745,-3.75733,3.945167,-0.026878,0.239001,-0.051924,31.42,66.6962459741404
10922,-8.371889,-3.769294,3.923033,-0.020311,0.229685,-0.04612,31.46,66.8636811298921
10932,-8.382656,-3.763312,3.906881,-0.013134,0.217926,-0.039401,31.46,66.9655232482304
10942,-8.394022,-3.765106,3.876373,-0.006567,0.203724,-0.032834,31.39,67.1515942475302
10952,-8.400601,-3.774678,3.867399,0,0.186008,-0.027336,31.39,67.2211299024977
10962,-8.412566,-3.775874,3.844069,0.006872,0.167224,-0.020922,31.44,67.3698203149949
10972,-8.43111,-3.779463,3.829114,0.013439,0.145997,-0.016188,31.44,67.4894314211503
10982,-8.438289,-3.778267,3.812365,0.0197,0.123089,-0.012217,31.45,67.5913760674555
10992,-8.44128,-3.79382,3.79741,0.026114,0.098655,-0.008399,31.45,67.6904223291946
11002,-8.474779,-3.78724,3.793222,0.031154,0.044288,-0.00168,31.41,67.7730293212656
11012,-8.474779,-3.768098,3.786642,0.04047,0.015577,0.000458,31.48,67.7910050817732
11022,-8.489137,-3.766303,3.795017,0.044135,-0.013744,0.001374,31.48,67.7734772637385
11032,-8.480762,-3.762115,3.799803,0.047495,-0.042608,0.002749,31.43,67.7279375586034
11042,-8.48136,-3.754339,3.80399,0.050091,-0.070708,0.003207,31.43,67.7001529523606
11052,-8.472985,-3.759125,3.818945,0.052687,-0.098197,0.003665,31.41,67.6086759867566
11062,-8.478369,-3.756134,3.832704,0.054825,-0.123853,0.004429,31.41,67.5441026537813
11072,-8.467602,-3.747759,3.860221,0.055741,-0.149204,0.004887,31.46,67.3699916316631
11083,-8.464012,-3.744768,3.872185,0.056047,-0.171959,0.003971,31.46,67.2970536651798
11092,-8.440681,-3.73041,3.893123,0.055741,-0.191964,0.00336,31.41,67.126626815803
11102,-8.438289,-3.739383,3.930809,0.055436,-0.209069,0.002291,31.41,66.9315186252477
11112,-8.432307,-3.723232,3.954738,0.054214,-0.221591,0.001985,31.39,66.7788904633779
11122,-8.409575,-3.716652,3.98405,0.053145,-0.23274,0.001222,31.39,66.5719902960484
11132,-8.386245,-3.71067,4.016353,0.051007,-0.239917,0,31.46,66.348303578316
11142,-8.380861,-3.698107,4.045665,0.048258,-0.243277,-0.000305,31.46,66.1717233912432
11152,-8.380263,-3.691527,4.071388,0.044899,-0.242972,-0.002138,31.39,66.0297996569066
11162,-8.358727,-3.689135,4.139583,0.042455,-0.239154,-0.004276,31.39,65.6258889109207
11172,-8.319845,-3.680759,4.166502,0.039554,-0.230907,-0.005651,31.39,65.3934493788773
11182,-8.297711,-3.672385,4.191627,0.032681,-0.206014,-0.006872,31.44,65.2061071682997
11192,-8.293524,-3.672983,4.213162,0.028863,-0.187841,-0.008705,31.44,65.0854912906761
11202,-8.288139,-3.669394,4.242475,0.025045,-0.167683,-0.010079,31.45,64.917908821188
11212,-8.262416,-3.665206,4.258626,0.021686,-0.145233,-0.011454,31.45,64.7727370422585
11222,-8.262416,-3.668795,4.262215,0.018173,-0.119577,-0.01237,31.37,64.7576822024235
11232,-8.257033,-3.652046,4.28076,0.015119,-0.093157,-0.014966,31.37,64.6328683146912
11242,-8.258228,-3.652644,4.289135,0.012065,-0.065668,-0.015119,31.42,64.5927734792265
11252,-8.246863,-3.652644,4.292126,0.009468,-0.03711,-0.016188,31.42,64.5516998751729
11262,-8.248059,-3.648456,4.290929,0.00733,-0.008094,-0.017104,31.45,64.5564178224863
11272,-8.245069,-3.665206,4.289733,0.004734,0.020006,-0.018784,31.45,64.5726061761393
11282,-8.243872,-3.66042,4.288536,0.003512,0.048564,-0.01909,31.4,64.5713270794438
11292,-8.261818,-3.661019,4.267001,0.002291,0.074984,-0.019548,31.4,64.7238169704035
11302,-8.267202,-3.668795,4.266403,0.00168,0.10064,-0.020159,31.45,64.7466666845562
11312,-8.274979,-3.674777,4.258028,0.000458,0.124464,-0.01909,31.45,64.8133368662841
11322,-8.285748,-3.667001,4.23051,0.000764,0.147066,-0.018479,31.42,64.9723362389633
11332,-8.294122,-3.671188,4.207779,0.001069,0.166155,-0.019548,31.42,65.1130325182491
11342,-8.308478,-3.681956,4.17727,0.001069,0.183565,-0.0197,31.45,65.3137306334698
11352,-8.322237,-3.701697,4.149154,0.00336,0.210749,-0.018631,31.45,65.5091887093856
11362,-8.338987,-3.696911,4.122235,0.004276,0.219911,-0.018937,31.45,65.6811229350018
11372,-8.356933,-3.702295,4.103691,0.006109,0.226326,-0.0197,31.45,65.8215339769239
11382,-8.376076,-3.707081,4.082754,0.007636,0.229533,-0.019853,31.45,65.9761545548536
11392,-8.387442,-3.731009,4.064209,0.008858,0.230907,-0.0197,31.46,66.1195132099712
11402,-8.4012,-3.732205,4.042674,0.009927,0.229227,-0.021075,31.46,66.2620178293225
11412,-8.402995,-3.726821,4.014558,0.010843,0.225562,-0.021228,31.46,66.4077792943532
11422,-8.421539,-3.734598,4.000201,0.010385,0.218537,-0.02306,31.46,66.5287399195086
11432,-8.434101,-3.749553,3.988237,0.011759,0.209985,-0.024893,31.43,66.6311054872453
11442,-8.44427,-3.756134,3.964907,0.012217,0.1996,-0.026878,31.43,66.7801621294507
11452,-8.449656,-3.753142,3.943372,0.011912,0.18723,-0.029627,31.42,66.9013027687372
11462,-8.456235,-3.751348,3.929613,0.010843,0.171653,-0.032376,31.42,66.9852682779574
11472,-8.464012,-3.765705,3.917051,0.010232,0.156534,-0.034819,31.44,67.0799432802024
11482,-8.46102,-3.759723,3.906881,0.009468,0.138972,-0.03711,31.44,67.1218824887566
11492,-8.461619,-3.771687,3.896712,0.006872,0.119882,-0.042608,31.44,67.1872888439105
11502,-8.467003,-3.768098,3.89073,0.005956,0.100182,-0.04444,31.44,67.2263640250538
11512,-8.475378,-3.775874,3.871587,0.004123,0.080329,-0.047189,31.41,67.3508093331525
11522,-8.454441,-3.778865,3.870989,0.003971,0.038637,-0.050091,31.41,67.314609128779
11532,-8.446664,-3.772883,3.869792,0.002138,0.017562,-0.051771,31.45,67.2998951304179
11542,-8.460423,-3.775874,3.859623,0.001527,-0.003207,-0.052534,31.43,67.3838145449362
11552,-8.441879,-3.771089,3.86381,0.001069,-0.023366,-0.053298,31.43,67.3201944366749
11563,-8.448458,-3.775874,3.873382,0.001833,-0.043982,-0.052687,31.44,67.2872788458957
11572,-8.428718,-3.769294,3.872185,0.002902,-0.063072,-0.051007,31.44,67.247845287876
11582,-8.406584,-3.771089,3.874578,0.003971,-0.080634,-0.047342,31.45,67.1920385964551
11592,-8.410173,-3.768098,3.879364,0.005803,-0.098349,-0.044288,31.45,67.1713149688358
11602,-8.389835,-3.760919,3.891926,0.008705,-0.114079,-0.041081,31.48,67.0570122079731
11612,-8.379665,-3.752544,3.905087,0.012523,-0.128893,-0.035277,31.48,66.9589724173724
11622,-8.380263,-3.758526,3.923033,0.017257,-0.141263,-0.029016,31.43,66.8709498887707
11632,-8.365907,-3.732205,3.933203,0.020922,-0.152105,-0.022602,31.43,66.7633522134677
11642,-8.359925,-3.73041,3.940979,0.025962,-0.161574,-0.016799,31.43,66.7082274635957
11652,-8.345568,-3.729214,3.958925,0.030849,-0.169057,-0.010232,31.43,66.5824934148071
11662,-8.343175,-3.724428,3.982853,0.036499,-0.175318,-0.003054,31.4,66.4468221281262
11672,-8.331809,-3.710072,4.001398,0.041233,-0.179442,0.001833,31.4,66.3117221447579
11682,-8.33121,-3.712464,4.0337,0.046731,-0.180663,0.008094,31.47,66.1427647632229
11692,-8.327023,-3.683152,4.053442,0.051771,-0.180053,0.019548,31.47,66.0024180312816
11702,-8.327023,-3.692126,4.084548,0.060628,-0.174402,0.022907,31.45,65.8477990470003
11712,-8.324032,-3.674777,4.103691,0.062766,-0.168904,0.025351,31.45,65.7246251711695
11722,-8.320443,-3.681956,4.127021,0.065821,-0.16081,0.027184,31.45,65.6017657638908
11732,-8.325229,-3.667599,4.156333,0.068264,-0.149967,0.028863,31.43,65.4454838145864
11742,-8.31147,-3.664608,4.182056,0.067959,-0.138056,0.028711,31.43,65.2785798664174
11752,-8.324032,-3.656831,4.198207,0.067348,-0.123853,0.027336,31.4,65.2146577394333
11762,-8.321639,-3.669992,4.212564,0.065821,-0.106901,0.024129,31.4,65.1476055710709
11772,-8.322237,-3.665804,4.241877,0.063377,-0.090255,0.020159,31.46,64.9929914326574
11782,-8.307282,-3.661019,4.261019,0.059559,-0.071166,0.015577,31.46,64.8561666915424
11792,-8.321639,-3.66401,4.271787,0.055894,-0.049786,0.011454,31.43,64.8353335625433
11802,-8.313862,-3.66042,4.279563,0.049938,-0.027794,0.006261,31.43,64.7743969226141
11812,-8.306085,-3.665206,4.28734,0.043982,-0.003818,0.000611,31.46,64.7216359695838
11822,-8.309077,-3.665804,4.289733,0.038179,0.020769,-0.004734,31.46,64.7165483101927
11832,-8.300702,-3.67059,4.294518,0.030696,0.045815,-0.010996,31.45,64.67790115791
11842,-8.306085,-3.666403,4.295715,0.02306,0.070402,-0.016952,31.45,64.6796139982399
11852,-8.3013,-3.665206,4.287939,0.016646,0.095753,-0.023824,31.41,64.707872686042
11862,-8.300103,-3.677768,4.265805,0.009468,0.12034,-0.027489,31.41,64.8319128961169
11872,-8.305488,-3.693322,4.250251,-0.004429,0.166919,-0.036805,31.44,64.9395708854956
11882,-8.30489,-3.701099,4.246064,-0.01069,0.187383,-0.040164,31.44,64.9675547623268
11892,-8.306684,-3.70409,4.210171,-0.016952,0.205556,-0.043066,31.44,65.1603842375115
11902,-8.310272,-3.704688,4.183851,-0.020922,0.222813,-0.044746,31.43,65.3054990472485
11912,-8.316854,-3.708875,4.16411,-0.024587,0.236863,-0.046578,31.43,65.4265733442701
11922,-8.334201,-3.723232,4.128816,-0.028405,0.247095,-0.047495,31.44,65.661732104244
11932,-8.34796,-3.72383,4.097709,-0.030696,0.255036,-0.047953,31.44,65.8540326548839
11942,-8.352745,-3.727419,4.060022,-0.03207,0.25916,-0.048106,31.44,66.0645868398384
11952,-8.352745,-3.748357,4.027719,-0.032376,0.260839,-0.04612,31.44,66.253595054122
11962,-8.385648,-3.754937,3.989433,-0.031612,0.25748,-0.044593,31.45,66.5294097350971
11973,-8.397612,-3.753142,3.966104,-0.02978,0.250455,-0.043677,31.45,66.6750206876064
11982,-8.400601,-3.757928,3.929613,-0.028558,0.240375,-0.042302,31.43,66.8774985484849
11992,-8.409575,-3.760919,3.900899,-0.025809,0.226631,-0.04047,31.43,67.0499100552877
12002,-8.429317,-3.763312,3.875176,-0.022449,0.209679,-0.038637,31.43,67.2278691128355
12012,-8.443673,-3.760321,3.859623,-0.018784,0.189368,-0.037874,31.43,67.3362318753068
12022,-8.464012,-3.772883,3.831507,-0.015119,0.166766,-0.035888,31.41,67.5366340938938
12032,-8.463414,-3.772883,3.796213,-0.01069,0.140041,-0.033903,31.41,67.7220597664143
12042,-8.479566,-3.769892,3.779463,-0.005803,0.082772,-0.031612,31.43,67.840039852912
12052,-8.495118,-3.77049,3.769294,0.004734,0.051924,-0.030238,31.41,67.9249903369236
12062,-8.501101,-3.778865,3.767499,0.010537,0.020006,-0.029322,31.41,67.9535097833741
12072,-8.491529,-3.771089,3.77049,0.016188,-0.01237,-0.028405,31.43,67.9121350676246
12082,-8.501699,-3.78066,3.780062,0.021228,-0.044593,-0.0281,31.43,67.8898095328084
12092,-8.495118,-3.769892,3.795017,0.027184,-0.076053,-0.02642,31.42,67.7884225529048
12102,-8.490333,-3.759125,3.790829,0.033292,-0.105832,-0.024129,31.42,67.7917025131934
12112,-8.482555,-3.763312,3.81057,0.038637,-0.134238,-0.022602,31.42,67.6756290130601
12122,-8.461619,-3.752544,3.830909,0.04383,-0.160963,-0.021075,31.42,67.5169585689115
12132,-8.449057,-3.741179,3.863212,0.048258,-0.184634,-0.019395,31.43,67.311007105643
12142,-8.437692,-3.741776,3.896114,0.053145,-0.20464,-0.016493,31.43,67.1150190109787
12152,-8.420941,-3.735795,3.921836,0.057116,-0.221897,-0.014203,31.46,66.939939712349
12162,-8.406584,-3.728616,3.947559,0.060018,-0.23442,-0.012065,31.46,66.7684822086759
12172,-8.376076,-3.727419,3.976273,0.062766,-0.244041,-0.009621,31.46,66.5530460403154
12182,-8.362915,-3.732205,4.015755,0.065973,-0.248775,-0.006109,31.46,66.3225373672471
12192,-8.344969,-3.712464,4.046263,0.067501,-0.249844,-0.002138,31.47,66.1060244646686
12202,-8.330612,-3.698107,4.129414,0.067806,-0.24679,0.000611,31.47,65.6267556416961
12212,-8.29472,-3.695116,4.150949,0.067042,-0.239306,0.004581,31.43,65.4336449214624
12222,-8.291131,-3.685545,4.179663,0.063225,-0.213803,0.007025,31.44,65.2667674525578
12232,-8.274979,-3.682554,4.203591,0.06017,-0.195935,0.008094,31.44,65.1037148426829
12242,-8.260024,-3.679563,4.222734,0.056047,-0.174555,0.009774,31.43,64.9680660329138
12252,-8.25165,-3.672385,4.255635,0.052076,-0.151647,0.010232,31.43,64.7713302642696
12262,-8.250452,-3.667599,4.273581,0.047037,-0.126449,0.009774,31.46,64.6707835983008
12272,-8.251051,-3.666403,4.283751,0.04215,-0.099571,0.008247,31.46,64.6182332392651
12282,-8.247462,-3.666403,4.299902,0.036346,-0.071471,0.006872,31.49,64.5265507417302
12292,-8.25464,-3.671188,4.292724,0.030543,-0.042913,0.00504,31.49,64.5846200827926
12302,-8.263015,-3.669394,4.296911,0.024893,-0.01405,0.001222,31.46,64.5799847309143
12312,-8.258827,-3.667599,4.301099,0.018631,0.013744,-0.001222,31.46,64.547133131647
12322,-8.268997,-3.66401,4.293322,0.012523,0.041386,-0.003971,31.46,64.6066055089665
12332,-8.274979,-3.661019,4.295117,0.007025,0.067959,-0.008094,31.46,64.6077769038707
12342,-8.280362,-3.66401,4.277769,0.002138,0.093462,-0.012675,31.41,64.7124882748993
12352,-8.297112,-3.674777,4.267599,-0.003207,0.116064,-0.01741,31.41,64.8130471344049
12362,-8.298308,-3.67059,4.259823,-0.007178,0.137445,-0.019548,31.42,64.8518058249811
12372,-8.32463,-3.677171,4.226922,-0.010232,0.156687,-0.022907,31.42,65.0867371679178
12382,-8.328817,-3.681358,4.191627,-0.013897,0.17318,-0.027336,31.44,65.2829914453243
12392,-8.352745,-3.69392,4.171886,-0.018784,0.200211,-0.033292,31.45,65.4496557552808
12402,-8.362915,-3.701099,4.133003,-0.020769,0.208152,-0.036652,31.45,65.6805267283035
12412,-8.373085,-3.701099,4.122235,-0.020922,0.214414,-0.039248,31.41,65.7583836774248
12422,-8.374281,-3.709473,4.091727,-0.020769,0.218537,-0.040012,31.41,65.9277793156393
12432,-8.401799,-3.714259,4.072584,-0.020464,0.220217,-0.04047,31.42,66.0904690293422
12442,-8.400003,-3.717848,4.051049,-0.0197,0.219301,-0.042608,31.42,66.2023815772536
12582,-8.432905,-3.769892,3.854837,0.031001,0.007483,-0.016799,31.45,67.3484249994163
12592,-8.432307,-3.775874,3.855436,0.034056,-0.013134,-0.015424,31.45,67.3494429640731
12602,-8.43111,-3.771687,3.853043,0.036957,-0.033292,-0.013439,31.41,67.3559063844493
12612,-8.42812,-3.762714,3.867399,0.040164,-0.054062,-0.012065,31.41,67.2659618968534
12622,-8.436494,-3.758526,3.88056,0.041844,-0.072998,-0.010232,31.42,67.2096716256469
12632,-8.425727,-3.753741,3.889533,0.044288,-0.09163,-0.009316,31.42,67.1362017640221
12642,-8.425129,-3.750151,3.898506,0.045357,-0.108429,-0.008094,31.44,67.0844256613494
12652,-8.429317,-3.745365,3.92064,0.045662,-0.125533,-0.007941,31.44,66.9720679794136
12662,-8.419745,-3.736392,3.929613,0.046273,-0.139735,-0.006872,31.42,66.8970942603894
12672,-8.407183,-3.732804,3.945167,0.045357,-0.152258,-0.007941,31.42,66.7861369211561
12682,-8.406584,-3.725027,3.972086,0.045357,-0.16249,-0.007636,31.45,66.6362737164471
12692,-8.402397,-3.729812,3.99063,0.043677,-0.171042,-0.008705,31.45,66.5346691301611
12702,-8.396414,-3.719045,4.019344,0.041386,-0.177609,-0.008858,31.45,66.3617393884082
12712,-8.385648,-3.714857,4.028915,0.039859,-0.180816,-0.009163,31.45,66.285126724641
12722,-8.373085,-3.706482,4.077968,0.037415,-0.182801,-0.01069,31.43,65.9942126356951
12732,-8.359326,-3.696313,4.095316,0.035277,-0.179747,-0.012523,31.43,65.8646958074876
12742,-8.348558,-3.693322,4.11745,0.029932,-0.174249,-0.012981,31.42,65.7232643817082
12752,-8.340781,-3.675974,4.135396,0.027489,-0.166155,-0.013592,31.44,65.5963835753543
12762,-8.327023,-3.678965,4.161119,0.024282,-0.156992,-0.014966,31.44,65.4353828565856
12772,-8.320443,-3.669992,4.1671,0.021686,-0.144622,-0.015424,31.43,65.3812636524469
12782,-8.3013,-3.677171,4.187439,0.020006,-0.130725,-0.014966,31.43,65.240437038041
12792,-8.28455,-3.662215,4.202394,0.017562,-0.115301,-0.015272,31.46,65.1111592239108
12802,-8.291131,-3.662215,4.222734,0.016493,-0.097128,-0.014355,31.46,65.01995188071
12812,-8.292925,-3.671786,4.228716,0.015272,-0.077274,-0.013897,31.43,65.0022320295592
12822,-8.270791,-3.665804,4.231109,0.01405,-0.056658,-0.01405,31.43,64.934854924514
12832,-8.261818,-3.663411,4.247859,0.012828,-0.034972,-0.013439,31.43,64.8255048700072
12842,-8.264212,-3.66042,4.235296,0.012217,-0.013286,-0.01237,31.43,64.8931534481888
12852,-8.26481,-3.659224,4.248456,0.012217,0.009774,-0.011606,31.41,64.8249416613197
12862,-8.265409,-3.665206,4.25384,0.012217,0.032681,-0.011148,31.41,64.8042489892645
12872,-8.268398,-3.671188,4.246064,0.01237,0.055894,-0.01069,31.41,64.8571788911762
12882,-8.273782,-3.672983,4.243671,0.01237,0.077885,-0.010232,31.41,64.8833487586077
12892,-8.28156,-3.671786,4.222734,0.012217,0.100182,-0.010996,31.43,65.0081403249615
12902,-8.294122,-3.68734,4.211967,0.012981,0.120799,-0.009927,31.43,65.1070611823461
12912,-8.297112,-3.683152,4.201199,0.013744,0.158214,-0.009774,31.44,65.1654980883136
12922,-8.306684,-3.701099,4.178466,0.014203,0.174707,-0.009468,31.43,65.3221759845148
12932,-8.324032,-3.692126,4.166502,0.013592,0.188452,-0.010537,31.43,65.4135376117114
12942,-8.340781,-3.708277,4.149753,0.013286,0.200517,-0.012675,31.45,65.5525443061261
12952,-8.35155,-3.707081,4.125825,0.012523,0.209069,-0.014508,31.45,65.6991594080104
12962,-8.361719,-3.728018,4.107878,0.011606,0.216094,-0.016952,31.4,65.8343837282365
12972,-8.372486,-3.720839,4.088138,0.010385,0.219606,-0.018173,31.4,65.9534087283306
12982,-8.38445,-3.733402,4.064807,0.008552,0.220217,-0.020464,31.46,66.1123240126958
12992,-8.395219,-3.734598,4.034299,0.00733,0.218537,-0.022602,31.46,66.295462562131
13002,-8.41137,-3.745365,4.009772,0.006109,0.214414,-0.025504,31.41,66.4674725275188
13012,-8.410771,-3.754937,3.993023,0.004581,0.208,-0.026725,31.41,66.5627485063813
13022,-8.435897,-3.744169,3.964309,0.00336,0.19792,-0.029474,31.46,66.755163492222
13032,-8.440681,-3.75075,3.946961,0.001222,0.186161,-0.031154,31.46,66.8619435020583
13042,-8.425727,-3.762714,3.932604,-0.000458,0.171653,-0.032376,31.44,66.9176213499361
13052,-8.443074,-3.762714,3.907479,-0.001222,0.155618,-0.034361,31.44,67.085043638672
13062,-8.453244,-3.760321,3.894319,-0.002902,0.137445,-0.035736,31.41,67.1727157752003
13072,-8.462217,-3.771687,3.875176,-0.003207,0.118202,-0.036346,31.41,67.3017559494969
13082,-8.453843,-3.769892,3.864408,-0.00336,0.074067,-0.038026,31.46,67.3400306983609
13092,-8.468199,-3.77049,3.845864,-0.00336,0.050855,-0.037263,31.41,67.4671061447443
13102,-8.465807,-3.77408,3.846462,-0.002902,0.027184,-0.038026,31.41,67.4623686283833
13112,-8.465807,-3.765705,3.845864,-0.000764,0.003818,-0.037263,31.45,67.4580650970966
13122,-8.447861,-3.765106,3.855436,0,-0.018784,-0.036652,31.45,67.3710432670367
13132,-8.458628,-3.766901,3.851846,0.002138,-0.041386,-0.035125,31.42,67.4132000952837
13142,-8.452048,-3.753741,3.860819,0.003818,-0.06353,-0.034667,31.42,67.3408896168796
13152,-8.432905,-3.750151,3.873382,0.007178,-0.083994,-0.032834,31.39,67.2327312410916
13162,-8.430512,-3.749553,3.876373,0.01069,-0.104,-0.030696,31.39,67.2115592131424
13172,-8.416754,-3.75075,3.89073,0.013592,-0.122784,-0.029474,31.41,67.1089325817533
13182,-8.426923,-3.739383,3.905087,0.016646,-0.138666,-0.027336,31.41,67.0436462468373
13192,-8.409575,-3.742973,3.92064,0.021075,-0.152869,-0.024435,31.46,66.9294811844027
13202,-8.400601,-3.745365,3.942773,0.02474,-0.164475,-0.022907,31.46,66.7966858752083
13212,-8.393424,-3.744768,3.955934,0.02978,-0.174097,-0.019242,31.41,66.7120845044431
13222,-8.386245,-3.716054,3.984648,0.034361,-0.181885,-0.017715,31.41,66.5196983705242
13232,-8.367103,-3.719045,4.000201,0.037568,-0.187994,-0.016799,31.42,66.4006984743949
13242,-8.357532,-3.708277,4.052245,0.041539,-0.189368,-0.012828,31.42,66.0973872857249
13252,-8.333005,-3.7005,4.067799,0.045357,-0.187841,-0.008399,31.43,65.9563180471221
13262,-8.330013,-3.698107,4.084548,0.05116,-0.182801,-0.006567,31.45,65.8599078536234
13272,-8.318647,-3.69392,4.105485,0.053451,-0.175624,-0.004123,31.45,65.7219081643646
13282,-8.319246,-3.68734,4.133601,0.055436,-0.16585,-0.002291,31.45,65.5699845751471
13292,-8.305488,-3.678965,4.154539,0.0562,-0.154549,0,31.45,65.422748171222
13302,-8.292327,-3.680161,4.167699,0.057574,-0.141263,0.001222,31.43,65.3265058911041
13312,-8.287541,-3.668795,4.187439,0.057574,-0.125991,0.002291,31.43,65.202048247848
13322,-8.276175,-3.667001,4.196413,0.056505,-0.109345,0.002902,31.44,65.1284873126932
13332,-8.274381,-3.672983,4.229314,0.054825,-0.092088,0.004276,31.44,64.9592212639626
13342,-8.276175,-3.66042,4.23051,0.052534,-0.07254,0.005345,31.43,64.9446329722942
13352,-8.269596,-3.647858,4.246662,0.049938,-0.051007,0.004887,31.43,64.833727812981
13362,-8.285149,-3.655635,4.246064,0.045662,-0.029322,0.004887,31.43,64.8791394553912
13372,-8.267202,-3.665206,4.25085,0.042761,-0.00672,0.004429,31.43,64.8237631746301
13382,-8.280961,-3.658626,4.265206,0.03711,0.015577,0.003512,31.45,64.7735373033064
13392,-8.286943,-3.66401,4.26401,0.032529,0.038943,0.00168,31.45,64.7983772572694
13402,-8.273185,-3.675375,4.267001,0.027031,0.060781,-0.000611,31.41,64.763447595675
13412,-8.28455,-3.665206,4.25384,0.022144,0.084299,-0.002749,31.41,64.8469021755762
13422,-8.30788,-3.677768,4.25384,0.016493,0.106138,-0.007789,31.46,64.9110320036937
13432,-8.312068,-3.690331,4.234698,0.005345,0.146913,-0.011148,31.4,65.0316450590981
13442,-8.319845,-3.678965,4.225725,-0.000305,0.165544,-0.013744,31.4,65.0841522556063
13452,-8.328219,-3.692126,4.209573,-0.005956,0.182191,-0.018021,31.45,65.199019055252
13462,-8.34138,-3.686741,4.191627,-0.010843,0.197004,-0.020922,31.45,65.3156131097171
13472,-8.352147,-3.706482,4.161119,-0.015272,0.210138,-0.023824,31.42,65.5163104801817
13482,-8.369495,-3.705286,4.132405,-0.019395,0.220675,-0.027642,31.42,65.701754685883
13492,-8.377273,-3.709473,4.119244,-0.022602,0.228005,-0.031001,31.45,65.7908428947683
13502,-8.372486,-3.721437,4.08395,-0.025198,0.233351,-0.033903,31.45,65.9758187079512
13512,-8.395817,-3.73041,4.058825,-0.027184,0.235183,-0.036957,31.44,66.1647083463867
13522,-8.398808,-3.732804,4.034897,-0.027947,0.234114,-0.039859,31.44,66.298190001526
13532,-8.407183,-3.741776,4.001996,-0.028863,0.230296,-0.042761,31.43,66.4961310452743
13542,-8.421539,-3.752544,3.985246,-0.027947,0.222813,-0.04444,31.43,66.6235521775774
13552,-8.422137,-3.75733,3.953541,-0.026573,0.212581,-0.046731,31.45,66.7953865595268
13562,-8.433504,-3.769892,3.926622,-0.025351,0.199753,-0.047342,31.45,66.9714763384615
13572,-8.44427,-3.764508,3.900301,-0.022907,0.183718,-0.047953,31.44,67.1268474932876
13582,-8.44128,-3.763312,3.883551,-0.018326,0.165544,-0.046578,31.44,67.2079029133506
13592,-8.449057,-3.77408,3.835695,-0.014508,0.144775,-0.045051,31.44,67.4857159527599
13602,-8.449656,-3.773481,3.82732,-0.005651,0.097738,-0.041997,31.44,67.530644128389
13612,-8.460423,-3.775874,3.80399,0.000764,0.071624,-0.038485,31.42,67.6776081757756
13622,-8.458031,-3.77408,3.805186,0.00733,0.044593,-0.035583,31.44,67.6649410680921
13632,-8.454441,-3.772285,3.790231,0.012828,0.016341,-0.031765,31.44,67.7354416744672
13642,-8.456235,-3.77408,3.796811,0.018631,-0.010843,-0.027642,31.43,67.705721101656
13652,-8.459227,-3.768696,3.812365,0.025198,-0.038637,-0.022602,31.43,67.6245585840262
13662,-8.447262,-3.77049,3.812365,0.03146,-0.065363,-0.018784,31.46,67.6023296594264
13672,-8.446664,-3.765705,3.822534,0.036652,-0.092088,-0.014355,31.46,67.5430538755197
13682,-8.451449,-3.760919,3.835097,0.042455,-0.116523,-0.010537,31.43,67.4819216746718
13692,-8.429317,-3.74716,3.847659,0.047647,-0.138972,-0.006261,31.43,67.3587297047894
13702,-8.426923,-3.74058,3.878167,0.051618,-0.160047,-0.003054,31.42,67.1867239649185
13712,-8.408977,-3.737589,3.906283,0.055436,-0.177762,0,31.42,66.9990435827386
13722,-8.423334,-3.734598,3.942773,0.057727,-0.192728,0.001985,31.43,66.8336215926414
13732,-8.407781,-3.729214,3.966104,0.059559,-0.205709,0.003818,31.43,66.6740180281666
13742,-8.405987,-3.731009,3.999603,0.06017,-0.213497,0.00504,31.4,66.496214375338
13752,-8.391031,-3.701697,4.018745,0.059559,-0.219148,0.003818,31.4,66.3374913179839
13762,-8.379665,-3.692724,4.096512,0.058796,-0.220828,0.003054,31.44,65.8985309375296
13772,-8.350951,-3.694518,4.118048,0.0562,-0.212581,-0.000305,31.44,65.7264306532326
13782,-8.340781,-3.690929,4.153342,0.04948,-0.205709,-0.002443,31.43,65.5172234111759
13792,-8.332406,-3.690331,4.168297,0.044746,-0.193644,-0.005345,31.41,65.4206868779477
13802,-8.31446,-3.672983,4.195815,0.039248,-0.179136,-0.008858,31.41,65.2216928334688
13812,-8.307282,-3.675375,4.217948,0.034056,-0.16081,-0.011912,31.45,65.0933116887406
13822,-8.285748,-3.671188,4.234099,0.029169,-0.141568,-0.014203,31.45,64.9578171947327
13832,-8.283354,-3.665804,4.241278,0.024587,-0.12034,-0.017715,31.41,64.9099651375353
13842,-8.273782,-3.67418,4.254438,0.01909,-0.097128,-0.020311,31.41,64.8286879273732
13852,-8.255836,-3.669992,4.264608,0.014203,-0.072388,-0.021838,31.42,64.7317514311417
13862,-8.261818,-3.664608,4.267001,0.009774,-0.047953,-0.023518,31.42,64.7273774513115
13872,-8.257033,-3.667599,4.266403,0.005651,-0.022449,-0.024282,31.44,64.7227420290234
13882,-8.247462,-3.665804,4.264608,0.002138,0.003512,-0.024282,31.44,64.7088356146812
13892,-8.247462,-3.671188,4.25384,-0.000764,0.0281,-0.024893,31.43,64.7700987729788
13902,-8.250452,-3.669394,4.258626,-0.002443,0.052993,-0.023366,31.43,64.7501506028481
13912,-8.266603,-3.672983,4.249653,-0.004429,0.076511,-0.022907,31.41,64.8363322763154
13922,-8.261818,-3.672385,4.235296,-0.006414,0.098349,-0.021533,31.41,64.8996414577681
13932,-8.270791,-3.674777,4.201199,-0.006872,0.118661,-0.018937,31.39,65.0992848649969
13942,-8.291131,-3.685545,4.176672,-0.006567,0.137903,-0.014203,31.39,65.2823504309151
13952,-8.300702,-3.695116,4.159923,-0.004123,0.16921,-0.011606,31.41,65.3998754774743
13962,-8.318049,-3.695715,4.144967,-0.003818,0.181274,-0.010079,31.44,65.5161577849937
13972,-8.331809,-3.710072,4.129414,-0.003512,0.190743,-0.008247,31.44,65.6408187571883
13982,-8.346764,-3.709473,4.104887,-0.001222,0.197615,-0.006567,31.45,65.8003311923176
13992,-8.366504,-3.705286,4.092325,0.000764,0.202196,-0.005651,31.45,65.9041264018005
14002,-8.385049,-3.715455,4.067799,0.001985,0.202807,-0.005803,31.45,66.0811190493547
14012,-8.397612,-3.719045,4.051049,0.004276,0.202196,-0.005651,31.45,66.1984622262678
14022,-8.397612,-3.731607,4.027719,0.005956,0.199142,-0.006109,31.41,66.332098117553
14032,-8.421539,-3.728616,4.012764,0.00672,0.19395,-0.008094,31.41,66.4575140819713
14042,-8.417951,-3.728018,3.998407,0.007941,0.186925,-0.009621,31.38,66.5246141618727
14052,-8.440681,-3.736991,3.979862,0.007941,0.176693,-0.012675,31.38,66.6770058173441
14062,-8.456833,-3.741179,3.972086,0.008705,0.165392,-0.015119,31.41,66.7547675066311
14072,-8.447861,-3.743571,3.959523,0.008705,0.152411,-0.018631,31.41,66.8042824298851
14082,-8.472386,-3.751348,3.935595,0.009316,0.138361,-0.021991,31.42,66.9867884449301
14092,-8.460423,-3.751946,3.918845,0.00901,0.1237,-0.025656,31.42,67.0508411665559
