t_ms,ax,ay,az,gx,gy,gz,temp,ang_deg
77242,-8.23131,-3.766901,4.302295,0.041081,-0.052076,0.048106,31.92,64.5796006060122
77252,-8.242078,-3.750151,4.316652,0.042608,-0.053909,0.048869,31.86,64.5125074882566
77262,-8.242078,-3.75075,4.332206,0.042302,-0.055436,0.047342,31.86,64.432979093523
77272,-8.253444,-3.754339,4.344768,0.041233,-0.055131,0.04383,31.89,64.3975014683802
12,-8.255836,-3.753741,4.368098,0.039248,-0.054825,0.039706,31.89,64.2824951803764
22,-8.260622,-3.745964,4.378268,0.036194,-0.052382,0.034514,31.89,64.2331911878929
32,-8.26481,-3.746562,4.389035,0.032223,-0.049633,0.027642,31.89,64.1881107639351
42,-8.260622,-3.741776,4.406384,0.026725,-0.045357,0.020311,31.87,64.085030576415
52,-8.268398,-3.735196,4.41416,0.015882,-0.034361,0.003665,31.87,64.0561664551223
62,-8.25165,-3.739982,4.411767,0.009316,-0.0281,-0.004429,31.86,64.0353533105529
72,-8.244471,-3.738786,4.418945,0.002749,-0.020769,-0.012981,31.87,63.9811359940898
82,-8.2349,-3.734,4.420142,-0.004581,-0.013286,-0.020922,31.87,63.9483084000243
92,-8.226524,-3.731607,4.424329,-0.010843,-0.005498,-0.026573,31.88,63.905325843591
102,-8.221141,-3.732804,4.411169,-0.016493,0.002596,-0.032223,31.88,63.9616592909096
112,-8.205587,-3.734598,4.409972,-0.021228,0.010843,-0.038026,31.85,63.9341752327932
122,-8.191828,-3.729812,4.399803,-0.026725,0.018784,-0.041539,31.85,63.949964764622
132,-8.191828,-3.734598,4.386642,-0.031001,0.025504,-0.044593,31.84,64.0225966297389
142,-8.185248,-3.732804,4.38066,-0.033903,0.032834,-0.044899,31.84,64.0365064425792
152,-8.17807,-3.738187,4.366901,-0.036805,0.040164,-0.046426,31.82,64.0966351252077
162,-8.170892,-3.742973,4.35733,-0.038332,0.045815,-0.04444,31.82,64.1346564954773
172,-8.169096,-3.738187,4.349553,-0.039095,0.051618,-0.041386,31.86,64.165747889453
182,-8.157133,-3.748357,4.337589,-0.038485,0.054825,-0.038332,31.86,64.2110145153992
192,-8.166105,-3.738786,4.326224,-0.03711,0.058643,-0.034208,31.81,64.2802421618315
202,-8.169695,-3.742374,4.312464,-0.034819,0.060628,-0.028405,31.81,64.3633729096096
212,-8.164909,-3.744169,4.291527,-0.03207,0.060934,-0.023213,31.89,64.4630409074326
222,-8.17149,-3.748357,4.288536,-0.028405,0.060781,-0.011454,31.89,64.4977277895594
232,-8.175676,-3.745964,4.284349,-0.020464,0.058338,-0.004581,31.86,64.5264176243147
242,-8.190632,-3.750151,4.277769,-0.015424,0.055283,0,31.88,64.598456321074
252,-8.199606,-3.753142,4.271188,-0.011606,0.051007,0.003665,31.88,64.6557570756919
262,-8.219346,-3.758526,4.266403,-0.006567,0.047189,0.007941,31.86,64.7300954467713
272,-8.236693,-3.74716,4.264608,-0.001527,0.041997,0.013134,31.86,64.7664492686081
282,-8.244471,-3.744169,4.269393,0.002291,0.036346,0.015272,31.86,64.7559331665011
292,-8.246863,-3.753142,4.267001,0.005803,0.029322,0.01741,31.86,64.7826838561766
302,-8.263015,-3.743571,4.275974,0.009163,0.022602,0.016799,31.84,64.7624712646755
312,-8.263015,-3.745964,4.26401,0.011759,0.015272,0.015882,31.84,64.8267322383566
322,-8.279166,-3.749553,4.278367,0.01405,0.007789,0.014508,31.86,64.7919060447975
332,-8.279764,-3.748955,4.28734,0.014966,0.000764,0.012065,31.86,64.7463430563484
342,-8.290532,-3.744169,4.294518,0.015424,-0.005345,0.009316,31.89,64.7284162318532
352,-8.289934,-3.734,4.297509,0.016188,-0.012523,0.003971,31.89,64.701511501652
362,-8.287541,-3.744768,4.311268,0.015424,-0.018479,-0.000305,31.82,64.6361613683349
372,-8.283952,-3.754937,4.319045,0.014661,-0.023518,-0.006414,31.82,64.5984221361423
382,-8.287541,-3.743571,4.31725,0.01237,-0.028863,-0.011759,31.84,64.604194197398
392,-8.278568,-3.74716,4.326822,0.010537,-0.032376,-0.022449,31.84,64.5386174767183
402,-8.282157,-3.751348,4.328616,0.004734,-0.037415,-0.026573,31.84,64.5416241245541
412,-8.257631,-3.759723,4.338188,0.001222,-0.03879,-0.031918,31.86,64.4461798092991
422,-8.247462,-3.758526,4.337589,-0.001985,-0.039401,-0.03543,31.86,64.4252783812061
432,-8.240881,-3.748357,4.338786,-0.005345,-0.038637,-0.038637,31.82,64.39397882037
442,-8.222337,-3.753741,4.341777,-0.008247,-0.037415,-0.04047,31.82,64.3424092472772
452,-8.209774,-3.74716,4.348955,-0.010843,-0.036499,-0.042302,31.84,64.2703328229517
462,-8.203195,-3.754937,4.348357,-0.013592,-0.034056,-0.04215,31.84,64.2665834264344
472,-8.187043,-3.759125,4.347759,-0.015882,-0.031307,-0.041233,31.88,64.237494909331
482,-8.168499,-3.760321,4.350152,-0.018021,-0.028253,-0.039401,31.88,64.1843762619952
492,-8.175676,-3.763312,4.345964,-0.019548,-0.024129,-0.03711,31.86,64.2253864178749
502,-8.170293,-3.766303,4.334,-0.019395,-0.0197,-0.033292,31.86,64.2781252879293
512,-8.145168,-3.753142,4.335794,-0.019853,-0.015882,-0.0281,31.86,64.1981165877499
522,-8.155338,-3.76391,4.345964,-0.019548,-0.011301,-0.023366,31.86,64.1798934002752
532,-8.142776,-3.767499,4.337589,-0.019395,-0.006567,-0.018173,31.91,64.1984518588918
542,-8.152946,-3.763312,4.34058,-0.01741,-0.001985,-0.011759,31.91,64.201673986377
552,-8.142178,-3.762714,4.331607,-0.016341,0.001985,-0.005803,31.86,64.2230439537171
562,-8.160722,-3.764508,4.325027,-0.013592,0.005803,0.001069,31.86,64.3010210302329
572,-8.168499,-3.763312,4.322634,-0.009621,0.010537,0.012065,31.87,64.3297409153992
582,-8.182258,-3.768696,4.323831,-0.006872,0.013286,0.016799,31.88,64.3601908826163
592,-8.184052,-3.77049,4.332804,-0.004276,0.015577,0.021075,31.88,64.3197360908464
602,-8.193025,-3.762115,4.323831,-0.001985,0.017715,0.023213,31.88,64.3776283257613
612,-8.209774,-3.768098,4.329215,0,0.018937,0.026267,31.88,64.3936855952714
622,-8.212168,-3.759125,4.335197,0.002443,0.019395,0.027642,31.86,64.3589714517109
632,-8.239087,-3.764508,4.332206,0.004429,0.01909,0.028253,31.86,64.4403340387204
642,-8.242078,-3.754937,4.341777,0.005498,0.01909,0.027336,31.87,64.3879992547163
652,-8.25165,-3.749553,4.333402,0.006414,0.019242,0.025504,31.87,64.4470527845187
662,-8.271988,-3.76391,4.342973,0.007483,0.018326,0.022144,31.87,64.4579426793538
672,-8.268997,-3.754937,4.336392,0.007941,0.01741,0.018021,31.87,64.475949211321
682,-8.270193,-3.756134,4.341777,0.007483,0.015577,0.013744,31.86,64.4521776200259
692,-8.274979,-3.762115,4.348357,0.007941,0.014508,0.008858,31.86,64.4351738858567
702,-8.280362,-3.744768,4.347161,0.006567,0.013744,0.002291,31.86,64.4357603168605
712,-8.285149,-3.754937,4.347161,0.006567,0.01405,-0.002902,31.86,64.4567404284663
722,-8.289934,-3.741776,4.342973,0.003971,0.01237,-0.010385,31.87,64.4756133694135
732,-8.277372,-3.758526,4.348357,0.002749,0.012217,-0.016188,31.87,64.436876755953
742,-8.260024,-3.74058,4.349553,0.00168,0.011301,-0.028863,31.87,64.3736684287956
752,-8.252846,-3.75075,4.342375,-0.001833,0.011912,-0.033903,31.87,64.4048027256336
762,-8.239684,-3.756134,4.347759,-0.00336,0.01237,-0.038179,31.87,64.3530840277686
772,-8.227122,-3.745964,4.335197,-0.004887,0.013286,-0.042608,31.84,64.379096206328
782,-8.223534,-3.747759,4.33041,-0.006261,0.01405,-0.044593,31.84,64.3975416460151
792,-8.219944,-3.751946,4.332206,-0.007178,0.01573,-0.045815,31.85,64.3845033067248
802,-8.197212,-3.74716,4.328018,-0.008247,0.016799,-0.045968,31.85,64.3499907717954
812,-8.192427,-3.753142,4.324429,-0.007941,0.018326,-0.044288,31.87,64.3639169889675
822,-8.177471,-3.744169,4.316054,-0.008399,0.020159,-0.042455,31.87,64.3642094265936
832,-8.179864,-3.751348,4.311867,-0.008094,0.021075,-0.03879,31.83,64.3987173417573
842,-8.158927,-3.74058,4.306482,-0.007636,0.022755,-0.034361,31.83,64.368175147717
852,-8.16132,-3.747759,4.302295,-0.007025,0.023213,-0.028863,31.91,64.4027604500507
862,-8.164909,-3.75075,4.3005,-0.006109,0.024282,-0.022907,31.91,64.4232786694426
872,-8.15773,-3.746562,4.289135,-0.004734,0.024893,-0.016341,31.86,64.4617498979522
882,-8.170293,-3.742374,4.299304,-0.004123,0.024435,-0.009316,31.86,64.4329630159722
892,-8.163713,-3.752544,4.286144,-0.003054,0.024587,-0.002749,31.86,64.4969698149363
902,-8.186445,-3.747759,4.283751,-0.00168,0.023824,0.005498,31.86,64.5555657641256
912,-8.189436,-3.751946,4.285545,-0.000305,0.02306,0.017868,31.86,64.5572738394205
922,-8.206185,-3.745964,4.291527,0.001374,0.01741,0.021991,31.86,64.5576930297587
932,-8.20798,-3.746562,4.289733,0.002138,0.015119,0.027031,31.86,64.5716188699255
942,-8.230712,-3.742374,4.286742,0.003054,0.011759,0.030696,31.88,64.6336777295292
952,-8.247462,-3.741179,4.290331,0.002902,0.007178,0.033598,31.88,64.6512811783104
962,-8.265409,-3.736991,4.292126,0.001985,0.003207,0.034514,31.82,64.6777586534566
972,-8.258228,-3.744768,4.302295,0.001374,-0.001069,0.033139,31.82,64.6171442111466
982,-8.266006,-3.749553,4.314259,0.001374,-0.005498,0.03207,31.85,64.5776614604974
992,-8.280961,-3.739383,4.31067,0.000153,-0.010537,0.029322,31.85,64.6191952107032
1002,-8.29472,-3.742374,4.325027,-0.000764,-0.015272,0.024893,31.89,64.5789989503879
1012,-8.295916,-3.741776,4.320839,-0.002749,-0.020311,0.0197,31.89,64.6025724217568
1022,-8.295916,-3.738786,4.31725,-0.003818,-0.024282,0.013744,31.84,64.6180177836734
1032,-8.299506,-3.745365,4.33041,-0.004429,-0.027794,0.007025,31.84,64.5650137434647
1042,-8.305488,-3.736392,4.329813,-0.00672,-0.03207,-0.001069,31.89,64.5723909931241
1052,-8.303095,-3.75075,4.334,-0.007178,-0.034667,-0.008552,31.89,64.5599854013156
1062,-8.300103,-3.737589,4.335197,-0.008552,-0.037263,-0.016646,31.86,64.5339760176429
1072,-8.279764,-3.742374,4.339384,-0.009927,-0.039401,-0.02474,31.86,64.4719208659006
1082,-8.263015,-3.745964,4.345964,-0.009621,-0.039859,-0.031918,31.85,64.4042838774341
1092,-8.247462,-3.751946,4.338188,-0.010232,-0.041386,-0.043982,31.9,64.41548334951
1102,-8.23131,-3.735795,4.342375,-0.009774,-0.040012,-0.049022,31.9,64.3411401382638
1112,-8.233105,-3.739383,4.339982,-0.009468,-0.038485,-0.052229,31.85,64.3611737307462
1122,-8.202596,-3.754937,4.349553,-0.007789,-0.035277,-0.054367,31.85,64.2590668378745
1132,-8.190034,-3.755535,4.346562,-0.00672,-0.031765,-0.054978,31.86,64.246709537436
1142,-8.178668,-3.753741,4.337589,-0.004887,-0.027336,-0.054672,31.86,64.2654531012378
1152,-8.162517,-3.745365,4.339384,-0.00336,-0.022755,-0.053145,31.9,64.2108378930846
1162,-8.149356,-3.752544,4.345366,-0.001985,-0.01741,-0.050396,31.9,64.1574760222443
1172,-8.137392,-3.746562,4.351348,0,-0.011759,-0.046731,31.89,64.0929769507804
1182,-8.134401,-3.754937,4.353741,0.002138,-0.005803,-0.041692,31.89,64.082581278603
1192,-8.123035,-3.752544,4.356134,0.003971,0.001069,-0.034972,31.86,64.0416993591026
1202,-8.113463,-3.749553,4.349553,0.005803,0.007789,-0.027947,31.86,64.0507171319191
1212,-8.12782,-3.748955,4.344768,0.00672,0.014355,-0.02138,31.89,64.1077081563302
1222,-8.117052,-3.752544,4.346562,0.008094,0.021533,-0.014813,31.89,64.0775941196526
1232,-8.140981,-3.751348,4.353143,0.008552,0.027642,-0.00733,31.86,64.0969124600755
1242,-8.130812,-3.760919,4.360321,0.009316,0.034208,-0.000611,31.86,64.0466654494022
1252,-8.151749,-3.754937,4.357928,0.00901,0.040164,0.007025,31.89,64.1004968892085
1262,-8.169096,-3.756134,4.34417,0.008094,0.050091,0.017562,31.89,64.2122566731363
1272,-8.187043,-3.756732,4.353143,0.005651,0.054825,0.021228,31.87,64.2072407432495
1282,-8.200203,-3.755535,4.356134,0.003054,0.057574,0.023366,31.91,64.2203700698392
1292,-8.219944,-3.748955,4.357928,0.000305,0.061545,0.025504,31.91,64.2489516291301
1302,-8.235497,-3.754339,4.356134,-0.002291,0.06353,0.024435,31.83,64.2987743302697
1312,-8.249854,-3.751348,4.348357,-0.005803,0.064446,0.022449,31.83,64.3679536700712
1322,-8.258827,-3.755535,4.343571,-0.008399,0.064599,0.019395,31.84,64.4169300572767
1332,-8.279764,-3.761517,4.342375,-0.011606,0.062919,0.015577,31.84,64.4759350466857
1342,-8.286943,-3.756134,4.329813,-0.013744,0.060781,0.010996,31.87,64.5509621253639
1352,-8.293524,-3.757928,4.328616,-0.017104,0.057727,0.005651,31.87,64.573551469719
1362,-8.295319,-3.750151,4.319643,-0.019242,0.053298,-0.000611,31.89,64.6157944218032
1372,-8.301898,-3.762714,4.310072,-0.020617,0.049175,-0.007025,31.89,64.6921541723846
1382,-8.301898,-3.752544,4.298108,-0.022144,0.044135,-0.013134,31.89,64.7434748949286
1392,-8.312068,-3.758526,4.290331,-0.023824,0.037568,-0.020159,31.89,64.8118997502594
1402,-8.308478,-3.756732,4.284349,-0.023213,0.030696,-0.026878,31.86,64.83297877563
1412,-8.286943,-3.75733,4.280162,-0.022449,0.02306,-0.032376,31.86,64.8076328799508
1422,-8.277372,-3.760321,4.274179,-0.021075,0.016035,-0.036194,31.86,64.8203528874751
1432,-8.273185,-3.767499,4.262814,-0.018937,0.007483,-0.042913,31.86,64.8770064646947
1442,-8.267202,-3.762714,4.256832,-0.012523,-0.007025,-0.043066,31.86,64.8899292402167
1452,-8.242078,-3.765705,4.247859,-0.00901,-0.015119,-0.04444,31.83,64.8839238515713
1462,-8.219346,-3.761517,4.245465,-0.005345,-0.022297,-0.04383,31.83,64.8417752896965
1472,-8.219944,-3.768098,4.255037,-0.000611,-0.029016,-0.040164,31.86,64.8001069933059
1482,-8.203793,-3.750151,4.250251,0.004276,-0.035125,-0.036194,31.86,64.7707863927779
1492,-8.190632,-3.751946,4.260421,0.008552,-0.040012,-0.032834,31.86,64.690396265255
1502,-8.168499,-3.757928,4.264608,0.012828,-0.044593,-0.027642,31.86,64.6252365747073
1512,-8.163115,-3.763312,4.275974,0.017715,-0.048106,-0.020311,31.88,64.5596177358643
1522,-8.164909,-3.75075,4.272385,0.021533,-0.050244,-0.01405,31.88,64.569322157711
1532,-8.152946,-3.753741,4.28076,0.024893,-0.052229,-0.00672,31.9,64.5019436414369
1542,-8.152946,-3.745365,4.294518,0.028253,-0.052534,0,31.9,64.4217360766474
1552,-8.151151,-3.749553,4.310072,0.031307,-0.051771,0.008399,31.84,64.3412725673817
1562,-8.155936,-3.751946,4.31067,0.032681,-0.050396,0.013592,31.84,64.3514923785616
1572,-8.163713,-3.743571,4.322036,0.033903,-0.047495,0.020617,31.84,64.3014795143019
1582,-8.164909,-3.746562,4.342375,0.034667,-0.044288,0.025198,31.84,64.2020518297271
1592,-8.176873,-3.741179,4.351946,0.033598,-0.039859,0.02978,31.85,64.1741809153395
1602,-8.189436,-3.726821,4.373481,0.032223,-0.035277,0.032223,31.85,64.0768090920019
1612,-8.194819,-3.727419,4.378268,0.027184,-0.023518,0.036194,31.88,64.0650471579939
1622,-8.207382,-3.734598,4.393821,0.022755,-0.016646,0.036041,31.86,64.021148178237
1632,-8.219944,-3.73041,4.398606,0.018784,-0.009927,0.034819,31.86,64.0208582572887
1642,-8.230114,-3.732205,4.403392,0.014355,-0.002902,0.031918,31.87,64.0213108512471
1652,-8.233105,-3.734598,4.40399,0.008858,0.004123,0.027184,31.87,64.0275130753268
1662,-8.242078,-3.726223,4.409972,0.00336,0.010385,0.021228,31.83,64.0086601537173
1672,-8.258228,-3.73041,4.411169,-0.002291,0.016493,0.016035,31.83,64.0435049589761
1682,-8.255836,-3.725625,4.41057,-0.007941,0.023366,0.008705,31.88,64.0362397587281
1692,-8.267202,-3.729214,4.405785,-0.012675,0.028863,0.00168,31.88,64.0901325616297
1702,-8.275578,-3.729812,4.396214,-0.017715,0.034361,-0.006109,31.83,64.1586026850497
1712,-8.260024,-3.737589,4.393223,-0.022602,0.038637,-0.013744,31.83,64.1467064691808
1722,-8.268997,-3.728616,4.388436,-0.025962,0.041997,-0.022602,31.88,64.1823185623093
1732,-8.260622,-3.737589,4.372883,-0.029169,0.045968,-0.030085,31.88,64.2522440703758
1742,-8.247462,-3.736392,4.35733,-0.03207,0.048106,-0.036652,31.86,64.3012043425859
1752,-8.258827,-3.738187,4.345366,-0.032987,0.049633,-0.042761,31.86,64.390063431405
1762,-8.254042,-3.732205,4.338786,-0.033139,0.049938,-0.047342,31.84,64.4070819564405
1772,-8.23789,-3.747759,4.316652,-0.033139,0.049786,-0.05284,31.84,64.5006985811401
1782,-8.210373,-3.748357,4.305884,-0.031307,0.047647,-0.057879,31.91,64.4952351371573
1792,-8.222337,-3.742973,4.293921,-0.02642,0.045051,-0.059865,31.87,64.5784230945853
1802,-8.209774,-3.756134,4.272983,-0.023213,0.041692,-0.058338,31.87,64.6722112549229
1812,-8.190632,-3.758526,4.27717,-0.018784,0.039095,-0.058032,31.89,64.6101622898273
1822,-8.185846,-3.754937,4.267001,-0.014355,0.036041,-0.052687,31.89,64.6485670573316
1832,-8.194819,-3.754937,4.258626,-0.009468,0.031918,-0.048869,31.87,64.7121353861633
1842,-8.181061,-3.753142,4.259224,-0.004734,0.027489,-0.044288,31.87,64.6764469811346
1852,-8.182258,-3.751348,4.249653,0.000916,0.023366,-0.037874,31.85,64.7270819812751
1862,-8.173882,-3.759125,4.258028,0.005956,0.01909,-0.032376,31.85,64.6727563869345
1872,-8.178668,-3.76391,4.264608,0.01069,0.014813,-0.025656,31.85,64.6541679952611
1882,-8.190632,-3.754937,4.264608,0.01405,0.011301,-0.018784,31.85,64.6717027040774
1892,-8.184052,-3.759723,4.275376,0.018631,0.007483,-0.011759,31.87,64.6059719949841
1902,-8.169695,-3.760919,4.271787,0.021686,0.003818,-0.005498,31.87,64.5936735079019
1912,-8.187043,-3.742374,4.271787,0.023976,0.000153,0.000458,31.83,64.6134982364017
1922,-8.206783,-3.755535,4.294518,0.025656,-0.002596,0.006109,31.83,64.5533473285651
1932,-8.210373,-3.755535,4.301099,0.027794,-0.005192,0.010079,31.86,64.5273375971921
1942,-8.216953,-3.761517,4.313063,0.027642,-0.007178,0.01405,31.86,64.4863852903838
1952,-8.231908,-3.751348,4.316652,0.026878,-0.009316,0.017257,31.88,64.4909612718919
1962,-8.244471,-3.750151,4.332804,0.022907,-0.011148,0.018173,31.89,64.434654091103
1972,-8.244471,-3.742973,4.334598,0.020464,-0.01237,0.016952,31.89,64.4181025483401
1982,-8.25464,-3.757928,4.341179,0.017257,-0.01237,0.014966,31.88,64.4222848394438
1992,-8.258827,-3.756134,4.348955,0.01237,-0.011912,0.012828,31.88,64.3898856915401
2002,-8.268997,-3.756134,4.352544,0.009163,-0.010996,0.009774,31.88,64.3942408922486
2012,-8.268997,-3.746562,4.353143,0.004429,-0.010079,0.004887,31.88,64.3814406477707
2022,-8.270791,-3.75733,4.363312,0.000458,-0.010079,0.000611,31.89,64.3442622339084
2032,-8.267202,-3.744169,4.362116,-0.004734,-0.010232,-0.004429,31.89,64.3289509346715
2042,-8.272586,-3.754937,4.353143,-0.008552,-0.009316,-0.011301,31.89,64.3979846933067
2052,-8.253444,-3.762115,4.356134,-0.012675,-0.008858,-0.015882,31.89,64.3470656193545
2062,-8.243275,-3.756732,4.346562,-0.015882,-0.006872,-0.020617,31.86,64.3679141730832
2072,-8.236095,-3.74716,4.342973,-0.01909,-0.005498,-0.025351,31.86,64.3604535562341
2082,-8.240283,-3.753741,4.336991,-0.020006,-0.004276,-0.028253,31.88,64.4073752732339
2092,-8.219944,-3.758526,4.334598,-0.021991,-0.003818,-0.031765,31.88,64.3789314400762
2102,-8.225926,-3.754937,4.332206,-0.022907,-0.003665,-0.034361,31.86,64.4010157424593
2112,-8.219346,-3.754339,4.316652,-0.022755,-0.003665,-0.035583,31.86,64.4658605684887
2122,-8.207382,-3.762115,4.313063,-0.021686,-0.003054,-0.03543,31.91,64.465537890138
2132,-8.181061,-3.754339,4.311268,-0.016799,-0.002443,-0.032376,31.89,64.4076109983503
2142,-8.17448,-3.765106,4.298108,-0.013897,-0.002291,-0.030391,31.89,64.4721178152446
2152,-8.168499,-3.761517,4.289733,-0.009468,-0.002291,-0.026878,31.88,64.4983930108605
2162,-8.170293,-3.762115,4.3005,-0.005498,-0.002291,-0.022297,31.88,64.447196220979
2172,-8.176873,-3.752544,4.301697,-0.001069,-0.002138,-0.016646,31.9,64.4459010313754
2182,-8.166105,-3.76391,4.292724,0.003818,-0.002749,-0.011606,31.9,64.4799653549095
2192,-8.181659,-3.757928,4.298706,0.008247,-0.002138,-0.005956,31.86,64.4777370783696
2202,-8.164909,-3.768098,4.31067,0.012675,-0.002138,-0.00168,31.86,64.3885695785851
2212,-8.179864,-3.758526,4.305286,0.01741,-0.002749,0.002902,31.89,64.4402246412643
2222,-8.184052,-3.756732,4.311867,0.021533,-0.002902,0.007789,31.89,64.4137237724151
2232,-8.196614,-3.749553,4.30409,0.024282,-0.002443,0.011301,31.88,64.4748417635431
2242,-8.184649,-3.750151,4.311867,0.02642,-0.000916,0.015577,31.88,64.408268512405
2252,-8.206185,-3.746562,4.328616,0.029474,-0.000153,0.017868,31.88,64.3665186675502
2262,-8.20798,-3.748955,4.331009,0.031765,0.001374,0.019395,31.88,64.3606736726555
2272,-8.232506,-3.738187,4.353741,0.032223,0.003512,0.0197,31.89,64.2877818604611
2282,-8.2349,-3.726821,4.35075,0.032376,0.005192,0.01909,31.89,64.2969481200465
2292,-8.238488,-3.74716,4.363312,0.031918,0.007178,0.018937,31.91,64.2612657469923
2302,-8.23789,-3.738187,4.364508,0.027031,0.012065,0.012675,31.91,64.2445774121942
2312,-8.245667,-3.741776,4.377669,0.023671,0.015424,0.008247,31.88,64.1982526849844
2322,-8.246863,-3.742973,4.379463,0.019548,0.018173,0.003054,31.9,64.192979789574
2332,-8.257631,-3.738187,4.391428,0.01573,0.02138,-0.001985,31.9,64.1510991294565
2342,-8.259426,-3.734,4.381258,0.011148,0.024587,-0.00733,31.88,64.2029626436262
2352,-8.250452,-3.733402,4.378866,0.006567,0.027794,-0.013134,31.88,64.1943506923727
2362,-8.245069,-3.738187,4.375276,0.001069,0.031612,-0.0197,31.89,64.2055016039742
2372,-8.252247,-3.737589,4.371687,-0.003971,0.034667,-0.025351,31.89,64.2395012147828
2382,-8.246264,-3.741179,4.362116,-0.008705,0.037415,-0.030543,31.87,64.2788095312925
2392,-8.2349,-3.741179,4.356732,-0.012675,0.039248,-0.035583,31.87,64.2808627976903
2402,-8.22772,-3.733402,4.351946,-0.016188,0.04215,-0.039401,31.86,64.2813171246886
2412,-8.221739,-3.736392,4.339982,-0.019548,0.04383,-0.04215,31.86,64.3325081366875
2422,-8.221141,-3.736392,4.332206,-0.022144,0.044899,-0.044593,31.87,64.3712527267571
2432,-8.221141,-3.738187,4.329813,-0.024435,0.045815,-0.044135,31.87,64.3854337742475
2442,-8.210373,-3.741179,4.307679,-0.024893,0.04612,-0.045051,31.89,64.4786010024453
2452,-8.210971,-3.74058,4.296313,-0.025504,0.044593,-0.04444,31.89,64.5381379494741
2462,-8.208578,-3.748955,4.289135,-0.024435,0.042761,-0.041692,31.9,64.57850248543
2472,-8.196015,-3.748955,4.269992,-0.022755,0.037874,-0.035888,31.9,64.6496523246302
2482,-8.190034,-3.750151,4.265206,-0.01741,0.034056,-0.031307,31.84,64.6623555727899
2492,-8.192427,-3.755535,4.26401,-0.013897,0.030238,-0.026114,31.85,64.6794331702368
2502,-8.18764,-3.739982,4.265206,-0.010996,0.02474,-0.020922,31.85,64.6465851354664
2512,-8.201998,-3.753741,4.261019,-0.00672,0.019395,-0.016035,31.89,64.714500428056
2522,-8.194819,-3.752544,4.249653,-0.001985,0.013134,-0.010537,31.89,64.7563370236179
2532,-8.209774,-3.742374,4.251448,0.002443,0.00672,-0.006567,31.86,64.769980881672
2542,-8.217552,-3.751348,4.255037,0.007025,0.000458,-0.000916,31.86,64.7777692315917
2552,-8.219944,-3.748357,4.264608,0.010843,-0.005192,0.003818,31.9,64.7303952469844
2562,-8.229516,-3.746562,4.255635,0.014813,-0.011606,0.007025,31.9,64.7964133906709
2572,-8.22772,-3.749553,4.262215,0.018021,-0.018173,0.009163,31.89,64.7613251706846
2582,-8.240881,-3.748955,4.272983,0.020922,-0.024587,0.012523,31.89,64.7342059863495
2592,-8.252846,-3.75075,4.286742,0.023518,-0.030238,0.014661,31.86,64.6914851868679
2602,-8.261221,-3.745365,4.28734,0.02474,-0.034514,0.014813,31.86,64.7015818949309
2612,-8.257631,-3.74716,4.303492,0.026725,-0.040012,0.014203,31.91,64.6120586541424
2622,-8.25464,-3.753741,4.315455,0.026878,-0.044135,0.011912,31.91,64.5503942230566
2632,-8.267202,-3.739982,4.339982,0.026725,-0.046426,0.009774,31.85,64.4383287673065
2642,-8.258228,-3.751946,4.348955,0.025504,-0.048717,0.003971,31.85,64.3842763559855
2652,-8.260024,-3.745964,4.357928,0.022755,-0.049786,-0.001069,31.91,64.3361445664564
2662,-8.26481,-3.751946,4.365107,0.020006,-0.049175,-0.006414,31.93,64.3161611246948
2672,-8.250452,-3.749553,4.372285,0.017257,-0.046884,-0.011301,31.93,64.2446219834567
2682,-8.246863,-3.745964,4.381856,0.014508,-0.043371,-0.01573,31.89,64.1837777835782
2692,-8.23789,-3.745365,4.381258,0.010537,-0.039401,-0.020922,31.89,64.165957272627
2702,-8.233105,-3.75075,4.400999,0.007483,-0.034819,-0.026114,31.89,64.0594970252671
2712,-8.218149,-3.745365,4.404588,0.004276,-0.028863,-0.030085,31.89,64.0015776926142
2722,-8.207382,-3.742374,4.398008,0.000764,-0.021991,-0.035125,31.9,64.0077198662698
2732,-8.200802,-3.748357,4.384848,-0.002291,-0.015272,-0.038485,31.9,64.0665477058988
2742,-8.19123,-3.745964,4.393821,-0.004734,-0.008705,-0.040623,31.88,63.9961597227356
2752,-8.183454,-3.744169,4.392026,-0.007178,0.000305,-0.042761,31.88,63.9857785421811
2762,-8.182258,-3.745964,4.395017,-0.009316,0.007941,-0.043982,31.9,63.9695460839089
2772,-8.17448,-3.765106,4.38066,-0.010843,0.016493,-0.043677,31.9,64.0457022439333
2782,-8.161918,-3.747759,4.380062,-0.011148,0.02474,-0.042913,31.88,64.0019561199885
2792,-8.162517,-3.756134,4.37408,-0.01237,0.031307,-0.041081,31.88,64.0429412010419
2802,-8.15773,-3.746562,4.366901,-0.012675,0.039401,-0.037874,31.9,64.0590180051841
2812,-8.151151,-3.756134,4.346562,-0.012523,0.045051,-0.035583,31.9,64.159136469787
2822,-8.160124,-3.764508,4.332206,-0.010537,0.057116,-0.0281,31.89,64.2625167427045
2832,-8.162517,-3.768098,4.335794,-0.009468,0.060781,-0.02306,31.91,64.2531295865163
2842,-8.177471,-3.756134,4.326822,-0.00733,0.063835,-0.019242,31.91,64.3208855289381
2852,-8.182856,-3.76391,4.317849,-0.005956,0.065668,-0.015119,31.88,64.3875072271748
2862,-8.19123,-3.753741,4.304688,-0.004276,0.066584,-0.009468,31.88,64.4639528636789
2872,-8.192427,-3.757928,4.302894,-0.001527,0.066279,-0.005345,31.89,64.4802452526067
2882,-8.2014,-3.756134,4.301099,0.000916,0.065973,-0.000611,31.89,64.5078340826593
2892,-8.218747,-3.768696,4.294518,0.002749,0.063683,0.003665,31.88,64.5935794695205
2902,-8.221739,-3.758526,4.295715,0.005192,0.060018,0.006261,31.88,64.583673365236
2912,-8.2349,-3.776472,4.293322,0.00733,0.0562,0.009468,31.91,64.6437031504091
2922,-8.245667,-3.754937,4.287939,0.008399,0.050855,0.010537,31.91,64.6735690861578
2932,-8.251051,-3.753142,4.276572,0.010996,0.045204,0.011912,31.89,64.7424690228827
2942,-8.576474,-3.496512,4.307081,0.012065,0.036041,0.007636,31.89,65.0598945521149
2952,-8.297112,-3.68734,4.271188,0.008094,0.008399,-0.030696,31.89,64.80688255015
2962,-8.252247,-3.762714,4.286144,0.008399,-0.004887,-0.039248,31.89,64.7053448257463
2972,-8.218747,-3.77408,4.26401,0.010537,-0.010232,-0.036346,31.91,64.7570141023556
2982,-8.234302,-3.783651,4.28734,0.013592,-0.015577,-0.032681,31.91,64.6805985106339
2992,-8.234302,-3.77408,4.284349,0.016035,-0.025809,-0.027794,31.86,64.6862962372417
3002,-8.229516,-3.78066,4.293322,0.020159,-0.02978,-0.026878,31.89,64.6360009300881
3012,-8.24148,-3.771687,4.303492,0.021991,-0.032834,-0.02642,31.89,64.6009775013437
3022,-8.226524,-3.774678,4.30409,0.022144,-0.036346,-0.027184,31.93,64.5676057268766
3032,-8.239684,-3.768696,4.320839,0.02306,-0.038637,-0.028711,31.93,64.5044900653125
3042,-8.232506,-3.778267,4.324429,0.023213,-0.039859,-0.030238,31.87,64.4797544919484
3052,-8.232506,-3.775874,4.335794,0.023671,-0.039095,-0.03207,31.87,64.4187804521114
3062,-8.217552,-3.775276,4.338786,0.022755,-0.039095,-0.034208,31.88,64.369228041874
3072,-8.209177,-3.775874,4.341179,0.022755,-0.037415,-0.035736,31.88,64.3387008480427
3082,-8.197212,-3.786044,4.342375,0.021533,-0.033903,-0.037721,31.91,64.3161685733137
3092,-8.188837,-3.769294,4.353143,0.021075,-0.031307,-0.03879,31.91,64.2243641822286
3102,-8.186445,-3.778865,4.363312,0.019853,-0.027642,-0.039248,31.91,64.1765474939982
3112,-8.188239,-3.776472,4.367499,0.019548,-0.022297,-0.038485,31.91,64.1565550724523
3122,-8.170293,-3.769892,4.362116,0.018784,-0.017257,-0.038026,31.91,64.136728063217
3132,-8.149356,-3.775874,4.362116,0.017257,-0.011606,-0.036652,31.91,64.0954422583504
3142,-8.160124,-3.776472,4.365705,0.016799,-0.004581,-0.034514,31.91,64.1020352928715
3152,-8.157133,-3.781856,4.36391,0.017562,0.001069,-0.031154,31.91,64.1101629951389
3162,-8.143373,-3.764508,4.363312,0.017562,0.007789,-0.021686,31.87,64.063662203409
3172,-8.13799,-3.766901,4.360321,0.018326,0.021991,-0.015577,31.89,64.0693641544618
3182,-8.143373,-3.759125,4.369295,0.018784,0.028253,-0.010843,31.89,64.0270928651526
3192,-8.148758,-3.765106,4.353143,0.019242,0.03375,-0.004887,31.87,64.1290908304792
3202,-8.153543,-3.765106,4.353143,0.019548,0.039401,0.001069,31.87,64.1399725209494
3212,-8.16132,-3.768696,4.359125,0.020159,0.045509,0.007178,31.88,64.1305277481557
3222,-8.164311,-3.768696,4.345964,0.020769,0.049327,0.012675,31.88,64.2052617653186
3232,-8.17448,-3.761517,4.356732,0.021686,0.053298,0.017715,31.86,64.1652375136948
3242,-8.185846,-3.767499,4.343571,0.022297,0.055741,0.02138,31.86,64.265097669642
3252,-8.196015,-3.760919,4.339384,0.022907,0.058032,0.024129,31.86,64.302831603968
3262,-8.20798,-3.759125,4.336991,0.024129,0.059101,0.02642,31.86,64.3402928592121
3272,-8.222337,-3.74716,4.336392,0.024129,0.059865,0.027489,31.86,64.3633978893984
3282,-8.246264,-3.760919,4.332804,0.023976,0.059559,0.027184,31.86,64.4496556752567
3292,-8.249854,-3.745365,4.332804,0.023976,0.058185,0.025962,31.87,64.4418446878974
3302,-8.261818,-3.739982,4.329813,0.023824,0.056352,0.023518,31.87,64.4785643905586
3312,-8.263614,-3.745964,4.323831,0.023671,0.054214,0.020159,31.91,64.5194194470093
3322,-8.282157,-3.750151,4.32742,0.023213,0.051771,0.015882,31.91,64.5465610498787
3332,-8.272586,-3.737589,4.325625,0.022449,0.049786,0.010843,31.91,64.5217638894532
3342,-8.283952,-3.745964,4.324429,0.021228,0.042302,-0.00168,31.81,64.5617089200415
3352,-8.288139,-3.738786,4.326822,0.021075,0.037568,-0.009316,31.81,64.5515177967504
3362,-8.280362,-3.745964,4.31725,0.020617,0.033598,-0.015882,31.86,64.5906254920452
3372,-8.274979,-3.736991,4.31067,0.019242,0.030391,-0.022449,31.86,64.6034684870084
3382,-8.273185,-3.733402,4.313063,0.018937,0.026725,-0.027031,31.88,64.5835340308281
3392,-8.269596,-3.742973,4.314259,0.018631,0.02306,-0.034056,31.88,64.5790179135573
3402,-8.267202,-3.738187,4.302894,0.017868,0.020006,-0.039401,31.88,64.6274116116394
3412,-8.257033,-3.742973,4.313661,0.017715,0.017104,-0.043677,31.88,64.5540655492373
3422,-8.239087,-3.735795,4.322036,0.017562,0.014966,-0.047037,31.88,64.4634368380582
3432,-8.222337,-3.729214,4.308876,0.017562,0.012523,-0.049175,31.88,64.4870710844235
3442,-8.221739,-3.728616,4.313063,0.016952,0.01069,-0.049786,31.9,64.4634791374361
3452,-8.217552,-3.729812,4.31067,0.018173,0.009774,-0.049786,31.9,64.4676529554965
3462,-8.204391,-3.735196,4.301697,0.017868,0.008399,-0.048258,31.88,64.4899835251881
3472,-8.188239,-3.731009,4.301099,0.018173,0.00733,-0.046578,31.88,64.4524222404595
3482,-8.18764,-3.734,4.292724,0.018326,0.006567,-0.045051,31.88,64.4975685008867
3492,-8.182258,-3.731009,4.305286,0.018326,0.005192,-0.041692,31.88,64.4172256552358
3502,-8.184052,-3.727419,4.302894,0.018479,0.004887,-0.036194,31.91,64.4299819765383
3512,-8.18764,-3.732205,4.303492,0.018631,0.004581,-0.026114,31.91,64.4398984750517
3522,-8.184649,-3.726223,4.301099,0.018326,0.003207,-0.021075,31.88,64.4394067995361
3532,-8.19123,-3.716652,4.308277,0.018173,0.003054,-0.014813,31.88,64.4072407267654
3542,-8.198408,-3.733402,4.305286,0.017868,0.001527,-0.010996,31.88,64.4561013084651
3552,-8.2014,-3.732205,4.309474,0.01741,0.000458,-0.005345,31.9,64.4399346683033
3562,-8.205587,-3.732804,4.313063,0.016952,0.000153,-0.001833,31.9,64.4314125141883
3572,-8.20798,-3.732804,4.298108,0.015272,-0.001833,0.001222,31.88,64.5141853143543
3582,-8.230712,-3.735196,4.313661,0.013744,-0.003818,0.003665,31.88,64.4872488079599
3592,-8.22772,-3.735795,4.313661,0.012065,-0.00504,0.00504,31.89,64.4811443331719
3602,-8.246264,-3.727419,4.326822,0.011148,-0.006872,0.006109,31.89,64.4463630734634
3612,-8.25165,-3.743571,4.329215,0.009163,-0.008858,0.005498,31.91,64.4625186997677
3622,-8.257033,-3.736392,4.335794,0.007483,-0.011606,0.003512,31.91,64.4334353580972
3632,-8.257033,-3.732804,4.328018,0.005345,-0.013592,0,31.86,64.4698167616901
3642,-8.265409,-3.744169,4.336991,0.004581,-0.016035,-0.003971,31.86,64.4539301429888
3652,-8.27139,-3.75075,4.345366,0.003207,-0.018173,-0.008399,31.9,64.4309647258185
3662,-8.258228,-3.745365,4.338188,0.001222,-0.019548,-0.013592,31.9,64.4329116116668
3672,-8.27139,-3.743571,4.345366,0.000153,-0.021533,-0.019395,31.91,64.4236865390943
3682,-8.257033,-3.755535,4.349553,-0.000153,-0.022449,-0.031001,31.91,64.3821836358824
3692,-8.2678,-3.759723,4.347759,-0.000916,-0.024435,-0.037874,31.92,64.4197656996675
3702,-8.253444,-3.756732,4.347161,-0.001222,-0.02306,-0.042913,31.88,64.3876461994095
3712,-8.233703,-3.758526,4.350152,-0.000611,-0.023213,-0.048106,31.88,64.3297894549663
3722,-8.22772,-3.763312,4.353741,-0.000458,-0.022755,-0.051771,31.86,64.3027954120993
3732,-8.216953,-3.765705,4.351946,0.00168,-0.021228,-0.055131,31.86,64.2902557832979
3742,-8.206783,-3.765705,4.347161,0.002291,-0.018784,-0.058338,31.88,64.2919765856193
3752,-8.2014,-3.769892,4.351946,0.003665,-0.014813,-0.059865,31.88,64.2595265149984
3762,-8.184052,-3.779463,4.348955,0.005956,-0.011759,-0.059865,31.9,64.2457348733268
3772,-8.179864,-3.767499,4.348955,0.008094,-0.007941,-0.059865,31.9,64.2237947941146
3782,-8.159525,-3.772883,4.342973,0.010232,-0.003665,-0.058643,31.86,64.2142518504763
3792,-8.152946,-3.772883,4.346562,0.011912,0.001069,-0.0562,31.86,64.180786163173
3802,-8.143971,-3.766901,4.343571,0.014508,0.006414,-0.051924,31.89,64.1695834529609
3812,-8.140981,-3.772883,4.352544,0.016799,0.012065,-0.047342,31.89,64.1226813062494
3822,-8.140981,-3.773481,4.358526,0.018479,0.01741,-0.04215,31.86,64.0923984016496
3832,-8.151151,-3.778865,4.359125,0.020006,0.024282,-0.036499,31.86,64.1181136612882
3842,-8.140383,-3.768696,4.359723,0.021838,0.029932,-0.030391,31.89,64.0798029810602
3852,-8.145766,-3.768696,4.348955,0.022755,0.035583,-0.02474,31.89,64.1477078527272
3862,-8.146963,-3.764508,4.348955,0.023518,0.047342,-0.010996,31.89,64.1460265563822
3872,-8.160722,-3.766303,4.348357,0.023366,0.052382,-0.005192,31.94,64.1822566354682
3882,-8.176873,-3.772883,4.35075,0.023824,0.057421,0.000458,31.94,64.2133831111086
3892,-8.173882,-3.767499,4.352544,0.02306,0.061697,0.005192,31.86,64.1917328805355
3902,-8.189436,-3.759723,4.34417,0.021533,0.065057,0.009163,31.86,64.2620424791
3912,-8.2014,-3.762115,4.352544,0.020311,0.067653,0.013134,31.9,64.2483848685004
3922,-8.207382,-3.767499,4.354339,0.018173,0.070708,0.01573,31.9,64.2582203530007
3932,-8.225926,-3.764508,4.34417,0.016799,0.071777,0.017715,31.89,64.3492284891321
3942,-8.229516,-3.755535,4.338786,0.014661,0.07254,0.017104,31.89,64.3757978374353
3952,-8.240881,-3.75733,4.342973,0.012523,0.072693,0.016799,31.9,64.3816086867021
3962,-8.25165,-3.758526,4.336991,0.010537,0.07086,0.015577,31.9,64.437731585387
3972,-8.263614,-3.756732,4.326822,0.00901,0.069333,0.014203,31.85,64.5149456282847
3982,-8.272586,-3.769892,4.329813,0.00672,0.066737,0.01069,31.85,64.5329225890498
3992,-8.274381,-3.767499,4.311867,0.005192,0.062919,0.00733,31.87,64.6267497501574
4002,-8.280961,-3.753142,4.304688,0.004276,0.058948,0.003665,31.87,64.6638241409346
4012,-8.277969,-3.760919,4.298706,0.002443,0.053603,-0.000153,31.92,64.6958176008151
4022,-8.277969,-3.75733,4.289733,0.002138,0.047342,-0.004123,31.92,64.738440141168
4032,-8.282157,-3.762714,4.278367,0.002138,0.034972,-0.013744,31.91,64.811715644307
4042,-8.274979,-3.747759,4.274778,0.002443,0.028405,-0.017104,31.87,64.7993681214356
4052,-8.261221,-3.751946,4.269992,0.00336,0.020159,-0.020922,31.87,64.7978361048237
4062,-8.266006,-3.75733,4.262215,0.004581,0.012981,-0.023518,31.86,64.8540442341144
4072,-8.258228,-3.759723,4.25384,0.006567,0.005192,-0.025045,31.86,64.8825961639724
4082,-8.253444,-3.749553,4.258028,0.008247,-0.002291,-0.025809,31.85,64.8401047254571
4092,-8.247462,-3.751946,4.256832,0.010996,-0.010537,-0.026573,31.85,64.8354594699847
4102,-8.24148,-3.753741,4.254438,0.013592,-0.017104,-0.026114,31.86,64.8364209590363
4112,-8.219346,-3.748357,4.255037,0.015882,-0.023976,-0.024893,31.86,64.77872416215
4122,-8.217552,-3.745964,4.261019,0.019395,-0.031001,-0.023518,31.9,64.7412550641586
4132,-8.20798,-3.744169,4.259823,0.022297,-0.036499,-0.021228,31.9,64.724299498858
4142,-8.202596,-3.745365,4.275974,0.024435,-0.041386,-0.018784,31.91,64.6296605259487
4152,-8.213962,-3.736991,4.278367,0.027489,-0.046426,-0.015119,31.91,64.6341418112172
4162,-8.2014,-3.739982,4.282554,0.029627,-0.050396,-0.01237,31.88,64.5873520510248
4172,-8.19781,-3.734598,4.293921,0.031154,-0.052993,-0.009163,31.88,64.5148542562268
4182,-8.206783,-3.736991,4.298706,0.033445,-0.055589,-0.005956,31.9,64.5126804132496
4192,-8.206185,-3.73041,4.326224,0.034208,-0.055741,-0.002902,31.9,64.3622765741132
4202,-8.202596,-3.720839,4.332804,0.034361,-0.055436,0.002138,31.93,64.3103501306058
4212,-8.197212,-3.742374,4.342973,0.033445,-0.053909,0.004429,31.88,64.2678415227843
4222,-8.203195,-3.722634,4.359723,0.032376,-0.050549,0.005956,31.88,64.174664526664
4232,-8.204989,-3.726223,4.368098,0.031001,-0.046578,0.007483,31.88,64.1393027381077
4242,-8.209774,-3.722634,4.381258,0.028863,-0.042455,0.006567,31.88,64.0787727573461
4252,-8.216953,-3.726223,4.39083,0.025809,-0.037721,0.00504,31.88,64.0496338398901
4262,-8.219346,-3.727419,4.400401,0.022602,-0.031307,0.003818,31.88,64.0072002999219
4272,-8.217552,-3.720839,4.403392,0.018631,-0.024893,0.001069,31.88,63.980973610327
4282,-8.226524,-3.717848,4.402793,0.014355,-0.018021,-0.001222,31.88,64.0014151381367
4292,-8.223534,-3.720241,4.406981,0.01069,-0.010385,-0.004123,31.89,63.975595920911
4302,-8.214561,-3.720839,4.417749,0.005956,-0.003207,-0.008399,31.89,63.9005403116784
4312,-8.227122,-3.729214,4.41057,0.002138,0.004887,-0.013134,31.92,63.9746440412301
4322,-8.221739,-3.720241,4.413561,-0.001985,0.012523,-0.018631,31.92,63.9377796031834
4332,-8.213365,-3.729214,4.408776,-0.006261,0.020159,-0.023824,31.89,63.9524744505996
4342,-8.218747,-3.729214,4.405785,-0.010537,0.026573,-0.029016,31.89,63.9800819143752
4352,-8.22473,-3.729812,4.39083,-0.013897,0.033903,-0.034056,31.92,64.0710188901798
4362,-8.220542,-3.744169,4.374678,-0.016799,0.040012,-0.039401,31.92,64.1592540963376
4372,-8.20798,-3.736392,4.375875,-0.018479,0.046426,-0.045968,31.89,64.116584012184
4382,-8.215158,-3.744169,4.364508,-0.021533,0.055741,-0.049022,31.84,64.1993503753418
4392,-8.201998,-3.745964,4.354938,-0.022297,0.059712,-0.051465,31.84,64.2206885101115
4402,-8.195418,-3.75733,4.334598,-0.022297,0.061545,-0.053603,31.9,64.3224687692873
4412,-8.200203,-3.756134,4.338188,-0.021991,0.06353,-0.055131,31.9,64.3135011106738
4422,-8.207382,-3.748955,4.323831,-0.019395,0.06521,-0.054825,31.91,64.3963826343835
4432,-8.195418,-3.75733,4.320241,-0.017562,0.065057,-0.05452,31.91,64.3966246600535
4442,-8.18764,-3.768696,4.301697,-0.015119,0.064752,-0.052382,31.93,64.4868036630552
4452,-8.205587,-3.772285,4.297509,-0.013134,0.062919,-0.050549,31.93,64.5523879677703
4462,-8.200802,-3.755535,4.290331,-0.009163,0.060323,-0.048258,31.91,64.5616314357631
4472,-8.199606,-3.767499,4.281358,-0.00504,0.057421,-0.04383,31.91,64.6177275858771
4482,-8.209177,-3.773481,4.273581,-0.000611,0.053451,-0.039859,31.89,64.6855153835759
4492,-8.210971,-3.768696,4.27717,0.002443,0.049786,-0.035125,31.89,64.6660193610122
4502,-8.212766,-3.762115,4.27059,0.006109,0.045051,-0.031001,31.89,64.6973946180131
4512,-8.212168,-3.776472,4.275376,0.01069,0.040623,-0.026267,31.89,64.6859370434941
4522,-8.215158,-3.775276,4.272385,0.013897,0.035583,-0.021686,31.89,64.7068608609852
4532,-8.217552,-3.767499,4.274179,0.017104,0.030238,-0.016493,31.89,64.6949511265857
4542,-8.233105,-3.784249,4.285545,0.020006,0.025351,-0.011606,31.86,64.6878249620272
4552,-8.232506,-3.77408,4.274778,0.023518,0.014508,-0.005498,31.86,64.7318025424533
4562,-8.236693,-3.777071,4.287939,0.024129,0.009163,-0.002902,31.91,64.6761056044537
4572,-8.258228,-3.766901,4.290929,0.024587,0.003512,-0.000458,31.88,64.6981613228264
4582,-8.249854,-3.768098,4.294518,0.025504,-0.000153,0.001527,31.88,64.6622589294704
4592,-8.25464,-3.78066,4.310072,0.024129,-0.003665,0.00336,31.89,64.6054834435464
4602,-8.248059,-3.771687,4.316054,0.023976,-0.007636,0.002596,31.89,64.5508831551083
4612,-8.252247,-3.77408,4.31725,0.021686,-0.01069,0.001527,31.86,64.556495359033
4622,-8.249854,-3.772285,4.323233,0.019853,-0.01237,0.001374,31.86,64.5185313481884
4632,-8.255239,-3.768696,4.332206,0.018326,-0.014813,-0.000305,31.89,64.4807290140012
4642,-8.252247,-3.772285,4.323831,0.015119,-0.016188,-0.000916,31.89,64.5207914078858
4652,-8.25464,-3.767499,4.34058,0.012675,-0.017104,-0.00336,31.91,64.4351252586475
4662,-8.251051,-3.766303,4.328616,0.010537,-0.017104,-0.005345,31.91,64.4874011065924
4672,-8.246264,-3.763312,4.339384,0.008399,-0.016646,-0.006567,31.9,64.4182520689194
4682,-8.228917,-3.759723,4.339384,0.005651,-0.016646,-0.00901,31.9,64.3756691846062
4692,-8.216354,-3.765106,4.348955,0.002902,-0.015882,-0.010843,31.9,64.3036825893022
4702,-8.220542,-3.768696,4.339982,0.001222,-0.014508,-0.012065,31.9,64.3630018310623
4712,-8.221141,-3.760321,4.331607,-0.000764,-0.012828,-0.013439,31.89,64.3988813330272
4722,-8.200802,-3.757928,4.336392,-0.000458,-0.010232,-0.014508,31.89,64.3259714795044
4732,-8.194221,-3.752544,4.323831,-0.001833,-0.008399,-0.014661,31.86,64.3704344430249
4742,-8.196015,-3.762115,4.323233,-0.000916,-0.006109,-0.012981,31.88,64.3874494248808
4752,-8.188837,-3.760321,4.314259,0.000611,-0.004734,-0.011912,31.88,64.4158303006335
4762,-8.189436,-3.759125,4.323233,0.001527,-0.002749,-0.009774,31.89,64.3695407608672
4772,-8.186445,-3.753142,4.318447,0.003054,-0.002291,-0.007483,31.89,64.3813582628312
4782,-8.189436,-3.751348,4.321437,0.004887,-0.000916,-0.005956,31.86,64.370785746492
4792,-8.178668,-3.753142,4.325625,0.00672,-0.000916,-0.002749,31.86,64.3266769171301
4802,-8.186445,-3.753741,4.313063,0.010385,0,0.000305,31.87,64.4098333471443
4812,-8.199007,-3.748955,4.320839,0.012523,0,0.002138,31.87,64.3929810884563
4822,-8.19781,-3.739383,4.323233,0.014508,0.000153,0.004734,31.92,64.3680533603583
4832,-8.20798,-3.74716,4.311268,0.016799,0.000458,0.006872,31.92,64.4607961666094
4842,-8.209177,-3.734,4.315455,0.019242,0.000916,0.009316,31.88,64.4283541658691
4852,-8.215756,-3.742374,4.321437,0.021838,0.000611,0.010385,31.88,64.4208322674699
4862,-8.229516,-3.733402,4.325625,0.022602,0,0.010996,31.88,64.4209911633647
4872,-8.225328,-3.729812,4.325027,0.02474,-0.000458,0.012675,31.88,64.4109919394166
4882,-8.231908,-3.727419,4.339982,0.02474,-0.000764,0.011301,31.84,64.3462576435042
4892,-8.243872,-3.73041,4.346562,0.025504,-0.001069,0.008247,31.84,64.3423837347996
4902,-8.248059,-3.720839,4.351946,0.024129,-0.000611,0.00672,31.88,64.3143808074887
4912,-8.240283,-3.720241,4.365107,0.02306,0.000305,0.004276,31.9,64.2285539556805
4922,-8.247462,-3.728616,4.359723,0.022144,0.001527,0.001833,31.9,64.2809777544245
4932,-8.246264,-3.726223,4.365705,0.020159,0.002749,-0.002596,31.91,64.2451030760216
4942,-8.257033,-3.729812,4.368696,0.017562,0.004581,-0.006872,31.91,64.2577062344138
4952,-8.248059,-3.731009,4.365705,0.015577,0.006872,-0.011148,31.96,64.2540387819827
4962,-8.23789,-3.726223,4.379463,0.012065,0.008705,-0.01573,31.96,64.1555235691086
4972,-8.246264,-3.720839,4.37408,0.00901,0.011606,-0.020464,31.92,64.1966050017183
4982,-8.242078,-3.726223,4.372883,0.005956,0.014966,-0.024893,31.92,64.1987819509683
4992,-8.238488,-3.73041,4.366901,0.002596,0.01741,-0.029932,31.93,64.2256717992696
5002,-8.217552,-3.732804,4.37408,0,0.021228,-0.033903,31.93,64.1438351447565
5012,-8.214561,-3.732205,4.366901,-0.003054,0.024129,-0.03711,31.92,64.1733559983607
5022,-8.220542,-3.735196,4.359723,-0.005956,0.027031,-0.04047,31.92,64.226911854786
5032,-8.210971,-3.734598,4.351348,-0.008094,0.031307,-0.042302,31.89,64.2477694491837
5042,-8.205587,-3.735196,4.350152,-0.010385,0.034514,-0.04383,31.89,64.2423642091937
5052,-8.201998,-3.739383,4.348357,-0.01237,0.037415,-0.045509,31.85,64.2478122665169
5062,-8.199007,-3.749553,4.326822,-0.013592,0.039859,-0.046273,31.85,64.3626844917122
5072,-8.182258,-3.744169,4.328018,-0.015424,0.044135,-0.043219,31.87,64.313121655424
5082,-8.191828,-3.75075,4.314259,-0.016646,0.045357,-0.042455,31.88,64.4126836021496
5092,-8.186445,-3.751348,4.305286,-0.01573,0.045815,-0.040164,31.88,64.4476243594008
5102,-8.191828,-3.753142,4.302894,-0.014355,0.045204,-0.036957,31.89,64.4739687717064
5112,-8.197212,-3.74716,4.296313,-0.013897,0.043982,-0.035125,31.89,64.5139972439845
5122,-8.19123,-3.74716,4.289733,-0.013134,0.04215,-0.031612,31.85,64.5346648036463
5132,-8.210971,-3.758526,4.277769,-0.011759,0.040317,-0.027489,31.85,64.6525178513915
5142,-8.219346,-3.756732,4.283751,-0.009927,0.037721,-0.023824,31.94,64.6383956060325
5152,-8.215158,-3.760321,4.273581,-0.008094,0.034208,-0.019395,31.94,64.6853918196216
5162,-8.217552,-3.75075,4.27717,-0.006567,0.030085,-0.017104,31.92,64.6623770078427
5172,-8.239087,-3.767499,4.274179,-0.004581,0.024893,-0.01405,31.92,64.7428210697001
5182,-8.234302,-3.762714,4.269393,-0.002596,0.0197,-0.010996,31.89,64.7521102042376
5192,-8.246863,-3.760919,4.271787,-0.000611,0.01405,-0.007483,31.89,64.7657799990323
5202,-8.248658,-3.757928,4.278367,0.002138,0.008094,-0.006261,31.87,64.732713572759
5212,-8.257631,-3.766303,4.27717,0.004123,0.001985,-0.003971,31.87,64.7672639572366
5222,-8.251051,-3.759723,4.276572,0.005956,-0.004123,-0.00336,31.85,64.7491186360889
5232,-8.257631,-3.76391,4.290331,0.008247,-0.010385,-0.00336,31.85,64.6968949256371
5242,-8.263015,-3.773481,4.289733,0.009621,-0.021228,-0.002291,31.91,64.7216031825391
5252,-8.251051,-3.782454,4.305884,0.011759,-0.026878,-0.004581,31.91,64.6209082136111
5262,-8.261221,-3.769294,4.297509,0.012217,-0.031154,-0.004734,31.91,64.6732921238408
5272,-8.258228,-3.764508,4.311268,0.013897,-0.035277,-0.006109,31.85,64.5908874024575
5282,-8.253444,-3.784847,4.313661,0.014508,-0.038179,-0.008399,31.85,64.5886101085063
5292,-8.249854,-3.771687,4.329813,0.015272,-0.040317,-0.009774,31.89,64.4840627066538
5302,-8.25165,-3.768696,4.332804,0.015119,-0.041233,-0.011912,31.89,64.4696372967321
5312,-8.239684,-3.774678,4.353741,0.014661,-0.041386,-0.012981,31.89,64.3413646341742
5322,-8.219346,-3.771687,4.352544,0.013897,-0.040012,-0.015272,31.89,64.2987422794183
5332,-8.218149,-3.769294,4.351946,0.013744,-0.038332,-0.017104,31.88,64.2966539318158
5342,-8.217552,-3.777071,4.351348,0.012675,-0.036346,-0.01909,31.88,64.3064213869992
5352,-8.196614,-3.76391,4.361517,0.012981,-0.03207,-0.020006,31.91,64.1932182746046
5362,-8.198408,-3.772285,4.367499,0.011606,-0.027947,-0.022755,31.91,64.175199410004
5372,-8.190632,-3.768098,4.372285,0.010232,-0.022449,-0.022907,31.91,64.1286101269545
5382,-8.181659,-3.773481,4.378268,0.009621,-0.015882,-0.023366,31.91,64.0830996675623
5392,-8.184052,-3.765705,4.38066,0.007941,-0.009774,-0.02306,31.89,64.0680943249889
5402,-8.179864,-3.765106,4.381856,0.006261,-0.003512,-0.023366,31.89,64.0517953325222
5412,-8.187043,-3.756134,4.373481,0.004734,0.004429,-0.022755,31.92,64.1018388749414
5422,-8.168499,-3.755535,4.369893,0.002443,0.018326,-0.019853,31.89,64.0775254350087
5432,-8.160722,-3.754339,4.369893,0.001527,0.025045,-0.019242,31.89,64.0585564205691
5442,-8.184052,-3.759125,4.363312,0.000305,0.031307,-0.017715,31.9,64.1505357420255
5452,-8.173284,-3.755535,4.362116,-0.001069,0.03711,-0.01573,31.9,64.1285076436064
5462,-8.177471,-3.754339,4.355535,-0.002138,0.041539,-0.013439,31.88,64.1707128302479
5472,-8.179864,-3.759723,4.347161,-0.002749,0.04612,-0.010385,31.88,64.2249530617922
5482,-8.194221,-3.756732,4.343571,-0.002902,0.049327,-0.007483,31.89,64.2728451837425
5492,-8.193025,-3.754339,4.331607,-0.003054,0.052076,-0.00504,31.89,64.3294194171787
5502,-8.205587,-3.760919,4.326822,-0.002749,0.053451,-0.002749,31.91,64.3892190770969
5512,-8.212168,-3.752544,4.328018,-0.00168,0.053909,0.000458,31.91,64.3892288354376
5522,-8.204989,-3.760919,4.309474,-0.000916,0.053756,0.00336,31.91,64.4774871442269
5532,-8.215756,-3.747759,4.314259,0.000916,0.052382,0.00672,31.91,64.4634202747447
5542,-8.221739,-3.753142,4.302295,0.002138,0.049633,0.00901,31.89,64.5441584298621
5552,-8.226524,-3.739982,4.295117,0.00336,0.045509,0.01069,31.89,64.5785615009044
5562,-8.236095,-3.755535,4.286742,0.005345,0.041539,0.012523,31.89,64.6590500539239
5572,-8.23789,-3.753741,4.293322,0.007178,0.036041,0.013744,31.89,64.6272191055989
5582,-8.25464,-3.750151,4.28076,0.008399,0.030238,0.014966,31.89,64.7257730572782
5592,-8.254042,-3.744768,4.290929,0.011759,0.019242,0.014966,31.89,64.6664778600632
5602,-8.263015,-3.739383,4.295117,0.012217,0.013439,0.014813,31.89,64.6594035261179
5612,-8.268398,-3.734,4.293322,0.014355,0.00733,0.013134,31.9,64.6752306614708
5622,-8.274381,-3.737589,4.297509,0.015577,0.001069,0.011912,31.9,64.670551513961
5632,-8.282157,-3.744768,4.290929,0.016493,-0.004123,0.008094,31.91,64.7289444423371
5642,-8.268398,-3.734598,4.299304,0.017104,-0.009163,0.004123,31.91,64.6449738396688
5652,-8.279166,-3.723232,4.304688,0.016646,-0.013439,0.001069,31.92,64.6297964394017
5662,-8.263614,-3.742374,4.302894,0.016035,-0.017257,-0.003665,31.92,64.6236392976808
5672,-8.264212,-3.74058,4.312464,0.015577,-0.021075,-0.008094,31.89,64.5738388912251
5682,-8.260622,-3.732804,4.32742,0.013897,-0.023518,-0.012981,31.89,64.4809346612611
5692,-8.257631,-3.736991,4.328018,0.012675,-0.025351,-0.01741,31.9,64.4753985372189
5702,-8.245667,-3.735196,4.332804,0.011301,-0.026114,-0.021838,31.9,64.4221077192912
5712,-8.248658,-3.736991,4.334598,0.009774,-0.026114,-0.027336,31.89,64.4214106771197
5722,-8.23131,-3.731009,4.334,0.007941,-0.025351,-0.031154,31.89,64.379401191171
5732,-8.221739,-3.726223,4.336392,0.005498,-0.023824,-0.034972,31.88,64.3406064617187
5742,-8.215158,-3.727419,4.34417,0.003818,-0.022297,-0.036957,31.88,64.2868602064604
5752,-8.192427,-3.729214,4.351348,0.001833,-0.020617,-0.039859,31.91,64.2001903378357
5762,-8.200203,-3.735196,4.348357,-0.000305,-0.01405,-0.041386,31.91,64.2394282383169
5772,-8.186445,-3.729812,4.347759,-0.003207,-0.010232,-0.041386,31.94,64.2057510555967
5782,-8.182258,-3.732804,4.343571,-0.004123,-0.006109,-0.039401,31.91,64.2209708277564
5792,-8.176873,-3.739982,4.351348,-0.004887,-0.001833,-0.036957,31.91,64.1760241083243
5802,-8.175676,-3.737589,4.343571,-0.005956,0.001374,-0.033139,31.89,64.2109889088936
5812,-8.166704,-3.736991,4.331607,-0.006109,0.006109,-0.028711,31.89,64.2518702245469
5822,-8.166704,-3.742374,4.345366,-0.00672,0.010079,-0.025045,31.89,64.1863054655517
5832,-8.182856,-3.735196,4.337589,-0.006567,0.01405,-0.020922,31.89,64.255711922845
5842,-8.170892,-3.744169,4.336392,-0.006109,0.016799,-0.015577,31.89,64.2440761123556
5852,-8.177471,-3.745964,4.338188,-0.005498,0.01909,-0.011912,31.89,64.2515713036545
5862,-8.176275,-3.743571,4.345366,-0.005498,0.020922,-0.007941,31.89,64.2092879052805
5872,-8.185846,-3.74058,4.332206,-0.005345,0.023824,-0.003818,31.89,64.2958745433837
5882,-8.212766,-3.754937,4.338188,-0.004734,0.025809,-0.001069,31.91,64.3405843573693
5892,-8.210373,-3.756134,4.333402,-0.004429,0.026878,0.001374,31.91,64.361107378495
5902,-8.227122,-3.751946,4.336392,-0.00504,0.027031,0.002749,31.92,64.3790682233026
5912,-8.222935,-3.755535,4.324429,-0.004581,0.027642,0.002596,31.92,64.4350085551858
5922,-8.23789,-3.745365,4.332804,-0.004429,0.027336,0.002138,31.87,64.4150083843958
5932,-8.254042,-3.759125,4.329813,-0.004734,0.026878,-0.002443,31.87,64.480612953894
5942,-8.255836,-3.763312,4.331607,-0.00504,0.024282,-0.005345,31.88,64.4796569943732
5952,-8.262416,-3.746562,4.344768,-0.005192,0.023976,-0.009316,31.89,64.4096929716282
5962,-8.264212,-3.756732,4.338188,-0.005498,0.022755,-0.013897,31.89,64.4578519683401
5972,-8.261221,-3.763312,4.33041,-0.005192,0.021686,-0.01741,31.91,64.4978368540209
5982,-8.260024,-3.760321,4.324429,-0.005192,0.019395,-0.021686,31.91,64.5228879708647
5992,-8.255239,-3.765106,4.322634,-0.00504,0.018021,-0.026267,31.91,64.5263137036963
6002,-8.252846,-3.767499,4.310072,-0.005192,0.016188,-0.030085,31.91,64.5881032272674
6012,-8.251051,-3.77049,4.316652,-0.004276,0.014203,-0.03375,31.92,64.5532527501174
6022,-8.234302,-3.772285,4.315455,-0.003054,0.01237,-0.036499,31.92,64.523885604797
6032,-8.233703,-3.762115,4.313063,-0.002138,0.009774,-0.038943,31.89,64.5244864680649
6042,-8.219944,-3.77049,4.305286,-0.001222,0.008552,-0.039248,31.89,64.5424448143026
6052,-8.212766,-3.77049,4.306482,-0.000305,0.006109,-0.039859,31.91,64.5202140647537
6062,-8.213962,-3.778267,4.311867,0.001527,0.005498,-0.039554,31.91,64.5030728776277
6072,-8.207382,-3.774678,4.303492,0.003207,0.004734,-0.039554,31.88,64.5279258750805
6082,-8.212168,-3.768098,4.295117,0.004734,0.003207,-0.03711,31.88,64.575174615182
6092,-8.205587,-3.765705,4.3005,0.005803,0.002596,-0.034667,31.9,64.5301526236445
6102,-8.190632,-3.763312,4.302894,0.007178,0.001222,-0.031765,31.9,64.4817651521389
6112,-8.193025,-3.771089,4.306482,0.009316,0.000153,-0.023671,31.84,64.4765967121145
6122,-8.179864,-3.768696,4.307679,0.009774,-0.000305,-0.018937,31.9,64.4383609160479
6132,-8.188837,-3.773481,4.320839,0.010843,-0.000916,-0.015272,31.9,64.39543020517
6142,-8.189436,-3.767499,4.307679,0.011148,-0.001527,-0.010232,31.88,64.4586372923179
6152,-8.199007,-3.756732,4.311867,0.011148,-0.00168,-0.005345,31.88,64.4473722321863
6162,-8.185846,-3.766303,4.305286,0.011606,-0.002138,-0.000916,31.89,64.46172068539
6172,-8.194819,-3.757928,4.310072,0.011454,-0.002291,0.003512,31.89,64.4484745149491
6182,-8.195418,-3.767499,4.31067,0.011454,-0.003054,0.007025,31.86,64.4566003968572
6192,-8.18764,-3.752544,4.315455,0.011606,-0.003054,0.011148,31.86,64.3989123711806
6202,-8.208578,-3.768098,4.322634,0.010537,-0.003512,0.01405,31.89,64.4249557134559
6212,-8.205587,-3.754937,4.325027,0.010537,-0.002749,0.017562,31.89,64.3923222678916
6222,-8.218747,-3.759125,4.325027,0.010537,-0.003512,0.019853,31.89,64.4262065879937
6232,-8.222935,-3.74716,4.329215,0.009163,-0.004123,0.020769,31.89,64.4017432989689
6242,-8.219944,-3.751348,4.334,0.007789,-0.003054,0.022297,31.91,64.3746405254024
6252,-8.237292,-3.748955,4.332804,0.005956,-0.00336,0.022144,31.91,64.4173316498493
6262,-8.2349,-3.732804,4.336392,0.005345,-0.003512,0.021533,31.89,64.3769871677025
6272,-8.248059,-3.74716,4.348955,0.004734,-0.003512,0.020159,31.89,64.3565750854337
6282,-8.243275,-3.748357,4.335197,0.002138,-0.001985,0.016341,31.91,64.4178242159051
6292,-8.243872,-3.747759,4.347759,0.001222,-0.001374,0.012065,31.89,64.3539275011175
6302,-8.243275,-3.739982,4.336392,0.000153,-0.001222,0.008094,31.89,64.4031342405551
6312,-8.24148,-3.739383,4.339982,0.000153,-0.000916,0.00504,31.91,64.3800102903845
6322,-8.244471,-3.736392,4.341179,-0.000458,-0.000458,0.000611,31.91,64.3775243266675
6332,-8.240283,-3.738187,4.347161,-0.000764,0.000153,-0.003054,31.9,64.3391547697934
6342,-8.240881,-3.736991,4.341179,-0.000458,0.000458,-0.006567,31.9,64.3700627040005
6352,-8.233105,-3.743571,4.335794,0,0.000458,-0.009774,31.86,64.3870251040487
6362,-8.222337,-3.728018,4.341179,0.000458,0.001985,-0.013439,31.86,64.3191114074111
6372,-8.225926,-3.744169,4.338188,0.001222,0.003054,-0.015882,31.85,64.3591548404881
6382,-8.216953,-3.748357,4.334598,0.002291,0.004276,-0.018937,31.85,64.3617548160423
6392,-8.216354,-3.735795,4.332804,0.004123,0.005651,-0.020922,31.91,64.3567685478911
6402,-8.213962,-3.751348,4.336392,0.005345,0.006414,-0.022144,31.91,64.348843652822
6412,-8.213962,-3.738786,4.331607,0.006414,0.007636,-0.022907,31.91,64.3606196309187
6422,-8.194819,-3.733402,4.326224,0.006872,0.00901,-0.022907,31.91,64.3396810800585
6432,-8.19781,-3.739982,4.323233,0.008247,0.009927,-0.022297,31.89,64.3686699075844
6442,-8.199606,-3.737589,4.331607,0.010079,0.011606,-0.022755,31.89,64.3269939344857
6452,-8.192427,-3.742973,4.326822,0.01069,0.015272,-0.020617,31.88,64.3410509547283
6462,-8.206185,-3.726223,4.342375,0.010843,0.016646,-0.019853,31.91,64.2745913320312
6472,-8.200802,-3.725027,4.336392,0.010843,0.017868,-0.018784,31.91,64.2920603788995
6482,-8.208578,-3.725027,4.341777,0.010537,0.020159,-0.017715,31.93,64.281863786293
6492,-8.203793,-3.728616,4.335197,0.009316,0.021838,-0.01573,31.93,64.3086875162761
6502,-8.20798,-3.735196,4.336991,0.00901,0.022755,-0.015272,31.89,64.3156534014781
6512,-8.216354,-3.731607,4.333402,0.007789,0.02474,-0.013439,31.89,64.349391386629
6522,-8.213962,-3.738786,4.348955,0.005498,0.026267,-0.012675,31.91,64.2711712953083
6532,-8.219346,-3.74058,4.338786,0.00336,0.027336,-0.011912,31.91,64.3375716753563
6542,-8.223534,-3.734598,4.347759,0.00168,0.028711,-0.011454,31.87,64.2946506060316
6552,-8.23131,-3.732205,4.344768,-0.000305,0.029474,-0.011454,31.87,64.3251466081396
6562,-8.229516,-3.745365,4.338786,-0.002902,0.029627,-0.012065,31.89,64.3653776312965
6572,-8.246264,-3.74058,4.336991,-0.004734,0.030238,-0.012828,31.89,64.4073716359546
6582,-8.245667,-3.738786,4.345964,-0.008247,0.030238,-0.01405,31.93,64.3580355878998
6592,-8.248658,-3.738187,4.345366,-0.011148,0.030391,-0.016188,31.93,64.3672246187538
6602,-8.237292,-3.745365,4.332206,-0.013134,0.029932,-0.018173,31.92,64.416746128768
6612,-8.249256,-3.750151,4.324429,-0.015272,0.029474,-0.020311,31.92,64.4884923152751
6622,-8.243872,-3.750151,4.325625,-0.016799,0.027642,-0.024129,31.93,64.4702805789816
6632,-8.249256,-3.754339,4.308876,-0.020464,0.025198,-0.026114,31.88,64.5728950752481
6642,-8.251051,-3.765106,4.308876,-0.02138,0.022144,-0.028558,31.88,64.5878359929244
6652,-8.245667,-3.760919,4.307081,-0.021838,0.020464,-0.029627,31.91,64.5808329862874
6662,-8.245667,-3.759723,4.298108,-0.02138,0.017715,-0.031154,31.91,64.6259118832898
6672,-8.239684,-3.765106,4.299304,-0.021228,0.014355,-0.032529,31.9,64.6118836570203
6682,-8.230712,-3.766901,4.292724,-0.020006,0.010232,-0.033139,31.9,64.6277048805598
6692,-8.2349,-3.766901,4.280162,-0.018784,0.007178,-0.033292,31.87,64.7019673408556
6702,-8.222337,-3.772285,4.281956,-0.016493,0.003207,-0.032987,31.87,64.6702271747091
6712,-8.217552,-3.768098,4.275376,-0.01405,-0.001069,-0.032681,31.86,64.6893624783084
6722,-8.219346,-3.780062,4.275974,-0.010385,-0.00504,-0.031765,31.86,64.7024802063013
6732,-8.216354,-3.77049,4.278367,-0.007789,-0.009774,-0.030696,31.89,64.6736484515509
6742,-8.210971,-3.77049,4.278965,-0.004734,-0.013897,-0.027947,31.89,64.6585569040509
6752,-8.200802,-3.771687,4.274778,-0.001527,-0.017715,-0.025351,31.95,64.6588048008067
6762,-8.213962,-3.775874,4.271188,0.00168,-0.021991,-0.022297,31.95,64.7110134405985
6772,-8.215158,-3.760919,4.283751,0.005345,-0.02642,-0.018173,31.89,64.6333230349914
6782,-8.209774,-3.765705,4.280162,0.008858,-0.030238,-0.015424,31.89,64.6447892691527
6792,-8.210971,-3.772285,4.292724,0.011759,-0.033139,-0.011759,31.89,64.5891737462168
6802,-8.20798,-3.77049,4.306482,0.017104,-0.037874,-0.004429,31.89,64.5095009576824
6812,-8.215158,-3.765106,4.309474,0.019853,-0.039554,-0.001069,31.86,64.5045829782557
6822,-8.215158,-3.766303,4.309474,0.022144,-0.040623,0.001833,31.91,64.5058115844396
6832,-8.209774,-3.774678,4.316652,0.022602,-0.040775,0.004276,31.91,64.4652973883009
6842,-8.213365,-3.760919,4.335197,0.022907,-0.039859,0.007025,31.87,64.3635124530093
6852,-8.218149,-3.762714,4.339384,0.023518,-0.039095,0.008858,31.87,64.3545431439037
6862,-8.213365,-3.759125,4.353143,0.022907,-0.036652,0.01069,31.9,64.2692148012644
6872,-8.22473,-3.764508,4.355535,0.021686,-0.034972,0.011606,31.9,64.2880724154477
6882,-8.224131,-3.765106,4.370491,0.021075,-0.031001,0.011912,31.91,64.2104838690456
6892,-8.209774,-3.749553,4.382454,0.018784,-0.026725,0.012065,31.91,64.1004637571936
6902,-8.216354,-3.747759,4.37408,0.016646,-0.022297,0.011912,31.9,64.1565485296516
6912,-8.206185,-3.74716,4.383053,0.014813,-0.016952,0.010232,31.9,64.0867589252435
6922,-8.200203,-3.753741,4.399803,0.011606,-0.010843,0.00901,31.91,63.9939876377772
6932,-8.207382,-3.74716,4.406384,0.008552,-0.004123,0.00672,31.91,63.9697267501322
6942,-8.210373,-3.751348,4.399803,0.005803,0.002443,0.004581,31.87,64.0146354525125
6952,-8.19781,-3.745964,4.393821,0.002291,0.009316,0.001069,31.87,64.0111520472228
6962,-8.202596,-3.754937,4.391428,-0.000764,0.016493,-0.001527,31.9,64.0436657667812
6972,-8.199007,-3.742374,4.391428,-0.003971,0.030849,-0.007025,31.9,64.0224368732788
6982,-8.19123,-3.744169,4.386642,-0.008552,0.037263,-0.009468,31.89,64.0311907887708
6992,-8.196614,-3.746562,4.377669,-0.011148,0.043677,-0.01237,31.87,64.0920753860805
7002,-8.196015,-3.742374,4.371687,-0.013286,0.04948,-0.014355,31.87,64.1171479769924
7012,-8.198408,-3.748357,4.354938,-0.014203,0.054672,-0.016035,31.91,64.2150369078743
7022,-8.203195,-3.741776,4.351946,-0.015119,0.059254,-0.015882,31.91,64.2344895299019
7032,-8.19781,-3.743571,4.332206,-0.015424,0.062156,-0.018021,31.93,64.3260081783059
7042,-8.204391,-3.747759,4.335794,-0.015272,0.064599,-0.018173,31.93,64.3266582948303
7052,-8.193025,-3.74716,4.313063,-0.014661,0.067042,-0.01741,31.87,64.4178669473517
7062,-8.209774,-3.741776,4.313063,-0.013592,0.06689,-0.017715,31.87,64.4500291076287
7072,-8.213962,-3.749553,4.294518,-0.011454,0.066126,-0.018021,31.92,64.5633011922677
7082,-8.210971,-3.749553,4.297509,-0.010079,0.064752,-0.014813,31.92,64.5411237286126
7092,-8.214561,-3.745964,4.283153,-0.007941,0.062919,-0.014203,31.85,64.6198209256154
7102,-8.227122,-3.736991,4.277769,-0.005956,0.058948,-0.012675,31.85,64.6666517368171
7112,-8.222935,-3.745964,4.287939,-0.003512,0.054825,-0.009621,31.95,64.6137599227585
7122,-8.225328,-3.748357,4.274778,0.000305,0.049786,-0.008094,31.95,64.6896793368466
7132,-8.2349,-3.737589,4.265805,0.002443,0.044288,-0.006414,31.92,64.7465849306652
7142,-8.260024,-3.746562,4.264608,0.005651,0.037568,-0.001069,31.92,64.8176150502731
7152,-8.25165,-3.737589,4.261617,0.009468,0.023976,-0.000458,31.88,64.8055113771304
7162,-8.259426,-3.745964,4.256832,0.012065,0.016188,0.000305,31.89,64.8559329129626
7172,-8.260024,-3.732804,4.268198,0.013286,0.008858,0.001374,31.89,64.7852283403649
7182,-8.257631,-3.743571,4.264608,0.014203,0.001833,0.002138,31.91,64.8093065438485
7192,-8.259426,-3.741776,4.278965,0.015119,-0.005498,0.002291,31.91,64.7372405734473
7202,-8.270193,-3.733402,4.281358,0.014813,-0.01237,0.000764,31.9,64.7403819471252
7212,-8.2678,-3.739383,4.28734,0.014966,-0.018479,0,31.9,64.7101831247514
7222,-8.26481,-3.726223,4.290929,0.014966,-0.023824,-0.000611,31.91,64.671779688268
7232,-8.268398,-3.736991,4.303492,0.013592,-0.029474,-0.002596,31.91,64.6257887959174
7242,-8.2678,-3.732804,4.312464,0.012523,-0.033903,-0.004429,31.9,64.5740013986008
7252,-8.262416,-3.732205,4.308277,0.01069,-0.037415,-0.00733,31.9,64.5829564882769
7262,-8.255239,-3.739383,4.313661,0.008858,-0.039859,-0.010079,31.91,64.5464233829618
7272,-8.25464,-3.738786,4.319045,0.005956,-0.041997,-0.013134,31.91,64.5167338186719
7282,-8.245069,-3.741179,4.336392,0.003207,-0.042913,-0.016035,31.93,64.4083820862712
7292,-8.2349,-3.736392,4.338188,-0.000153,-0.043677,-0.018479,31.93,64.3713971968583
7302,-8.231908,-3.73041,4.344768,-0.001833,-0.042608,-0.021686,31.9,64.3246603680443
7312,-8.208578,-3.751348,4.347161,-0.004887,-0.040775,-0.024435,31.9,64.281195127464
7322,-8.210971,-3.752544,4.35075,-0.009774,-0.036041,-0.029169,31.91,64.2693419009118
7332,-8.20798,-3.744169,4.360321,-0.012523,-0.032223,-0.02978,31.93,64.204651053783
7342,-8.193623,-3.748357,4.356134,-0.014508,-0.029016,-0.031001,31.93,64.1980349157371
7352,-8.180463,-3.738786,4.353143,-0.016188,-0.024282,-0.031612,31.89,64.1736723414992
7362,-8.182258,-3.754937,4.359723,-0.018173,-0.020311,-0.032681,31.89,64.1606006390946
7372,-8.179864,-3.754937,4.35075,-0.018479,-0.015424,-0.032223,31.9,64.2014510878096
7382,-8.19123,-3.753741,4.343571,-0.018631,-0.010996,-0.031001,31.9,64.2629856938617
7392,-8.186445,-3.751946,4.351946,-0.019242,-0.006261,-0.029627,31.92,64.2070870002453
7402,-8.178668,-3.754339,4.345964,-0.019242,-0.002291,-0.028253,31.92,64.2228208203042
7412,-8.178668,-3.761517,4.347161,-0.017562,0.001222,-0.026114,31.89,64.224112614568
7422,-8.170892,-3.75733,4.345366,-0.01741,0.004887,-0.023976,31.89,64.2113982514747
7432,-8.180463,-3.75075,4.34417,-0.01573,0.008705,-0.020922,31.89,64.2324198228693
7442,-8.194819,-3.750151,4.342973,-0.014508,0.011148,-0.019242,31.89,64.2704688342906
7452,-8.193025,-3.762115,4.334598,-0.01237,0.013592,-0.015272,31.91,64.3220232276054
7462,-8.2014,-3.756732,4.331009,-0.009316,0.015882,-0.01405,31.91,64.3538631727075
7472,-8.209774,-3.761517,4.320839,-0.007636,0.016493,-0.012523,31.93,64.4301303826089
7482,-8.209774,-3.755535,4.321437,-0.005192,0.017562,-0.009163,31.93,64.4208900956324
7492,-8.209774,-3.756134,4.328018,-0.00336,0.018021,-0.00504,31.89,64.3875359046065
7502,-8.216953,-3.763312,4.31725,0.001222,0.017715,-0.003512,31.92,64.4666107365757
7522,-8.219346,-3.765106,4.325027,0.005651,0.017257,-0.000764,31.9,64.4336940606327
7532,-8.233703,-3.765705,4.326224,0.00733,0.016493,-0.000611,31.9,64.4603108890059
7542,-8.229516,-3.760321,4.32742,0.00901,0.016035,0.000916,31.89,64.4392540519531
7552,-8.227122,-3.769892,4.331009,0.010385,0.01573,0.000764,31.89,64.4252124185638
7562,-8.230712,-3.761517,4.336392,0.011148,0.015424,-0.000458,31.91,64.3969448956458
7572,-8.233703,-3.762714,4.335794,0.010996,0.01573,-0.000611,31.91,64.4079608608775
7582,-8.229516,-3.75733,4.336392,0.010385,0.014813,-0.002291,31.93,64.3899665747816
7592,-8.226524,-3.762115,4.335197,0.011454,0.015272,-0.003207,31.93,64.3943127333275
7602,-8.224131,-3.763312,4.338786,0.011148,0.016493,-0.004276,31.89,64.3716838482294
7612,-8.238488,-3.765106,4.343571,0.009927,0.017257,-0.005651,31.89,64.3811278762258
7622,-8.232506,-3.769294,4.346562,0.008705,0.018173,-0.006414,31.88,64.3566216478338
7632,-8.223534,-3.764508,4.335197,0.006872,0.019395,-0.008247,31.88,64.3900581493525
7642,-8.216953,-3.768098,4.331009,0.005956,0.021686,-0.009468,31.93,64.4005576419883
7652,-8.21157,-3.767499,4.343571,0.004429,0.023366,-0.010843,31.93,64.323106642547
7662,-8.215158,-3.762714,4.338188,0.002291,0.024435,-0.013134,31.89,64.3539784535234
7672,-8.20798,-3.755535,4.334598,-0.001374,0.027947,-0.013744,31.92,64.3489328781481
7682,-8.212766,-3.759125,4.334,-0.00336,0.029627,-0.014203,31.92,64.3664888394817
7692,-8.207382,-3.760919,4.331009,-0.004581,0.030849,-0.015424,31.91,64.3716507922347
7702,-8.206783,-3.760321,4.328616,-0.006414,0.031307,-0.015424,31.91,64.3820340650238
7712,-8.22772,-3.758526,4.326822,-0.007636,0.032529,-0.015424,31.93,64.4364701103893
7722,-8.209177,-3.749553,4.308277,-0.008399,0.032681,-0.015119,31.93,64.4814027731227
7732,-8.215756,-3.753142,4.311268,-0.009468,0.032834,-0.013897,31.92,64.484386665596
7742,-8.21157,-3.749553,4.304688,-0.009927,0.031307,-0.012675,31.92,64.5053307796728
7752,-8.222935,-3.745964,4.299304,-0.010537,0.029474,-0.011301,31.9,64.5549700942888
7762,-8.221739,-3.755535,4.302295,-0.009774,0.027336,-0.009774,31.9,64.5466037377638
7772,-8.225328,-3.750151,4.289733,-0.009927,0.025045,-0.008399,31.93,64.6140873784989
7782,-8.23131,-3.74716,4.292724,-0.00901,0.021838,-0.006567,31.93,64.6089363740044
7792,-8.238488,-3.748357,4.282554,-0.008705,0.017562,-0.004581,31.92,64.6787547234581
7802,-8.23131,-3.746562,4.280162,-0.007025,0.013744,-0.002138,31.92,64.6733143402447
7812,-8.233105,-3.744768,4.272385,-0.00504,0.009774,0.000611,31.95,64.7157610260757
7822,-8.236095,-3.745964,4.275974,-0.003665,0.004123,0.001833,31.95,64.7050477280887
7832,-8.234302,-3.736392,4.278367,-0.001985,-0.001222,0.004276,31.91,64.6789716565289
7842,-8.236095,-3.742973,4.286144,0.00168,-0.01237,0.008399,31.92,64.6493938312166
7852,-8.242676,-3.746562,4.289135,0.00336,-0.017257,0.010079,31.92,64.6522419219641
7862,-8.242078,-3.742374,4.283153,0.005498,-0.021991,0.011301,31.92,64.6775963049993
7872,-8.254042,-3.752544,4.292724,0.007178,-0.027184,0.011301,31.92,64.6650698781309
7882,-8.249854,-3.735196,4.299902,0.008399,-0.031154,0.012523,31.91,64.6011350051666
7892,-8.249256,-3.736991,4.308277,0.011606,-0.034972,0.011912,31.91,64.5583920450572
7902,-8.242676,-3.734,4.314259,0.010996,-0.037874,0.011301,31.86,64.5097717004521
7912,-8.249256,-3.739383,4.319643,0.011301,-0.040012,0.009774,31.86,64.5022093201081
7922,-8.244471,-3.743571,4.324429,0.012217,-0.041233,0.009163,31.88,64.4710850860341
7932,-8.242676,-3.729214,4.338188,0.012065,-0.043371,0.006414,31.88,64.3815751122869
7942,-8.245069,-3.732804,4.344768,0.012065,-0.042302,0.003207,31.89,64.3567467033501
7952,-8.2349,-3.741776,4.346562,0.012065,-0.041386,0.000458,31.89,64.3337871886254
7962,-8.24148,-3.727419,4.365107,0.010537,-0.039859,-0.003207,31.91,64.2385909266794
7972,-8.217552,-3.735196,4.360321,0.009468,-0.036346,-0.006261,31.91,64.2170691518429
7982,-8.216953,-3.732205,4.374678,0.007178,-0.034056,-0.011301,31.91,64.1387848662783
7992,-8.219346,-3.726821,4.37408,0.005651,-0.029474,-0.01573,31.91,64.1417449045061
8002,-8.220542,-3.729214,4.377071,0.004276,-0.02474,-0.018326,31.85,64.1315481402697
8012,-8.206185,-3.729812,4.378866,0.00168,-0.01237,-0.025504,31.85,64.0903210364396
8022,-8.206185,-3.733402,4.377669,-0.003512,-0.006261,-0.029627,31.85,64.1001885316155
8032,-8.190632,-3.739982,4.383053,-0.005192,-0.000764,-0.03207,31.88,64.0439300667632
8042,-8.2014,-3.741776,4.370491,-0.008094,0.005651,-0.034056,31.88,64.1349124841347
8052,-8.197212,-3.741179,4.38066,-0.009927,0.012065,-0.036499,31.91,64.0724609563472
8062,-8.191828,-3.733402,4.372883,-0.011454,0.018937,-0.036805,31.91,64.0921623373429
8072,-8.201998,-3.741776,4.369893,-0.013897,0.023976,-0.037874,31.91,64.1393472440975
8082,-8.179864,-3.739982,4.362116,-0.015424,0.029474,-0.038637,31.91,64.1272599663439
8092,-8.185248,-3.744768,4.361517,-0.016646,0.034361,-0.036805,31.95,64.1475621471331
8102,-8.184052,-3.74058,4.352544,-0.017562,0.03879,-0.036346,31.95,64.1867762339337
8112,-8.187043,-3.75733,4.342375,-0.018479,0.04215,-0.034514,31.87,64.263411696853
8122,-8.19123,-3.753741,4.345964,-0.018937,0.04444,-0.031154,31.87,64.2506395595619
8132,-8.200203,-3.759125,4.331009,-0.019853,0.047037,-0.029169,31.9,64.3536369037786
8142,-8.199606,-3.748955,4.33041,-0.0197,0.048411,-0.025809,31.9,64.344888241538
8152,-8.205587,-3.757928,4.322634,-0.018784,0.049175,-0.021991,31.88,64.4077587293503
8162,-8.199606,-3.751348,4.308277,-0.018021,0.047953,-0.019395,31.88,64.4617459053327
8172,-8.213962,-3.763312,4.307679,-0.017715,0.047037,-0.016188,31.88,64.5093369691117
8182,-8.221141,-3.755535,4.295715,-0.016799,0.045815,-0.008858,31.88,64.579281965905
8192,-8.222337,-3.766901,4.301099,-0.013286,0.040775,-0.006567,31.87,64.5657448610417
8202,-8.229516,-3.762115,4.297509,-0.012065,0.036652,-0.004429,31.89,64.5954314577634
8212,-8.237292,-3.765106,4.298706,-0.011301,0.032681,-0.002443,31.89,64.6096403578411
8222,-8.23789,-3.772285,4.299902,-0.00901,0.0281,-0.001069,31.85,64.6121159359153
8232,-8.250452,-3.772285,4.287939,-0.00733,0.02474,0.000153,31.85,64.7017929419431
8242,-8.247462,-3.772883,4.28734,-0.006261,0.019548,0.000916,31.91,64.6988565447564
8252,-8.244471,-3.767499,4.279563,-0.004429,0.013592,-0.000153,31.91,64.7269310120243
8262,-8.248658,-3.769892,4.288536,-0.002596,0.00901,-0.000305,31.89,64.6923001988464
8272,-8.257033,-3.758526,4.289733,-0.001527,0.004581,-0.001222,31.89,64.693207477751
8282,-8.249854,-3.764508,4.293921,-0.000916,-0.000458,-0.003207,31.92,64.6616965858942
8292,-8.248059,-3.768696,4.292126,0.000764,-0.004581,-0.004734,31.92,64.6712222309707
8302,-8.255239,-3.774678,4.28734,0.002138,-0.00901,-0.006109,31.86,64.7179286958945
8312,-8.243872,-3.762115,4.302894,0.003818,-0.012828,-0.008399,31.86,64.5996457744627
8322,-8.249854,-3.754937,4.303492,0.004276,-0.015882,-0.009927,31.91,64.6026025222536
8332,-8.239684,-3.765705,4.302894,0.00504,-0.019548,-0.013286,31.91,64.593965146264
8342,-8.233105,-3.769892,4.313661,0.005498,-0.021991,-0.01405,31.88,64.5280147002608
8352,-8.222935,-3.762714,4.313063,0.006414,-0.023671,-0.014508,31.88,64.5010107881172
8362,-8.200203,-3.760919,4.313063,0.007636,-0.024893,-0.015882,31.9,64.4481889416963
8372,-8.219346,-3.755535,4.322036,0.008399,-0.025504,-0.016035,31.91,64.4392982317637
8382,-8.209177,-3.756732,4.326224,0.008094,-0.025351,-0.014966,31.91,64.3960670773481
8392,-8.195418,-3.752544,4.329215,0.00901,-0.025045,-0.013897,31.9,64.345317342267
8402,-8.189436,-3.76391,4.321437,0.009468,-0.022755,-0.011148,31.9,64.3837749682282
8412,-8.18764,-3.768696,4.32742,0.00901,-0.021838,-0.009927,31.92,64.353771498807
8422,-8.19123,-3.753741,4.331009,0.008552,-0.019853,-0.007636,31.92,64.3278385234707
8432,-8.193025,-3.742973,4.343571,0.007636,-0.018021,-0.004887,31.92,64.255899905736
8442,-8.182856,-3.753741,4.348955,0.00733,-0.015272,-0.002749,31.92,64.216250368383
8452,-8.189436,-3.751946,4.351348,0.007178,-0.012523,0.001069,31.91,64.2169469931153
8462,-8.196614,-3.756732,4.354938,0.00672,-0.009621,0.003665,31.91,64.2196533828131
8472,-8.188837,-3.741179,4.345964,0.005651,-0.006414,0.00672,31.93,64.2322076430697
8482,-8.197212,-3.735795,4.342973,0.004734,-0.00336,0.008399,31.93,64.2610500284536
8492,-8.207382,-3.749553,4.36391,0.002596,-0.000458,0.010385,31.89,64.1903880200848
8502,-8.205587,-3.741776,4.35075,0.001833,0.002443,0.011912,31.89,64.2460660677894
8512,-8.222337,-3.732205,4.352544,0.000764,0.005651,0.014203,31.88,64.2648521314018
8522,-8.222337,-3.74058,4.35075,-0.001222,0.00733,0.013744,31.88,64.2826843621511
8532,-8.213365,-3.735196,4.356134,-0.003971,0.013286,0.013897,31.9,64.2291483667924
8542,-8.22772,-3.741776,4.354339,-0.005956,0.015424,0.012065,31.89,64.2775880879446
8552,-8.23131,-3.738786,4.349553,-0.007789,0.017715,0.009927,31.89,64.3072468685076
8562,-8.243872,-3.728018,4.353143,-0.008705,0.019242,0.007941,31.9,64.3060960657374
8572,-8.245667,-3.745964,4.346562,-0.009927,0.020769,0.005803,31.9,64.3622827794551
8582,-8.232506,-3.729812,4.352544,-0.010996,0.021838,0.001833,31.89,64.2853693100856
8592,-8.236095,-3.744768,4.350152,-0.011454,0.023213,-0.001527,31.89,64.3210692208279
8602,-8.229516,-3.734598,4.336991,-0.011454,0.023824,-0.004581,31.88,64.3636118593304
8612,-8.234302,-3.736991,4.335197,-0.011606,0.023976,-0.00733,31.88,64.3860709966645
8622,-8.247462,-3.739982,4.328018,-0.012217,0.023824,-0.011301,31.9,64.4556497869836
8632,-8.231908,-3.739383,4.329813,-0.011606,0.023671,-0.014813,31.9,64.4108764465413
8642,-8.226524,-3.745365,4.328018,-0.01069,0.023213,-0.01741,31.89,64.4141449470949
8652,-8.226524,-3.737589,4.328018,-0.009621,0.022602,-0.020159,31.89,64.4061941977019
8662,-8.237292,-3.745365,4.31725,-0.008858,0.022297,-0.021075,31.89,64.493836474742
8672,-8.22772,-3.745365,4.314259,-0.007636,0.020769,-0.023518,31.89,64.4878175254907
8682,-8.221739,-3.741179,4.3005,-0.005803,0.01909,-0.02474,31.88,64.5412278457371
8692,-8.222935,-3.745365,4.305286,-0.003971,0.017562,-0.025504,31.88,64.5234375416001
8702,-8.221739,-3.742374,4.293921,-0.002749,0.013897,-0.026114,31.92,64.5764744547742
8712,-8.223534,-3.745365,4.305286,0.001069,0.011912,-0.024893,31.9,64.524779737199
8722,-8.213962,-3.751348,4.302894,0.001985,0.009621,-0.024893,31.9,64.5218089688652
8732,-8.221141,-3.751946,4.301099,0.002902,0.008094,-0.023976,31.91,64.5477800731888
8742,-8.22473,-3.753142,4.3005,0.003665,0.006109,-0.022907,31.91,64.560127368401
8752,-8.210373,-3.745964,4.298108,0.004123,0.003665,-0.021838,31.9,64.5330112389721
8762,-8.215756,-3.745365,4.308876,0.004581,0.001985,-0.0197,31.9,64.4887844270092
8772,-8.22473,-3.750151,4.315455,0.005345,-0.000305,-0.016646,31.93,64.4798283972285
8782,-8.209177,-3.751946,4.308876,0.004581,-0.002138,-0.016035,31.93,64.4807603513869
8792,-8.227122,-3.748955,4.311268,0.004276,-0.004276,-0.013897,31.9,64.5055836799821
8802,-8.22473,-3.747759,4.315455,0.002291,-0.005498,-0.012523,31.9,64.4773832641281
8812,-8.223534,-3.751946,4.315455,0.002291,-0.006261,-0.010843,31.91,64.4789824133652
8822,-8.215158,-3.735795,4.319643,0.000764,-0.007636,-0.010079,31.91,64.4220148241357
8832,-8.230114,-3.741776,4.322036,-0.001222,-0.007941,-0.009621,31.92,64.4493931107798
8842,-8.235497,-3.751348,4.33041,-0.002749,-0.009316,-0.008705,31.92,64.428080318028
8852,-8.239087,-3.746562,4.325027,-0.004887,-0.009163,-0.006872,31.92,64.4589829269564
8862,-8.221739,-3.742973,4.342973,-0.006872,-0.009163,-0.006567,31.92,64.3238444678418
8872,-8.239087,-3.754937,4.337589,-0.008705,-0.009774,-0.00733,31.93,64.4028368681616
8882,-8.231908,-3.751946,4.334598,-0.012828,-0.008552,-0.007941,31.9,64.3990626964284
8893,-8.228318,-3.75733,4.332206,-0.014661,-0.008247,-0.008552,31.9,64.4088397534126
8902,-8.217552,-3.75075,4.341179,-0.015577,-0.007483,-0.008858,31.91,64.3316411238077
8912,-8.222337,-3.749553,4.341777,-0.016799,-0.006261,-0.009468,31.91,64.3381074588412
8922,-8.209774,-3.754937,4.338786,-0.017562,-0.005498,-0.011759,31.94,64.3307610462301
8932,-8.226524,-3.760321,4.339384,-0.018631,-0.004123,-0.012523,31.94,64.3709073757662
8942,-8.223534,-3.764508,4.339384,-0.018937,-0.002749,-0.012675,31.93,64.3684928570776
8952,-8.210971,-3.766901,4.332206,-0.018479,-0.000916,-0.01405,31.93,64.3797156931517
8962,-8.215158,-3.759723,4.332804,-0.017715,-0.000153,-0.015424,31.88,64.3786508914647
8972,-8.221141,-3.766901,4.32742,-0.017562,0.001069,-0.01573,31.88,64.4272255989294
8982,-8.200802,-3.766303,4.331009,-0.016799,0.002138,-0.017257,31.89,64.3624017875957
8992,-8.215158,-3.756732,4.323831,-0.01573,0.002749,-0.018173,31.89,64.4218601515149
9002,-8.203195,-3.759723,4.326224,-0.012828,0.004276,-0.017715,31.93,64.3856917061416
9012,-8.206783,-3.762115,4.318447,-0.011606,0.004887,-0.018479,31.93,64.4363804754741
9022,-8.200802,-3.769892,4.318447,-0.009316,0.005498,-0.018173,31.94,64.430966367067
9032,-8.2014,-3.768098,4.319045,-0.007025,0.005803,-0.017715,31.94,64.4273688390715
9042,-8.197212,-3.764508,4.311867,-0.005192,0.007636,-0.016493,31.92,64.4513535471439
9052,-8.203195,-3.756732,4.30409,0.000305,0.00733,-0.01405,31.92,64.4969999723594
9062,-8.210373,-3.761517,4.320839,0.003665,0.007178,-0.012065,31.91,64.431475528903
9072,-8.200802,-3.75733,4.320241,0.005192,0.00901,-0.010079,31.88,64.4087410231397
9082,-8.198408,-3.758526,4.314857,0.007636,0.008399,-0.007483,31.88,64.4324148319518
9092,-8.201998,-3.766303,4.320839,0.009774,0.008094,-0.005345,31.91,64.4175941317794
9102,-8.203793,-3.764508,4.328616,0.010537,0.007789,-0.002596,31.91,64.379626872688
9112,-8.199007,-3.747759,4.334598,0.011912,0.008094,-0.001222,31.91,64.3206804583661
9122,-8.204391,-3.753741,4.324429,0.013134,0.008399,0.001833,31.91,64.3914869411257
9132,-8.221739,-3.758526,4.335197,0.013439,0.008247,0.003207,31.9,64.3798790007129
9142,-8.219346,-3.765106,4.329813,0.013286,0.009163,0.004887,31.9,64.4090165335785
9152,-8.225328,-3.751946,4.332206,0.013439,0.009621,0.006872,31.88,64.3966061367162
9162,-8.234302,-3.754937,4.331607,0.012828,0.009468,0.00672,31.88,64.4229028586545
9172,-8.222935,-3.746562,4.347759,0.011454,0.010232,0.007483,31.87,64.3055761321839
9182,-8.22473,-3.753741,4.335197,0.009621,0.010843,0.007483,31.87,64.3816890840109
9192,-8.243275,-3.761517,4.341179,0.008858,0.011759,0.007483,31.91,64.4004884119209
9202,-8.233703,-3.751946,4.352544,0.005651,0.011912,0.006261,31.91,64.3107375567516
9212,-8.235497,-3.739982,4.344768,0.003054,0.012828,0.005803,31.88,64.3425294371963
9222,-8.230114,-3.749553,4.345964,0.001374,0.014966,0.00336,31.88,64.3340564215357
9232,-8.227122,-3.747759,4.339982,-0.004276,0.016188,0.002138,31.88,64.3562836348202
9242,-8.233105,-3.753741,4.34058,-0.007025,0.016493,-0.001527,31.86,64.3727868662802
9252,-8.216953,-3.748357,4.324429,-0.009774,0.016952,-0.003207,31.86,64.4142118927189
9262,-8.238488,-3.754339,4.326224,-0.011759,0.017562,-0.005803,31.94,64.4594063247467
9272,-8.228917,-3.744169,4.326822,-0.013439,0.017868,-0.00672,31.94,64.4244654362691
9282,-8.228318,-3.742973,4.325625,-0.015272,0.017715,-0.009163,31.91,64.428070442453
9292,-8.236693,-3.746562,4.311867,-0.016952,0.017562,-0.010232,31.91,64.5214849849937
9302,-8.221141,-3.760321,4.323831,-0.017257,0.017104,-0.012675,31.91,64.4389758357372
9312,-8.232506,-3.744768,4.315455,-0.018021,0.016493,-0.012523,31.91,64.4917646241886
9322,-8.230712,-3.75075,4.308876,-0.018173,0.015577,-0.013592,31.92,64.5278042597469
9332,-8.240881,-3.742973,4.299902,-0.017868,0.013439,-0.01573,31.92,64.588970389822
9342,-8.225328,-3.737589,4.30409,-0.017562,0.011148,-0.016646,31.93,64.527053372065
9352,-8.225328,-3.741179,4.297509,-0.015577,0.008705,-0.017257,31.93,64.5647326323388
9362,-8.225328,-3.747759,4.292724,-0.014813,0.005803,-0.016646,31.89,64.5961797195686
9372,-8.227122,-3.744169,4.290929,-0.013592,0.002443,-0.016799,31.89,64.6058204341891
9382,-8.233105,-3.748357,4.286742,-0.011454,0.000153,-0.016035,31.89,64.6450939814104
9392,-8.222935,-3.748955,4.287939,-0.009468,-0.004276,-0.013897,31.89,64.616805836126
9402,-8.226524,-3.746562,4.290331,-0.003665,-0.010537,-0.012217,31.9,64.6100121593411
9412,-8.224131,-3.742374,4.295117,-0.00168,-0.014355,-0.009927,31.9,64.5756410414043
9422,-8.217552,-3.742374,4.286144,0.001069,-0.018021,-0.007789,31.9,64.6073598427273
9432,-8.222935,-3.745964,4.286144,0.003665,-0.020922,-0.007483,31.93,64.623050491199
9442,-8.230712,-3.741179,4.298706,0.005345,-0.023366,-0.005192,31.93,64.5705934188552
9452,-8.233703,-3.746562,4.302894,0.007941,-0.025962,-0.003512,31.95,64.5611202284593
9462,-8.218747,-3.733402,4.31725,0.009468,-0.028253,-0.002443,31.95,64.4400039105201
9472,-8.224131,-3.748357,4.319643,0.010537,-0.02978,-0.000611,31.97,64.4550345886093
9482,-8.221141,-3.745365,4.321437,0.01069,-0.031001,0.000611,31.97,64.4360004084206
9492,-8.218149,-3.743571,4.33041,0.010996,-0.031154,0.000611,31.93,64.3811347556066
9502,-8.219346,-3.746562,4.341777,0.010385,-0.030391,-0.000153,31.93,64.328297874229
9512,-8.229516,-3.745365,4.343571,0.010079,-0.029322,-0.000458,31.92,64.3407363095612
9522,-8.213365,-3.741776,4.357928,0.009927,-0.027489,0.000153,31.92,64.2266878568605
9532,-8.212168,-3.746562,4.360919,0.00901,-0.02474,-0.001069,31.9,64.2135206005427
9542,-8.216953,-3.737589,4.365705,0.006109,-0.02138,-0.002443,31.9,64.1904743396128
9552,-8.217552,-3.738786,4.371687,0.003971,-0.01741,-0.003665,31.91,64.1623025108218
9562,-8.218149,-3.746562,4.379463,0.00168,-0.013286,-0.004887,31.91,64.1317229382459
9572,-8.198408,-3.743571,4.376472,-0.004123,-0.002902,-0.009468,31.98,64.0992043621023
9582,-8.204391,-3.741179,4.389633,-0.00672,0.002138,-0.01237,31.91,64.0426723788454
9592,-8.203793,-3.736392,4.385446,-0.009163,0.008094,-0.015424,31.91,64.0578614571922
9602,-8.214561,-3.741776,4.376472,-0.01237,0.014966,-0.016646,31.91,64.134012590699
9612,-8.210373,-3.751348,4.373481,-0.015272,0.021075,-0.018326,31.91,64.1497914271664
9622,-8.19123,-3.748955,4.37408,-0.018021,0.02642,-0.020922,31.87,64.1007944827871
9632,-8.197212,-3.751348,4.370491,-0.019853,0.031612,-0.023518,31.87,64.1353341072376
9642,-8.203195,-3.754937,4.36391,-0.02138,0.036652,-0.024587,31.91,64.1864833600428
9652,-8.213365,-3.76391,4.355535,-0.02306,0.040623,-0.025809,31.91,64.2618465864458
9662,-8.206185,-3.756732,4.348955,-0.024893,0.044593,-0.026573,31.91,64.2721086847213
9672,-8.212168,-3.760321,4.333402,-0.025045,0.047647,-0.026878,31.91,64.3694588670475
9682,-8.202596,-3.75075,4.345366,-0.025809,0.049022,-0.028405,31.93,64.2763212546209
9692,-8.212766,-3.76391,4.322634,-0.026267,0.050549,-0.028711,31.93,64.4300449168974
9702,-8.213962,-3.761517,4.316054,-0.025656,0.050702,-0.028405,31.89,64.4642351794362
9712,-8.215158,-3.769892,4.311867,-0.024129,0.050549,-0.027489,31.89,64.4971385024079
9722,-8.216953,-3.761517,4.309474,-0.023366,0.048564,-0.026267,31.91,64.5049213312528
9732,-8.224131,-3.768696,4.288536,-0.021075,0.04612,-0.025198,31.91,64.6365206023312
9742,-8.224131,-3.765106,4.280162,-0.01909,0.039554,-0.020769,31.89,64.676179944422
9752,-8.222935,-3.758526,4.279563,-0.013897,0.035277,-0.018021,31.89,64.6699104020672
9762,-8.233105,-3.767499,4.271188,-0.011454,0.030391,-0.014813,31.89,64.745018630288
9772,-8.240881,-3.764508,4.272385,-0.008552,0.024282,-0.012523,31.91,64.7530494874673
9782,-8.2349,-3.774678,4.265805,-0.005345,0.018631,-0.009468,31.91,64.7841591517587
9792,-8.248658,-3.765705,4.255037,-0.001985,0.011301,-0.007178,31.95,64.8612783719603
9802,-8.249854,-3.758526,4.262814,0.000458,0.005345,-0.00504,31.95,64.8164183449068
9812,-8.251051,-3.772285,4.274778,0.002596,-0.000764,-0.001985,31.88,64.7710999246298
9822,-8.228318,-3.761517,4.272385,0.005345,-0.007941,0.000305,31.88,64.7221043343538
9832,-8.25165,-3.772285,4.278367,0.006872,-0.012828,0.003054,31.92,64.7538820415656
9842,-8.236693,-3.759125,4.284947,0.008399,-0.018937,0.004123,31.92,64.6733092499475
9852,-8.243275,-3.751946,4.292126,0.009621,-0.023976,0.006414,31.93,64.6435793728313
9862,-8.2349,-3.768098,4.293322,0.011606,-0.028863,0.007941,31.93,64.6351649359428
9872,-8.235497,-3.759125,4.302894,0.011606,-0.032529,0.008094,31.92,64.5779208522989
9882,-8.230712,-3.757928,4.299902,0.01237,-0.035583,0.008705,31.92,64.5814684588857
9892,-8.2349,-3.759125,4.317849,0.012675,-0.037263,0.00901,31.87,64.4994267521454
9902,-8.224131,-3.771089,4.325625,0.011912,-0.03879,0.009163,31.87,64.4474834579489
9912,-8.219346,-3.760919,4.338188,0.011148,-0.039859,0.008247,31.88,64.3615488747967
9922,-8.222337,-3.757928,4.341179,0.009316,-0.038943,0.007941,31.93,64.3497923576668
9932,-8.217552,-3.75075,4.345366,0.007025,-0.037721,0.005803,31.93,64.3100703210668
9942,-8.218149,-3.753741,4.347759,0.006414,-0.035583,0.00504,31.88,64.3021701629854
9952,-8.219944,-3.747759,4.355535,0.003818,-0.032681,0.00336,31.88,64.2600333336802
9962,-8.213365,-3.762714,4.363312,0.002902,-0.028863,0.001374,31.93,64.2206038963769
9972,-8.212168,-3.756134,4.358526,0.001069,-0.024893,0.000458,31.93,64.2357188500435
9982,-8.206783,-3.754339,4.371687,-0.001374,-0.020769,-0.001833,31.91,64.1539803864656
9992,-8.202596,-3.74716,4.363312,-0.00336,-0.016646,-0.003818,31.91,64.1801511332893
10002,-8.206783,-3.742374,4.371089,-0.004734,-0.011759,-0.004581,31.92,64.1446689273115
10012,-8.196614,-3.743571,4.375276,-0.006414,-0.006872,-0.006261,31.92,64.1012808357659
10022,-8.204989,-3.742973,4.362714,-0.007789,-0.002138,-0.007025,31.91,64.1843210927002
10032,-8.204989,-3.736991,4.365107,-0.009163,0.002749,-0.008094,31.91,64.1658194723597
10042,-8.203195,-3.742374,4.357928,-0.010843,0.007178,-0.009468,31.9,64.204284520924
10052,-8.210373,-3.733402,4.360321,-0.011454,0.011301,-0.010232,31.9,64.1989644184835
10062,-8.196015,-3.736991,4.35733,-0.012675,0.014813,-0.009468,31.93,64.1855239522076
10072,-8.201998,-3.742374,4.358526,-0.012828,0.017562,-0.01069,31.93,64.1984923765241
10082,-8.215158,-3.737589,4.342973,-0.013439,0.020311,-0.010385,31.86,64.303470457865
10092,-8.213962,-3.729812,4.335197,-0.012981,0.024587,-0.009621,31.9,64.3328920877491
10102,-8.210971,-3.735196,4.335197,-0.012828,0.024893,-0.009927,31.9,64.3316640064299
10112,-8.203195,-3.742374,4.331607,-0.012675,0.025809,-0.008705,31.89,64.3400239118582
10122,-8.216953,-3.728616,4.328018,-0.012217,0.026267,-0.007941,31.89,64.3754657507058
10132,-8.218747,-3.739982,4.324429,-0.010843,0.02642,-0.00672,31.9,64.4096648533668
10142,-8.230114,-3.72383,4.321437,-0.009927,0.025962,-0.006109,31.9,64.4341921878211
10152,-8.216953,-3.747759,4.312464,-0.008858,0.024893,-0.004581,31.92,64.4753804340877
10162,-8.216953,-3.735795,4.320839,-0.007483,0.025045,-0.003818,31.92,64.4198773899966
10172,-8.222337,-3.741179,4.329215,-0.006414,0.023671,-0.00336,31.88,64.3942731747277
10182,-8.231908,-3.739383,4.319045,-0.005803,0.021533,-0.003971,31.88,64.4664097044101
10192,-8.22772,-3.748955,4.322036,-0.004581,0.020311,-0.00336,31.92,64.4513535741673
10202,-8.239684,-3.741776,4.322036,-0.002749,0.018784,-0.00336,31.92,64.4708627231203
10212,-8.230712,-3.745365,4.312464,-0.001833,0.018021,-0.003665,31.89,64.5037900131167
10222,-8.2349,-3.748357,4.313063,-0.001222,0.016799,-0.004887,31.89,64.5131282288411
10232,-8.235497,-3.751348,4.321437,-0.001069,0.016035,-0.006109,31.93,64.4743239692317
10242,-8.230712,-3.748357,4.321437,-0.000916,0.014813,-0.00733,31.93,64.460544039158
10252,-8.2349,-3.744768,4.326822,-0.000764,0.013439,-0.008399,31.93,64.4385103489294
10262,-8.234302,-3.744768,4.319045,-0.001069,0.01237,-0.011301,31.93,64.477269086538
10272,-8.232506,-3.745365,4.319045,-0.00168,0.011912,-0.013439,31.93,64.4738512075078
10282,-8.231908,-3.75733,4.33041,-0.002291,0.010843,-0.015577,31.98,64.4261481285763
10292,-8.235497,-3.753741,4.323831,-0.002749,0.010843,-0.018021,31.98,64.4644261102789
10302,-8.239684,-3.746562,4.326224,-0.003512,0.010537,-0.020617,31.89,64.4541529185238
10312,-8.218747,-3.756134,4.314857,-0.005498,0.010537,-0.022449,31.89,64.4756239960038
10322,-8.228318,-3.756732,4.32742,-0.006872,0.01069,-0.023213,31.92,64.4328912814888
10332,-8.220542,-3.747759,4.324429,-0.008247,0.010079,-0.025809,31.92,64.4216659068707
10342,-8.22772,-3.753142,4.320839,-0.009468,0.009774,-0.026725,31.92,64.4618096086097
10352,-8.227122,-3.757928,4.319643,-0.010232,0.008858,-0.026878,31.92,64.4715352859493
10362,-8.219346,-3.761517,4.323233,-0.011912,0.008399,-0.028405,31.88,64.4392610932762
10372,-8.212766,-3.760919,4.316054,-0.012828,0.008247,-0.026573,31.88,64.4609381368542
10382,-8.216354,-3.761517,4.308876,-0.013134,0.007178,-0.026267,31.94,64.506668823259
10392,-8.225926,-3.765106,4.317849,-0.015119,0.006109,-0.026267,31.94,64.4854613836261
10402,-8.233703,-3.769294,4.311867,-0.015272,0.004276,-0.024129,31.89,64.5379912263097
10412,-8.221739,-3.762115,4.314259,-0.015577,0.002443,-0.022449,31.89,64.491545617806
10422,-8.220542,-3.753142,4.301099,-0.016035,0,-0.021533,31.93,64.5476613034997
10432,-8.219346,-3.756732,4.298706,-0.016493,-0.001833,-0.015272,31.93,64.5610257628511
10442,-8.225926,-3.753741,4.302295,-0.01573,-0.006414,-0.012675,31.95,64.5541379782943
10452,-8.224131,-3.768696,4.299902,-0.01573,-0.009316,-0.009774,31.88,64.5777718847545
10462,-8.217552,-3.762714,4.301697,-0.013897,-0.01237,-0.006567,31.88,64.5476725013217
10472,-8.222935,-3.766303,4.291527,-0.012217,-0.014508,-0.003818,31.87,64.6159429662834
10482,-8.218747,-3.763312,4.305286,-0.012065,-0.01741,-0.001069,31.87,64.5324120118685
10492,-8.210971,-3.759125,4.306482,-0.010232,-0.019853,0.002596,31.95,64.5045255517156
10502,-8.229516,-3.775276,4.303492,-0.00901,-0.021533,0.004276,31.95,64.5779790930246
10512,-8.220542,-3.762714,4.311268,-0.007025,-0.023976,0.005498,31.88,64.5049201866504
10522,-8.223534,-3.762714,4.310072,-0.005803,-0.025962,0.005498,31.88,64.5177918911821
10532,-8.231908,-3.755535,4.316652,-0.004123,-0.027642,0.007483,31.91,64.4952367025824
10542,-8.227122,-3.756134,4.31725,-0.002902,-0.028405,0.007178,31.91,64.4820447510343
10552,-8.213962,-3.768696,4.322634,-0.000916,-0.029169,0.006567,31.93,64.4376531554261
10562,-8.231908,-3.754937,4.328018,0.000153,-0.028405,0.007789,31.93,64.4360242847922
10572,-8.213365,-3.768696,4.335197,0.001222,-0.028253,0.006567,31.92,64.3715274286718
10582,-8.216953,-3.771089,4.346562,0.002291,-0.02642,0.005345,31.92,64.3235235993986
10592,-8.224131,-3.753142,4.343571,0.003054,-0.025198,0.002902,31.91,64.3365927928768
10602,-8.222337,-3.756732,4.349553,0.004581,-0.023518,0.00168,31.91,64.3054495287956
10612,-8.222337,-3.758526,4.356134,0.005956,-0.016035,-0.001527,31.91,64.2734373879031
10622,-8.203793,-3.762714,4.360321,0.006414,-0.012523,-0.00336,31.91,64.2143677844378
10632,-8.201998,-3.753142,4.357928,0.006567,-0.008399,-0.005498,31.91,64.2127125560592
10642,-8.2014,-3.751946,4.365705,0.005956,-0.004581,-0.007025,31.93,64.1700803720957
10652,-8.196015,-3.753741,4.367499,0.005956,-0.000611,-0.007789,31.93,64.1505034109481
10662,-8.19781,-3.755535,4.36391,0.00504,0.004276,-0.010079,31.88,64.1749096459136
10672,-8.195418,-3.761517,4.370491,0.004123,0.009316,-0.011454,31.88,64.1418340707786
10682,-8.196614,-3.751348,4.366303,0.003665,0.014355,-0.011454,31.9,64.1555342801996
10692,-8.197212,-3.736991,4.368098,0.001985,0.018173,-0.011912,31.9,64.1327651713197
10702,-8.19781,-3.747759,4.356732,0.001374,0.023671,-0.011301,31.92,64.2038192460981
10712,-8.200203,-3.746562,4.358526,0.000458,0.027489,-0.011606,31.92,64.1987577974062
10722,-8.190034,-3.753741,4.351348,-0.000153,0.03207,-0.009774,31.89,64.2201637591373
10732,-8.19123,-3.744768,4.355535,-0.001833,0.035583,-0.008705,31.89,64.1919778377127
10742,-8.205587,-3.748357,4.355535,-0.002138,0.038332,-0.007941,31.95,64.2282073344711
10752,-8.203195,-3.742374,4.335794,-0.003971,0.040317,-0.006261,31.95,64.3184105103999
10762,-8.203793,-3.741776,4.334,-0.005651,0.041997,-0.005192,31.95,64.3284043576574
10772,-8.224131,-3.752544,4.328018,-0.006872,0.043524,-0.003054,31.95,64.4161197580977
10782,-8.218747,-3.751946,4.325027,-0.009468,0.043371,-0.00168,31.96,64.4188392012558
10792,-8.23131,-3.743571,4.323831,-0.011454,0.043371,0.000153,31.92,64.4446519177746
10802,-8.23131,-3.729812,4.304688,-0.011912,0.042302,-0.000153,31.92,64.5294625092968
10812,-8.240881,-3.739982,4.315455,-0.012523,0.040012,0.001527,31.92,64.5056570225968
10822,-8.242078,-3.744169,4.312464,-0.014355,0.037874,0.001374,31.92,64.5280211600539
10832,-8.239087,-3.744169,4.305884,-0.014508,0.035277,0.001069,31.95,64.5552868963419
10842,-8.252247,-3.74058,4.302295,-0.015119,0.032376,0.000916,31.95,64.5995707392351
10852,-8.246264,-3.741776,4.292724,-0.016035,0.0281,0.000458,31.9,64.6368502328883
10862,-8.257631,-3.747759,4.293322,-0.016188,0.023976,-0.001833,31.9,64.665132531812
10872,-8.257033,-3.739982,4.293921,-0.016035,0.020617,-0.002138,31.89,64.6528587669252
10882,-8.245069,-3.739982,4.295715,-0.01573,0.015424,-0.004734,31.89,64.6169169432539
10894,-8.263614,-3.756732,4.295715,-0.014966,0.010537,-0.005956,31.94,64.6751513653344
10902,-8.258228,-3.747759,4.292126,-0.014355,0.005956,-0.007789,31.94,64.6726339341251
10912,-8.250452,-3.745365,4.287939,-0.013439,0.000458,-0.009621,31.95,64.6745326143907
10922,-8.243275,-3.744768,4.295715,-0.012217,-0.004276,-0.010996,31.95,64.6177617804348
10932,-8.255239,-3.747759,4.290929,-0.011606,-0.007636,-0.012828,31.93,64.6721632927858
10942,-8.25165,-3.739383,4.279563,-0.009927,-0.012217,-0.014508,31.93,64.7144520282413
10952,-8.232506,-3.748955,4.290331,-0.008858,-0.020464,-0.017715,31.96,64.6258045400432
10962,-8.2349,-3.758526,4.286742,-0.005803,-0.023671,-0.018631,31.91,64.6594276101605
10972,-8.23789,-3.75075,4.289733,-0.003818,-0.026573,-0.020159,31.91,64.6427292828638
10982,-8.229516,-3.741776,4.302894,-0.002291,-0.028558,-0.020464,31.89,64.5468804482141
10992,-8.210971,-3.745964,4.303492,-0.000764,-0.031001,-0.021075,31.89,64.5064972950454
11002,-8.219346,-3.749553,4.31067,0.000305,-0.032529,-0.020617,31.92,64.4918530654959
11012,-8.207382,-3.749553,4.302894,0.001374,-0.032529,-0.019242,31.92,64.5052139275336
11022,-8.196015,-3.745964,4.311268,0.002749,-0.032681,-0.018173,31.94,64.4326558228748
11032,-8.2014,-3.756134,4.322036,0.003665,-0.032681,-0.016341,31.94,64.3995805421168
11042,-8.210373,-3.744768,4.32742,0.004581,-0.032834,-0.015424,31.95,64.3802836720533
11052,-8.203793,-3.748357,4.334,0.004581,-0.031765,-0.01405,31.95,64.335183276786
11062,-8.206185,-3.749553,4.337589,0.004123,-0.030696,-0.012217,31.95,64.3232936630846
11072,-8.197212,-3.744768,4.342973,0.003665,-0.029016,-0.01069,31.95,64.2703144705395
11082,-8.203793,-3.744768,4.334598,0.003971,-0.02642,-0.009468,31.93,64.3283991291642
11092,-8.2014,-3.758526,4.35075,0.002902,-0.023976,-0.00733,31.93,64.2539105186828
11102,-8.200203,-3.746562,4.356732,0.001069,-0.02138,-0.006872,31.91,64.2079998927099
11112,-8.203195,-3.744768,4.360321,0.000153,-0.01741,-0.005192,31.91,64.1944341779896
11122,-8.204989,-3.756732,4.362116,-0.002443,-0.014355,-0.002902,31.89,64.2016353329949
11132,-8.205587,-3.744768,4.369295,-0.005192,-0.007025,-0.002596,31.92,64.1536626780384
11142,-8.216354,-3.756134,4.367499,-0.007941,-0.002902,-0.001374,31.92,64.1990258460804
11152,-8.212168,-3.75075,4.368696,-0.00901,0.001374,-0.002443,31.95,64.1778391411432
11162,-8.212766,-3.762115,4.368098,-0.011454,0.005192,-0.002596,31.95,64.1940232995102
11172,-8.219944,-3.754937,4.369893,-0.013286,0.009163,-0.002749,31.92,64.1935993070303
11182,-8.221141,-3.751946,4.360919,-0.015119,0.012828,-0.003818,31.92,64.2393502931613
11192,-8.221739,-3.756732,4.359723,-0.016493,0.016035,-0.005192,31.88,64.2517824563921
11202,-8.218747,-3.755535,4.360919,-0.017715,0.020006,-0.006414,31.88,64.2376457249425
11212,-8.214561,-3.753741,4.354938,-0.019395,0.022755,-0.007178,31.92,64.2571179473897
11222,-8.212766,-3.756732,4.347161,-0.020006,0.024893,-0.008399,31.92,64.2961970477162
11232,-8.22473,-3.762115,4.350152,-0.020769,0.027794,-0.009927,31.95,64.3132948738946
11242,-8.218149,-3.762115,4.346562,-0.020922,0.030085,-0.012523,31.95,64.3169589520433
11252,-8.216953,-3.753142,4.338188,-0.019853,0.032223,-0.013134,31.93,64.3481655181849
11262,-8.209177,-3.761517,4.338786,-0.018784,0.033139,-0.013744,31.93,64.3362016234896
11272,-8.210971,-3.760919,4.328616,-0.018631,0.034056,-0.014966,31.93,64.3920681698168
11282,-8.232506,-3.760919,4.322036,-0.017104,0.03375,-0.015577,31.93,64.4743156888102
11292,-8.225926,-3.766901,4.316054,-0.016952,0.033598,-0.016799,31.91,64.4965602400671
11302,-8.22473,-3.777669,4.304688,-0.011454,0.032223,-0.016799,31.91,64.5635792451197
11312,-8.216953,-3.76391,4.295117,-0.009621,0.030238,-0.016646,31.88,64.5815766663381
11322,-8.219944,-3.767499,4.301697,-0.008247,0.027947,-0.016799,31.93,64.5579208419073
11332,-8.210971,-3.769892,4.296911,-0.006109,0.025504,-0.015882,31.93,64.5650609179263
11342,-8.220542,-3.77049,4.287939,-0.003818,0.02306,-0.014966,31.93,64.6334420206932
11352,-8.227122,-3.767499,4.289135,-0.001222,0.020006,-0.013134,31.93,64.6388665701993
11362,-8.218149,-3.758526,4.289135,0.001527,0.017104,-0.011301,31.91,64.6096884454757
11372,-8.216953,-3.76391,4.295117,0.003207,0.013744,-0.009774,31.91,64.5815766663381
11382,-8.218149,-3.763312,4.294518,0.004581,0.010843,-0.008552,31.93,64.5867345512718
11392,-8.217552,-3.757928,4.288536,0.005803,0.00672,-0.006872,31.93,64.6108438969447
11402,-8.226524,-3.760321,4.295117,0.006414,0.003665,-0.004887,31.95,64.5992842327029
11412,-8.222935,-3.752544,4.299304,0.007636,0.000764,-0.002138,31.95,64.5616838711856
11422,-8.230712,-3.756134,4.291527,0.008552,-0.002138,-0.000153,31.93,64.6229204753986
11432,-8.222337,-3.753741,4.301697,0.008552,-0.00504,0.000458,31.93,64.5491992696838
11442,-8.230114,-3.753142,4.308277,0.008094,-0.007941,0.002291,31.93,64.5319987526452
11452,-8.235497,-3.757928,4.308876,0.008399,-0.01069,0.004276,31.93,64.5458249636935
11462,-8.235497,-3.74716,4.317849,0.00733,-0.011759,0.006872,31.91,64.4885547034615
11472,-8.221739,-3.74716,4.323831,0.005956,-0.014203,0.008399,31.91,64.4268275278617
11482,-8.22473,-3.742374,4.324429,0.004429,-0.015424,0.008705,31.92,64.4255657038327
11492,-8.229516,-3.738187,4.326822,0.002902,-0.01573,0.010079,31.94,64.4197006242617
11502,-8.23789,-3.738187,4.323831,0.000764,-0.015424,0.009316,31.94,64.4539303214057
11512,-8.233105,-3.744169,4.337589,-0.000764,-0.015272,0.008399,31.92,64.3783908621358
11522,-8.233105,-3.750151,4.337589,-0.002596,-0.015119,0.008858,31.92,64.3845102193928
11532,-8.228318,-3.736392,4.336991,-0.00504,-0.014203,0.007789,31.95,64.3627479828974
11542,-8.229516,-3.743571,4.35075,-0.006261,-0.013897,0.006414,31.95,64.3019460035912
11552,-8.228917,-3.745964,4.341777,-0.008399,-0.012217,0.004276,31.89,64.3492391798701
11562,-8.221739,-3.753741,4.336392,-0.01069,-0.010537,0.00336,31.89,64.3688063754235
11572,-8.228917,-3.75075,4.347759,-0.011759,-0.008705,0.001222,31.92,64.323351936197
11582,-8.225328,-3.741179,4.34417,-0.013286,-0.007483,-0.001833,31.92,64.3239282051925
11592,-8.224131,-3.741179,4.346562,-0.014203,-0.005345,-0.003818,31.89,64.3089108221689
11602,-8.221141,-3.731009,4.341179,-0.014966,-0.003207,-0.005345,31.89,64.3194742898101
11612,-8.221141,-3.738786,4.336991,-0.014966,-0.001222,-0.007178,31.9,64.3490311103217
11622,-8.219944,-3.739982,4.341179,-0.015272,-0.000153,-0.010385,31.9,64.3259724413816
11632,-8.215756,-3.739383,4.337589,-0.015577,0.001222,-0.01237,31.9,64.3344201636139
11642,-8.222337,-3.735795,4.335197,-0.015424,0.002596,-0.01573,31.9,64.3579117470769
11652,-8.218747,-3.741179,4.329813,-0.014508,0.004581,-0.016799,31.9,64.3831086326626
11662,-8.213365,-3.739982,4.32742,-0.013134,0.00504,-0.018631,31.93,64.3821101383551
11672,-8.219346,-3.736991,4.325625,-0.011912,0.006567,-0.019548,31.93,64.401778309226
11682,-8.222935,-3.742374,4.331009,-0.011454,0.006261,-0.019853,31.95,64.3875898578362
11692,-8.216953,-3.749553,4.328018,-0.009621,0.006109,-0.019548,31.95,64.3969199982519
11702,-8.208578,-3.741179,4.322634,-0.007789,0.006567,-0.019395,31.91,64.3972691825106
11712,-8.219346,-3.739383,4.319045,-0.006567,0.006109,-0.019242,31.91,64.4381944682707
11722,-8.218747,-3.744768,4.324429,-0.005498,0.005803,-0.017257,31.94,64.4145665885085
11732,-8.218149,-3.741179,4.321437,-0.004429,0.00504,-0.01741,31.94,64.4249902888067
11742,-8.222337,-3.752544,4.328018,-0.003054,0.005345,-0.016646,31.92,64.412090058476
11752,-8.216354,-3.748357,4.316652,-0.00168,0.004887,-0.015119,31.92,64.4530156299203
11762,-8.212168,-3.749553,4.317849,-0.000611,0.004581,-0.014203,31.91,64.4386556017016
11772,-8.218747,-3.746562,4.328616,-0.000305,0.004887,-0.012981,31.91,64.3948018521784
11782,-8.218747,-3.744768,4.328616,0.000153,0.004276,-0.012065,31.95,64.3929624683837
11792,-8.216953,-3.748955,4.325625,0.000611,0.00504,-0.009927,31.95,64.4086533250705
11802,-8.229516,-3.751946,4.334,0.000458,0.00504,-0.008858,31.92,64.396770763564
11812,-8.229516,-3.756732,4.334598,0.000611,0.005345,-0.008399,31.92,64.398593564085
11822,-8.228318,-3.757928,4.333402,-0.001222,0.00672,-0.006414,31.89,64.4032909852613
11832,-8.216953,-3.74716,4.341179,-0.003054,0.007636,-0.00672,31.92,64.3266006190359
11842,-8.226524,-3.749553,4.339982,-0.00336,0.008858,-0.00672,31.92,64.3567774165216
11852,-8.233105,-3.744169,4.338188,-0.00504,0.010537,-0.006567,31.93,64.3753059069233
11862,-8.218149,-3.759723,4.333402,-0.006261,0.011454,-0.006414,31.93,64.3822918372918
11872,-8.221739,-3.753142,4.329813,-0.007025,0.012065,-0.008247,31.92,64.4021038625081
11882,-8.220542,-3.763312,4.341179,-0.009316,0.013134,-0.008399,31.92,64.3512939907317
11892,-8.227122,-3.752544,4.343571,-0.010537,0.013897,-0.009927,31.9,64.3427097871882
11902,-8.221739,-3.75075,4.325625,-0.011759,0.014508,-0.01069,31.9,64.4212498660946
11912,-8.226524,-3.760919,4.319643,-0.013592,0.015577,-0.011301,31.91,64.4732577621941
11922,-8.217552,-3.765705,4.329813,-0.014355,0.016799,-0.01237,31.91,64.4056053729262
11932,-8.224131,-3.76391,4.326224,-0.015577,0.017257,-0.012981,31.93,64.4370250084509
11942,-8.216953,-3.762714,4.326224,-0.016646,0.016799,-0.014355,31.93,64.4196922778206
11952,-8.226524,-3.766901,4.32742,-0.017257,0.016646,-0.015424,31.89,64.4392939138077
11962,-8.232506,-3.766901,4.313063,-0.017257,0.016341,-0.016188,31.89,64.5267020826211
11972,-8.227122,-3.767499,4.301697,-0.017104,0.015882,-0.015882,31.88,64.5739526831369
11982,-8.22473,-3.769892,4.304688,-0.01741,0.014508,-0.016952,31.88,64.5556133868569
11992,-8.213365,-3.756134,4.293921,-0.016646,0.010537,-0.01573,31.91,64.5717840864151
12002,-8.232506,-3.761517,4.308876,-0.014813,0.008094,-0.016035,31.93,64.5428033025232
12012,-8.228917,-3.764508,4.302894,-0.01405,0.004734,-0.015424,31.93,64.5687220522691
12022,-8.233703,-3.767499,4.301099,-0.012523,0.002138,-0.014508,31.94,64.5917239873665
12032,-8.218149,-3.772285,4.296911,-0.010843,-0.001222,-0.013897,31.94,64.583549022063
12042,-8.228318,-3.756134,4.289135,-0.009468,-0.002902,-0.010843,31.9,64.6299479085534
12052,-8.229516,-3.751946,4.298706,-0.007178,-0.006261,-0.009621,31.9,64.5788788738777
12062,-8.219944,-3.759723,4.3005,-0.005345,-0.010079,-0.008705,31.91,64.5561477724389
12072,-8.224131,-3.760321,4.299304,-0.003512,-0.013439,-0.006109,31.91,64.5722998950984
12082,-8.223534,-3.756732,4.302295,-0.001833,-0.015577,-0.004123,31.96,64.5518423935372
12092,-8.213365,-3.760919,4.298108,0,-0.018479,-0.001527,31.96,64.5550233018968
12102,-8.21157,-3.77049,4.302894,0.001374,-0.020464,-0.000153,31.95,64.5360804464949
12112,-8.225926,-3.765106,4.307081,0.003665,-0.022602,0.000916,31.95,64.5410315977892
12122,-8.218149,-3.759723,4.31067,0.004276,-0.023213,0.003971,31.93,64.4995838204496
12132,-8.225328,-3.752544,4.31725,0.006109,-0.024129,0.00504,31.93,64.4743518034575
12142,-8.218149,-3.765106,4.328616,0.007025,-0.025351,0.006261,31.9,64.4125009535278
12152,-8.222337,-3.748357,4.339982,0.007483,-0.02474,0.008094,31.9,64.3461267839411
12162,-8.218747,-3.750151,4.335197,0.008094,-0.023518,0.010537,31.89,64.3645474205965
12172,-8.212766,-3.744768,4.339384,0.008858,-0.020464,0.010232,31.94,64.3239538351896
12182,-8.213365,-3.751946,4.360919,0.007789,-0.017715,0.009927,31.94,64.221784730026
12192,-8.208578,-3.747759,4.350152,0.00672,-0.014508,0.009316,31.91,64.2620814311414
12202,-8.204989,-3.753741,4.358526,0.006567,-0.010843,0.00901,31.91,64.2170191599234
12212,-8.212766,-3.750151,4.368696,0.005651,-0.00672,0.008247,31.93,64.1785735002583
12222,-8.199007,-3.753142,4.366901,0.004276,-0.002749,0.005956,31.93,64.1597423290281
12232,-8.209177,-3.747759,4.361517,0.002596,0.002291,0.005651,31.91,64.2049118485564
12242,-8.201998,-3.74058,4.362116,0.001374,0.006109,0.002138,31.91,64.1781467592234
12252,-8.203793,-3.738786,4.371687,-0.000764,0.011301,0.000458,31.89,64.1310954366816
12262,-8.215756,-3.746562,4.372883,-0.002138,0.016493,-0.000916,31.89,64.1601097590908
12272,-8.213365,-3.742374,4.368098,-0.004429,0.020769,-0.003207,31.95,64.1749730474234
12282,-8.215756,-3.741179,4.369893,-0.006414,0.02474,-0.005192,31.95,64.1699250184934
12292,-8.227122,-3.747759,4.353741,-0.008552,0.029016,-0.007636,31.94,64.2854578475446
12302,-8.230712,-3.732804,4.353143,-0.009774,0.032834,-0.009621,31.94,64.2812987613318
12312,-8.219944,-3.725625,4.351946,-0.011301,0.036346,-0.01069,31.89,64.2557723527163
12322,-8.221141,-3.741179,4.344768,-0.012675,0.038485,-0.012981,31.89,64.3114078268957
12332,-8.220542,-3.738187,4.336991,-0.013897,0.040164,-0.015272,31.9,64.347067231017
12342,-8.233703,-3.744169,4.321437,-0.016341,0.040775,-0.017257,31.92,64.4629779077949
12352,-8.242676,-3.743571,4.322036,-0.016952,0.040775,-0.016952,31.92,64.4793952806883
12362,-8.245069,-3.742374,4.315455,-0.017562,0.03879,-0.018479,31.97,64.5174639132532
12372,-8.257631,-3.741776,4.301697,-0.017868,0.037415,-0.019395,31.97,64.6158747475619
12382,-8.237292,-3.748357,4.303492,-0.017715,0.034819,-0.019853,31.94,64.567881324601
12392,-8.232506,-3.737589,4.299304,-0.017868,0.031307,-0.018937,31.94,64.5678676777181
12402,-8.249256,-3.736991,4.293322,-0.016952,0.027184,-0.018173,31.95,64.635595679698
12412,-8.243872,-3.741776,4.286742,-0.016646,0.022755,-0.017562,31.95,64.662431733777
12422,-8.242078,-3.74716,4.274778,-0.014966,0.018173,-0.016188,31.94,64.7257630628585
12432,-8.248059,-3.742973,4.286742,-0.014203,0.013134,-0.014966,31.94,64.6729714510949
12442,-8.256434,-3.745365,4.28734,-0.01237,0.007483,-0.014508,31.93,64.690938286853
12452,-8.242676,-3.749553,4.278965,-0.010843,0.001374,-0.013897,31.93,64.707852476178
12462,-8.239684,-3.745365,4.281358,-0.009621,-0.003512,-0.012523,31.91,64.6845743502954
12472,-8.246863,-3.75733,4.28076,-0.008399,-0.008399,-0.011301,31.91,64.7157516858066
12482,-8.237292,-3.744169,4.288536,-0.006872,-0.012981,-0.009774,31.89,64.6409068429957
12492,-8.233703,-3.755535,4.289733,-0.00504,-0.01741,-0.008705,31.89,64.6382559668437
12502,-8.228917,-3.74716,4.293921,-0.003207,-0.021838,-0.007789,31.93,64.5974010941443
12512,-8.231908,-3.748357,4.294518,-0.001374,-0.029627,-0.007025,31.93,64.6022147425727
12522,-8.228917,-3.759723,4.305286,0,-0.031001,-0.005498,31.91,64.5514829838492
12532,-8.22473,-3.753142,4.313063,0.000916,-0.032987,-0.006414,31.94,64.4952346909042
12542,-8.213962,-3.756732,4.317849,0.001069,-0.034514,-0.00733,31.94,64.450053135052
12552,-8.219944,-3.750151,4.326224,0.001833,-0.034667,-0.005803,31.91,64.4135127730926
12562,-8.21157,-3.762115,4.332804,0.002138,-0.034361,-0.006567,31.91,64.3730456732862
12572,-8.210373,-3.752544,4.338786,0.002138,-0.032529,-0.007636,31.91,64.329645268234
12582,-8.206185,-3.755535,4.336392,0.001527,-0.030543,-0.007941,31.91,64.3356352588259
12592,-8.210373,-3.738187,4.35733,0.001069,-0.027642,-0.008858,31.94,64.2192975385582
12602,-8.203793,-3.744169,4.351348,0.000153,-0.025198,-0.009774,31.94,64.2413953436268
12612,-8.218747,-3.753142,4.353143,-0.000153,-0.021686,-0.01069,31.91,64.2751850318336
12622,-8.207382,-3.751946,4.353143,-0.000764,-0.018326,-0.011301,31.91,64.248293482117
12632,-8.197212,-3.752544,4.359723,-0.002596,-0.013439,-0.012065,31.94,64.1920139202827
12642,-8.20798,-3.754339,4.359125,-0.003818,-0.008858,-0.013286,31.94,64.2213171963946
12652,-8.199606,-3.755535,4.359125,-0.005192,-0.004429,-0.014355,31.94,64.2036143965044
12662,-8.197212,-3.748955,4.353143,-0.006261,-0.000153,-0.01405,31.94,64.2221993247546
12672,-8.193623,-3.753142,4.358526,-0.008094,0.003512,-0.014661,31.92,64.1906710526726
12682,-8.210373,-3.760919,4.353741,-0.009468,0.008094,-0.013439,31.92,64.2612394835414
12692,-8.215756,-3.753142,4.355535,-0.010996,0.015577,-0.012065,31.93,64.2561250227749
12702,-8.206783,-3.753741,4.345964,-0.012675,0.017868,-0.012217,31.92,64.2857815072552
12712,-8.210373,-3.759723,4.35075,-0.013439,0.020159,-0.012065,31.92,64.2754036252809
12722,-8.215158,-3.760321,4.347759,-0.013744,0.022755,-0.01069,31.94,64.3022100002817
12732,-8.218149,-3.756732,4.332804,-0.014355,0.024587,-0.009621,31.94,64.3822998056166
12742,-8.217552,-3.765705,4.339384,-0.014355,0.025504,-0.008705,31.94,64.3562812828629
12752,-8.225926,-3.750151,4.337589,-0.013744,0.027184,-0.00733,31.94,64.3683721698438
12762,-8.219346,-3.758526,4.32742,-0.014355,0.027031,-0.005498,31.91,64.4145939233954
12772,-8.221141,-3.746562,4.326822,-0.012981,0.027031,-0.004887,31.91,64.4094400203845
12782,-8.218149,-3.756732,4.329215,-0.012675,0.026725,-0.003054,31.93,64.4008055147063
12792,-8.220542,-3.76391,4.323831,-0.010996,0.025351,-0.001833,31.93,64.4413162881357
12802,-8.230712,-3.753142,4.313661,-0.010385,0.024587,-0.001069,31.96,64.5055467879901
12812,-8.221141,-3.753741,4.316054,-0.010232,0.02306,-0.000764,31.96,64.472361292024
12822,-8.233105,-3.756134,4.308277,-0.008247,0.021838,0.000305,31.95,64.541740411441
12832,-8.225328,-3.750151,4.319045,-0.00672,0.0197,0.000611,31.95,64.4626412882909
12842,-8.231908,-3.752544,4.308277,-0.005498,0.01741,0.001527,31.89,64.5354023044973
12852,-8.220542,-3.761517,4.311867,-0.003971,0.016799,0.001833,31.89,64.5006007820204
12862,-8.232506,-3.758526,4.307679,-0.001222,0.012675,0.000153,31.92,64.5459283156535
12872,-8.23131,-3.761517,4.310072,-0.000153,0.011148,-0.001222,31.93,64.5339582298189
12882,-8.233703,-3.754937,4.312464,0.000611,0.009621,-0.003054,31.93,64.520249312037
12895,-8.234302,-3.762714,4.311867,0.000764,0.007941,-0.003512,31.93,64.5326064856856
12902,-8.234302,-3.751348,4.31725,0.00168,0.007178,-0.004887,31.93,64.4932385399009
12912,-8.230114,-3.747759,4.316652,0.003054,0.005803,-0.005651,31.97,64.4832776508519
12922,-8.236095,-3.758526,4.311867,0.002138,0.004887,-0.006872,31.97,64.5323395038026
12932,-8.225328,-3.750151,4.332804,0.002596,0.004429,-0.007789,31.93,64.3916843097709
12942,-8.215158,-3.754937,4.319045,0.002138,0.003207,-0.008705,31.93,64.4447205737879
12952,-8.223534,-3.755535,4.316652,0.002138,0.002596,-0.010079,31.91,64.4764767833895
12962,-8.212766,-3.748955,4.314259,0.002291,0.002749,-0.010996,31.91,64.4579311597983
12972,-8.214561,-3.745964,4.315455,0.001527,0.002138,-0.011912,31.95,64.4527190696229
12982,-8.222935,-3.749553,4.313661,0.001222,0.001374,-0.012217,31.95,64.4844538458174
12992,-8.226524,-3.747759,4.320839,0.000305,0.001222,-0.012065,31.94,64.4536221491597
13002,-8.209177,-3.745365,4.318447,-0.000458,0.000764,-0.011454,31.94,64.4245437535833
13012,-8.219346,-3.751946,4.319045,-0.000458,-0.000611,-0.01069,31.91,64.4510553668631
13022,-8.22473,-3.748357,4.31067,-0.002596,-0.000764,-0.010996,31.91,64.502700891115
13032,-8.221141,-3.744768,4.314857,-0.004429,-0.002291,-0.009927,31.9,64.469360309425
13042,-8.221739,-3.739383,4.317849,-0.005345,-0.002443,-0.008247,31.96,64.4497484670682
13052,-8.218149,-3.74058,4.31067,-0.006261,-0.003818,-0.006261,31.96,64.4799917539852
13062,-8.221141,-3.745964,4.320839,-0.006872,-0.004581,-0.004429,31.91,64.4396999597005
13072,-8.213365,-3.744169,4.31725,-0.007789,-0.004734,-0.003512,31.91,64.4389191535029
13082,-8.227122,-3.751348,4.314857,-0.008247,-0.006567,-0.003207,31.98,64.4895005198042
13092,-8.221739,-3.742973,4.316652,-0.008858,-0.008399,-0.001527,31.98,64.4595985962493
13102,-8.22772,-3.745365,4.319045,-0.00901,-0.009774,-0.000764,31.92,64.4631161117851
13112,-8.215158,-3.74716,4.31725,-0.00901,-0.010537,0.000764,31.92,64.4460140733977
13122,-8.235497,-3.742374,4.318447,-0.009774,-0.011912,0.000611,31.93,64.4805928639749
13132,-8.228917,-3.745964,4.326224,-0.010079,-0.012523,0.000611,31.93,64.4293837412645
13142,-8.233105,-3.750151,4.334598,-0.009621,-0.013439,0.001069,31.95,64.3999141355838
13152,-8.231908,-3.742374,4.328616,-0.010079,-0.014508,0.000458,31.95,64.4201009897542
13162,-8.232506,-3.748955,4.333402,-0.010232,-0.014508,0,31.94,64.4035063309789
13172,-8.221141,-3.748955,4.332804,-0.009468,-0.01405,-0.00168,31.94,64.3810432799595
13182,-8.232506,-3.745365,4.336392,-0.00901,-0.015119,-0.002749,31.93,64.3844324876579
13192,-8.214561,-3.748955,4.343571,-0.00901,-0.014661,-0.003665,31.93,64.3107275151452
13202,-8.228917,-3.755535,4.344768,-0.008399,-0.012217,-0.007789,31.93,64.3436557960846
13212,-8.219944,-3.752544,4.345964,-0.007789,-0.011606,-0.00901,31.93,64.3142266450706
13222,-8.218747,-3.745964,4.345964,-0.007178,-0.010537,-0.010843,31.93,64.3047625653416
13232,-8.221141,-3.739982,4.347161,-0.00672,-0.008858,-0.01405,31.93,64.2978528473348
13242,-8.217552,-3.744768,4.339982,-0.006261,-0.00672,-0.015882,31.93,64.3316621002953
13252,-8.218149,-3.748955,4.335794,-0.005345,-0.004429,-0.016646,31.92,64.3588954035806
13262,-8.212766,-3.745964,4.342375,-0.00504,-0.001374,-0.017868,31.92,64.309764751981
13272,-8.216354,-3.753741,4.345366,-0.00336,0.001833,-0.018937,31.93,64.3104486008644
13282,-8.199007,-3.744169,4.345366,-0.003971,0.004276,-0.020617,31.93,64.2614107707034
13292,-8.19123,-3.744169,4.34058,-0.003512,0.007025,-0.021228,31.95,64.2685129709879
13302,-8.210971,-3.737589,4.341777,-0.003207,0.010843,-0.021533,31.95,64.3001815057405
13312,-8.204989,-3.754339,4.347759,-0.002443,0.013134,-0.022144,31.93,64.2730985515212
13322,-8.2014,-3.762714,4.341179,-0.002443,0.014813,-0.021838,31.93,64.3075773703694
13332,-8.200203,-3.751946,4.345964,-0.002749,0.018326,-0.020922,31.95,64.2690674964997
13342,-8.199606,-3.757928,4.346562,-0.002596,0.021228,-0.020311,31.95,64.2708238541952
13352,-8.196015,-3.748955,4.338786,-0.002902,0.023366,-0.019395,31.94,64.2935413122616
13362,-8.199007,-3.751946,4.325625,-0.003512,0.026114,-0.017715,31.94,64.3713349458659
13372,-8.21157,-3.748955,4.332206,-0.004123,0.027184,-0.015577,31.95,64.3625844469681
13382,-8.218149,-3.75733,4.34058,-0.004887,0.029474,-0.01405,31.92,64.3428399250434
13392,-8.21157,-3.750151,4.332804,-0.005192,0.030543,-0.011759,31.92,64.3607294791065
13402,-8.210373,-3.754937,4.320241,-0.00672,0.031001,-0.010843,31.91,64.4277972410586
13412,-8.214561,-3.760321,4.33041,-0.007178,0.031612,-0.008247,31.91,64.3902688930601
13422,-8.213962,-3.756732,4.318447,-0.008399,0.030238,-0.007178,31.89,64.4469654724515
13432,-8.222935,-3.757928,4.319045,-0.009927,0.029932,-0.005803,31.89,64.4652358307882
13442,-8.225926,-3.760321,4.315455,-0.009927,0.028558,-0.005345,31.93,64.4929120730047
13452,-8.228318,-3.763312,4.313661,-0.010385,0.0281,-0.00336,31.93,64.5105831374866
13462,-8.228318,-3.765705,4.307679,-0.011912,0.025351,-0.003665,31.95,64.5439026075726
13472,-8.235497,-3.762714,4.307081,-0.011912,0.023518,-0.002749,31.95,64.559968769794
13482,-8.240881,-3.75733,4.297509,-0.012217,0.020617,-0.001833,31.94,64.6159081811188
13492,-8.239087,-3.753741,4.311867,-0.012217,0.018021,-0.002138,31.94,64.5341505184011
13502,-8.25165,-3.760919,4.30409,-0.012981,0.015577,-0.001374,31.95,64.6095904772515
13512,-8.236693,-3.751946,4.293322,-0.012065,0.01237,-0.002443,31.95,64.6227255631049
13522,-8.243275,-3.758526,4.296911,-0.011606,0.009621,-0.003054,31.93,64.6255465134618
13532,-8.260024,-3.760321,4.295715,-0.011454,0.005651,-0.004581,31.93,64.6708028567797
13542,-8.236693,-3.766901,4.297509,-0.010996,0.002291,-0.004887,31.95,64.6163148046258
13552,-8.232506,-3.766303,4.297509,-0.008858,-0.004581,-0.005651,31.95,64.6063731233449
13562,-8.234302,-3.763312,4.294518,-0.007025,-0.007483,-0.007025,31.96,64.6227781464897
13572,-8.230712,-3.76391,4.299304,-0.005803,-0.01069,-0.008247,31.92,64.590659071867
13582,-8.230712,-3.759723,4.296911,-0.004429,-0.01405,-0.008399,31.92,64.5987508387291
13592,-8.237292,-3.752544,4.298706,-0.003207,-0.017868,-0.009621,31.92,64.5968548894923
13602,-8.228917,-3.755535,4.30409,-0.001527,-0.020006,-0.009927,31.92,64.553384481487
13612,-8.236095,-3.758526,4.303492,-0.000611,-0.022297,-0.009163,31.93,64.5755583476857
13622,-8.216354,-3.751348,4.306482,0.001222,-0.023518,-0.009468,31.93,64.5086217042868
13632,-8.221739,-3.749553,4.311268,0.001985,-0.025351,-0.01069,31.93,64.4941300102698
13642,-8.218149,-3.751348,4.311268,0.003054,-0.026878,-0.009774,31.93,64.4879163923502
13652,-8.210971,-3.763312,4.31725,0.004581,-0.027642,-0.009774,31.9,64.4531946121197
13662,-8.213365,-3.746562,4.326224,0.005498,-0.028405,-0.009468,31.9,64.3950354273447
13672,-8.216953,-3.748955,4.320241,0.00672,-0.027642,-0.007941,31.87,64.4364421372534
13682,-8.214561,-3.742973,4.323831,0.006567,-0.027642,-0.00733,31.87,64.4063975046102
13692,-8.219944,-3.741776,4.345964,0.007025,-0.026878,-0.005651,31.94,64.3031596803337
13702,-8.216354,-3.751348,4.339982,0.00733,-0.025656,-0.004581,31.94,64.3357257185023
13712,-8.206783,-3.745964,4.347759,0.007483,-0.024435,-0.004276,31.94,64.2685053363368
13722,-8.20798,-3.736392,4.353741,0.007178,-0.019548,-0.002291,31.94,64.2305175029018
13732,-8.205587,-3.738786,4.350152,0.004887,-0.017257,-0.001985,31.94,64.246064620581
13742,-8.209774,-3.737589,4.354938,0.004581,-0.013592,-0.000611,31.95,64.2296452306484
13752,-8.19781,-3.738187,4.359723,0.003207,-0.009621,0.000458,31.95,64.1785007028459
13762,-8.20798,-3.739383,4.365107,0.001985,-0.005651,0.000305,31.93,64.1750723017465
13772,-8.210971,-3.733402,4.352544,0.000764,-0.001527,0.001833,31.93,64.2403761586903
13782,-8.213365,-3.744169,4.366901,-0.000764,0.002138,0.002138,31.91,64.1829824970681
13792,-8.206783,-3.747759,4.365705,-0.001985,0.006414,0.002596,31.91,64.1779392352874
13802,-8.203195,-3.739383,4.363312,-0.003665,0.010385,0.002291,31.96,64.1734645169971
13812,-8.206783,-3.736991,4.368098,-0.005651,0.01405,0.00168,31.96,64.1544938464158
13822,-8.212168,-3.745365,4.360321,-0.00733,0.018479,0.000764,31.92,64.2153631069603
13832,-8.210373,-3.739982,4.365705,-0.008094,0.021686,0.000611,31.92,64.1780365807711
13842,-8.212168,-3.732804,4.363312,-0.009621,0.025504,-0.000305,31.94,64.1870180102208
13852,-8.205587,-3.757928,4.356732,-0.010843,0.028711,-0.001985,31.94,64.2319403835103
13862,-8.218149,-3.748357,4.347759,-0.011759,0.031918,-0.00336,31.93,64.2966294779382
13872,-8.215158,-3.749553,4.343571,-0.012981,0.03375,-0.005345,31.93,64.3126890630652
13882,-8.230712,-3.743571,4.342973,-0.013592,0.036652,-0.007178,31.9,64.3446701781747
13892,-8.216953,-3.747759,4.336991,-0.01405,0.038637,-0.01069,31.9,64.3488027745434
13902,-8.224131,-3.748357,4.325027,-0.014508,0.041081,-0.012828,31.92,64.4272564676807
13912,-8.238488,-3.744169,4.319045,-0.014508,0.039706,-0.014508,31.91,64.4860406093892
13922,-8.233105,-3.74716,4.316652,-0.013286,0.038637,-0.01573,31.91,64.489369896046
