t_ms,ax,ay,az,gx,gy,gz,temp,ang_deg
12,-8.07817,-3.851248,4.552345,0.080787,-0.052534,0.091172,32.32,63.0382444640572
22,-8.114061,-3.714259,4.564309,0.08995,-0.039554,0.077122,32.33,62.9112755996972
32,-8.119445,-3.628117,4.558925,0.092699,-0.013134,0.075289,32.33,62.8588850560476
42,-8.145168,-3.661617,4.58405,0.095142,0.013439,0.07025,32.32,62.8280630524345
52,-8.167302,-3.672385,4.579265,0.096669,0.041539,0.064294,32.32,62.916316079157
62,-8.179267,-3.61077,4.601398,0.096364,0.067959,0.057269,32.37,62.7673310998384
72,-8.201998,-3.649653,4.586443,0.093921,0.0956,0.047037,32.37,62.9379310189546
82,-8.210373,-3.652644,4.590032,0.091019,0.12034,0.035277,32.35,62.9426911981166
92,-8.225926,-3.616153,4.573282,0.086743,0.144622,0.021533,32.35,63.0260758288246
102,-8.226524,-3.625126,4.564309,0.081703,0.166308,0.008399,32.33,63.0822493423097
112,-8.251051,-3.639483,4.538587,0.07758,0.184939,-0.00504,32.33,63.2849533720853
122,-8.261221,-3.620341,4.50748,0.072082,0.202655,-0.017104,32.36,63.4469452148048
132,-8.260622,-3.646064,4.448855,0.067653,0.216704,-0.027947,32.36,63.7703988522227
142,-8.263015,-3.642474,4.408776,0.064141,0.23442,-0.046731,32.29,63.977251430998
152,-8.257631,-3.655036,4.376472,0.057879,0.237321,-0.05284,32.38,64.1433733830829
162,-8.26481,-3.662813,4.343571,0.0562,0.237627,-0.056658,32.38,64.3367129160116
172,-8.257033,-3.663411,4.308277,0.053298,0.23442,-0.058948,32.33,64.5018128925031
182,-8.243872,-3.680759,4.275974,0.050855,0.228769,-0.059559,32.33,64.6567706743598
192,-8.260024,-3.683152,4.247859,0.049327,0.220522,-0.059407,32.35,64.8410707533098
202,-8.249256,-3.683152,4.212564,0.047342,0.209374,-0.056352,32.35,65.0006692950797
212,-8.263614,-3.684947,4.192824,0.045204,0.195477,-0.053756,32.32,65.1370733045554
222,-8.268997,-3.702893,4.184449,0.042608,0.180053,-0.050091,32.32,65.2102356621763
232,-8.266603,-3.709473,4.173681,0.040012,0.16249,-0.047342,32.31,65.2676034352715
242,-8.266006,-3.720839,4.145566,0.036499,0.14111,-0.044746,32.31,65.4242825912956
252,-8.291729,-3.720839,4.143771,0.034819,0.118966,-0.041997,32.38,65.4896196912027
262,-8.297112,-3.725027,4.143172,0.032376,0.0956,-0.040012,32.38,65.5085030064673
272,-8.30489,-3.728616,4.14736,0.02978,0.071929,-0.039554,32.36,65.5070126401948
282,-8.294122,-3.733402,4.152145,0.027184,0.047953,-0.040775,32.36,65.4633895832208
292,-8.313264,-3.729812,4.159324,0.024282,0.025045,-0.041844,32.32,65.4640124029434
302,-8.312068,-3.749553,4.187439,0.021533,0.004581,-0.043524,32.32,65.3345885021533
312,-8.303694,-3.753741,4.202394,0.018173,-0.013439,-0.053298,32.35,65.2429146827907
322,-8.305488,-3.761517,4.219743,0.013134,-0.043677,-0.058032,32.36,65.1646269721464
332,-8.285748,-3.746562,4.247859,0.011759,-0.05452,-0.064752,32.36,64.9610615733211
342,-8.287541,-3.756732,4.25743,0.009621,-0.063683,-0.071013,32.35,64.9256724911235
352,-8.288139,-3.767499,4.267599,0.010537,-0.070555,-0.077427,32.35,64.8852494884248
362,-8.282157,-3.766901,4.287939,0.011759,-0.0759,-0.085368,32.34,64.7665753505673
372,-8.273185,-3.765106,4.30409,0.014203,-0.078343,-0.092852,32.34,64.6617037622946
382,-8.263015,-3.756134,4.316652,0.017715,-0.079107,-0.10064,32.3,64.5653350265959
392,-8.248059,-3.764508,4.332804,0.021228,-0.078802,-0.106596,32.3,64.4573353372978
402,-8.2349,-3.772285,4.348955,0.026267,-0.0759,-0.113316,32.38,64.3527647523116
412,-8.227122,-3.763312,4.371089,0.030543,-0.071319,-0.117744,32.38,64.2123089211199
422,-8.233703,-3.768098,4.378268,0.035125,-0.064904,-0.121868,32.36,64.1952512220583
432,-8.2014,-3.772883,4.393821,0.038026,-0.057421,-0.124922,32.36,64.047367553738
442,-8.20798,-3.759125,4.402793,0.039248,-0.047342,-0.126907,32.34,64.0019504796516
452,-8.194819,-3.76391,4.418347,0.040164,-0.035583,-0.127824,32.34,63.8972566377723
462,-8.182258,-3.766901,4.430311,0.040623,-0.023366,-0.127518,32.36,63.810412509326
472,-8.17149,-3.769892,4.432704,0.039706,-0.011454,-0.125533,32.36,63.7766524223259
482,-8.159525,-3.759125,4.42074,0.037874,0.001222,-0.12202,32.36,63.7991953799024
492,-8.154739,-3.774678,4.412963,0.034208,0.024129,-0.110108,32.37,63.8446289054769
502,-8.151749,-3.763312,4.395615,0.032987,0.034819,-0.101556,32.37,63.9149704621846
512,-8.146365,-3.775874,4.391428,0.032223,0.04383,-0.092699,32.35,63.9375035591827
522,-8.137392,-3.775276,4.371687,0.030238,0.051924,-0.082009,32.35,64.0181538711933
532,-8.128419,-3.790829,4.359125,0.030238,0.057421,-0.07086,32.36,64.0790677212934
542,-8.120642,-3.782454,4.348357,0.030543,0.061697,-0.058796,32.36,64.1081637242117
552,-8.130812,-3.783651,4.335197,0.031307,0.065057,-0.046731,32.37,64.2006892412866
562,-8.129615,-3.792026,4.313661,0.032834,0.067806,-0.033598,32.37,64.3184404853073
572,-8.135597,-3.785445,4.307081,0.034819,0.068722,-0.021838,32.33,64.3591705250984
582,-8.142178,-3.796213,4.297509,0.036346,0.06918,-0.008858,32.33,64.4349898634139
592,-8.145766,-3.783053,4.283153,0.038943,0.068875,0.001985,32.33,64.503847941608
602,-8.156534,-3.789633,4.281956,0.041539,0.066584,0.011301,32.33,64.5411050144097
612,-8.177471,-3.798606,4.271787,0.04383,0.064446,0.020464,32.35,64.6500349059847
622,-8.182258,-3.799803,4.27059,0.04612,0.060476,0.026878,32.35,64.6681539463108
632,-8.19781,-3.786044,4.259823,0.047953,0.056505,0.032223,32.35,64.7444538384365
642,-8.218747,-3.803392,4.255635,0.050244,0.051465,0.035125,32.35,64.8303556756975
652,-8.256434,-3.795615,4.255635,0.051771,0.045204,0.034667,32.32,64.9055530823867
662,-8.2678,-3.808177,4.254438,0.058338,0.030849,0.032529,32.32,64.9494048974662
672,-8.274979,-3.803392,4.252046,0.060934,0.022602,0.028405,32.31,64.9726720287674
682,-8.286345,-3.795017,4.261019,0.063988,0.013744,0.022755,32.35,64.9428444056572
692,-8.285748,-3.8004,4.260421,0.067348,0.003665,0.017715,32.35,64.9500290313856
702,-8.286345,-3.809972,4.265805,0.071013,-0.005651,0.011301,32.31,64.933204957689
712,-8.297112,-3.793222,4.275376,0.074067,-0.014508,0.003818,32.31,64.8906647388871
722,-8.292327,-3.798008,4.292724,0.077122,-0.02306,-0.003971,32.35,64.7956878150601
732,-8.28455,-3.795615,4.296911,0.080023,-0.030696,-0.009621,32.35,64.7546067174265
742,-8.274381,-3.787838,4.305286,0.082772,-0.035583,-0.014813,32.33,64.6811921378986
752,-8.253444,-3.795615,4.319643,0.085216,-0.039095,-0.019548,32.33,64.5688174118863
762,-8.245069,-3.789035,4.341179,0.086285,-0.041386,-0.023671,32.34,64.4327000833817
772,-8.228917,-3.772883,4.353741,0.086437,-0.040928,-0.02474,32.34,64.3153430505755
782,-8.226524,-3.774678,4.382454,0.087201,-0.037874,-0.025351,32.32,64.1643917745026
792,-8.218149,-3.778267,4.386642,0.086743,-0.03375,-0.025656,32.32,64.1277250372488
802,-8.203195,-3.77049,4.395615,0.085216,-0.026725,-0.023976,32.32,64.0397392829505
812,-8.194221,-3.754937,4.407579,0.082161,-0.01909,-0.022449,32.32,63.9417086776015
822,-8.189436,-3.758526,4.412963,0.079565,-0.009316,-0.0197,32.36,63.9069306164199
832,-8.159525,-3.75075,4.421937,0.077274,0.012065,-0.012981,32.36,63.7841997754091
842,-8.168499,-3.749553,4.413561,0.07086,0.022144,-0.007941,32.33,63.8465479115887
852,-8.168499,-3.746562,4.402793,0.067348,0.031765,-0.003971,32.39,63.8987392025856
862,-8.166105,-3.737589,4.398008,0.065057,0.040012,0.000153,32.39,63.9084514755193
872,-8.180463,-3.738187,4.390232,0.062308,0.048258,0.004123,32.35,63.9819325578779
882,-8.186445,-3.722634,4.381258,0.059865,0.055741,0.005956,32.35,64.0255899528052
892,-8.193623,-3.713063,4.378866,0.05849,0.062003,0.007789,32.34,64.0443755826571
902,-8.19123,-3.721437,4.372883,0.057574,0.06689,0.008552,32.34,64.0783986710429
912,-8.193025,-3.71725,4.369893,0.057269,0.070708,0.008552,32.34,64.0935619204718
922,-8.210971,-3.708277,4.372883,0.055131,0.074067,0.005192,32.34,64.1097912814812
932,-8.221141,-3.70409,4.362116,0.054062,0.077427,0.000764,32.34,64.184051139503
942,-8.221141,-3.708277,4.34058,0.05284,0.078954,-0.003665,32.34,64.2993189293924
952,-8.22473,-3.692126,4.345366,0.051465,0.080329,-0.010232,32.34,64.2663007705583
962,-8.230712,-3.684349,4.335794,0.050244,0.080023,-0.016799,32.34,64.3213381745646
972,-8.240881,-3.678965,4.335794,0.048411,0.079107,-0.025504,32.34,64.3389102933843
982,-8.219346,-3.681358,4.320839,0.047953,0.078802,-0.032529,32.34,64.3698251781377
992,-8.242078,-3.672983,4.329215,0.045968,0.077427,-0.04047,32.31,64.3695285197492
1002,-8.233703,-3.66401,4.310072,0.045357,0.075289,-0.055131,32.31,64.4404815844913
1012,-8.228917,-3.672983,4.314259,0.041997,0.07254,-0.061239,32.33,64.4170414039153
1022,-8.216953,-3.661019,4.313063,0.04047,0.070555,-0.066432,32.3,64.3840535102496
1032,-8.218747,-3.656233,4.302295,0.039095,0.069791,-0.07025,32.3,64.4390818608987
1042,-8.220542,-3.658028,4.308277,0.036805,0.068417,-0.073304,32.34,64.4139598363665
1052,-8.209774,-3.646662,4.306482,0.035888,0.067348,-0.074678,32.34,64.3873631573349
1062,-8.219944,-3.65384,4.306482,0.03375,0.067653,-0.075442,32.35,64.417682740089
1072,-8.205587,-3.663411,4.308277,0.033292,0.067348,-0.07422,32.35,64.385485133439
1082,-8.206185,-3.662215,4.311268,0.032376,0.06689,-0.073304,32.34,64.3701265079522
1092,-8.21157,-3.656831,4.314259,0.030849,0.065973,-0.071777,32.34,64.3614064379204
1102,-8.226524,-3.666403,4.322036,0.029474,0.06521,-0.069944,32.29,64.3647596998051
1112,-8.225926,-3.664608,4.323233,0.027642,0.064904,-0.068417,32.29,64.3554014232564
1122,-8.24148,-3.668197,4.331009,0.025962,0.063683,-0.067195,32.33,64.3540918075109
1132,-8.25464,-3.67059,4.328018,0.024282,0.063377,-0.067501,32.33,64.4016877543928
1142,-8.276773,-3.676572,4.345366,0.02138,0.06185,-0.069028,32.31,64.3682806839778
1152,-8.276175,-3.691527,4.348357,0.018479,0.061392,-0.069486,32.31,64.3665579867042
1162,-8.272586,-3.686741,4.335794,0.015577,0.060628,-0.071166,32.33,64.418285191647
1172,-8.300702,-3.722036,4.341179,0.011454,0.059559,-0.073457,32.33,64.4890314026907
1182,-8.300103,-3.727419,4.338188,0.003818,0.057421,-0.077122,32.32,64.5084323874703
1192,-8.289336,-3.728018,4.325625,0.001222,0.055894,-0.079565,32.34,64.5495233183397
1202,-8.292925,-3.745365,4.317849,-0.000764,0.052687,-0.081092,32.34,64.6148884283917
1212,-8.289934,-3.764508,4.299902,-0.001374,0.048869,-0.082314,32.36,64.7197708994218
1222,-8.282756,-3.762115,4.290929,-0.001069,0.04444,-0.082161,32.36,64.7476836128854
1232,-8.292327,-3.783651,4.278367,0.001069,0.038332,-0.082161,32.34,64.8551418756496
1242,-8.279764,-3.787838,4.258626,0.003512,0.031154,-0.081245,32.34,64.9335419596791
1252,-8.265409,-3.801597,4.25085,0.007636,0.022602,-0.078343,32.36,64.9560574271194
1262,-8.2678,-3.830311,4.232903,0.012828,0.013134,-0.075595,32.36,65.0830732492875
1272,-8.247462,-3.818945,4.217948,0.018937,0.003207,-0.071777,32.34,65.104662410318
1282,-8.259426,-3.838686,4.212564,0.025656,-0.009468,-0.069333,32.34,65.1786000078821
1292,-8.25165,-3.856632,4.209573,0.032834,-0.021228,-0.066279,32.36,65.1953788696215
1302,-8.240283,-3.85065,4.205984,0.040623,-0.032376,-0.062003,32.36,65.1832297072743
1312,-8.240283,-3.863212,4.2006,0.048106,-0.044746,-0.057727,32.31,65.2239394509826
1322,-8.221739,-3.862016,4.217948,0.055131,-0.055741,-0.053145,32.31,65.0923627106096
1332,-8.225328,-3.859025,4.212564,0.061545,-0.065515,-0.048717,32.36,65.1250660189816
1342,-8.202596,-3.870391,4.231109,0.067501,-0.076053,-0.045662,32.36,64.9908680575459
1352,-8.175079,-3.87398,4.237689,0.073304,-0.091477,-0.036652,32.32,64.9000704684884
1362,-8.189436,-3.868596,4.241877,0.083689,-0.097738,-0.033139,32.32,64.9042859641291
1372,-8.180463,-3.868596,4.25085,0.086896,-0.102167,-0.029016,32.32,64.8379988663684
1382,-8.158329,-3.865605,4.282554,0.089492,-0.105985,-0.024129,32.38,64.6215596218414
1392,-8.150552,-3.875774,4.28734,0.091477,-0.107054,-0.020922,32.38,64.5902136935554
1402,-8.154739,-3.859025,4.306482,0.092241,-0.10736,-0.01741,32.35,64.4827662568892
1412,-8.146963,-3.853043,4.326822,0.091935,-0.10568,-0.014813,32.35,64.3538925593248
1422,-8.136195,-3.850052,4.348357,0.090561,-0.102473,-0.012675,32.33,64.215302224891
1432,-8.129017,-3.835097,4.374678,0.087812,-0.098349,-0.010843,32.33,64.0473492625878
1442,-8.145766,-3.82732,4.38724,0.085063,-0.091477,-0.009468,32.32,64.0123659901116
1452,-8.145168,-3.81715,4.404588,0.081703,-0.082772,-0.007636,32.32,63.9109734227122
1462,-8.139785,-3.807579,4.43749,0.076053,-0.071319,-0.006872,32.29,63.7195817833932
1472,-8.142776,-3.80399,4.454837,0.069944,-0.059254,-0.006872,32.29,63.6337480773848
1482,-8.133204,-3.792624,4.469792,0.06353,-0.044593,-0.00672,32.33,63.522956340028
1492,-8.140383,-3.786642,4.490132,0.057116,-0.028711,-0.008399,32.33,63.4291710413621
1502,-8.146365,-3.77408,4.492525,0.049633,-0.011148,-0.010232,32.34,63.417304659391
1512,-8.138588,-3.765705,4.511069,0.043066,0.008094,-0.010843,32.34,63.295636525486
1522,-8.148159,-3.742973,4.515256,0.036346,0.028405,-0.01405,32.38,63.2721722928255
1532,-8.13799,-3.736392,4.499703,0.025962,0.069333,-0.016493,32.34,63.3207667568819
1542,-8.149356,-3.726821,4.503891,0.021228,0.089034,-0.019395,32.34,63.3156659917469
1552,-8.153543,-3.720839,4.491926,0.017562,0.108887,-0.02138,32.36,63.3801606368038
1562,-8.155936,-3.715455,4.487141,0.016341,0.127976,-0.022449,32.36,63.4044704693481
1572,-8.164311,-3.707081,4.476373,0.016035,0.145691,-0.025045,32.34,63.4701576537549
1582,-8.164909,-3.705286,4.451847,0.016035,0.162796,-0.025962,32.34,63.5952455992641
1592,-8.160124,-3.705884,4.438686,0.018173,0.177609,-0.026725,32.33,63.6523072755102
1602,-8.163713,-3.70409,4.417151,0.021838,0.191201,-0.027184,32.33,63.769372345878
1612,-8.173882,-3.688536,4.399803,0.026573,0.203113,-0.02642,32.35,63.865865295654
1622,-8.176873,-3.684947,4.381856,0.032223,0.213803,-0.025504,32.35,63.9615110094387
1632,-8.17807,-3.681358,4.366303,0.038026,0.221439,-0.023366,32.3,64.0408155853771
1642,-8.175676,-3.680759,4.34058,0.043982,0.227242,-0.020311,32.3,64.1677253699565
1652,-8.186445,-3.692126,4.31067,0.049938,0.230754,-0.016646,32.32,64.3588796191147
1662,-8.197212,-3.676572,4.290331,0.055741,0.23274,-0.012675,32.32,64.4729695928441
1672,-8.207382,-3.680161,4.287939,0.060934,0.232892,-0.008247,32.34,64.5120137173847
1682,-8.225328,-3.687938,4.225127,0.066584,0.229991,-0.00336,32.34,64.8867701578136
1692,-8.24148,-3.690929,4.218546,0.071471,0.226173,0.001527,32.34,64.9599704019899
1702,-8.25165,-3.694518,4.197609,0.077122,0.209679,0.011759,32.34,65.0951559120215
1712,-8.274381,-3.692126,4.18086,0.080329,0.197462,0.016188,32.35,65.2301990035819
1722,-8.297112,-3.694518,4.168297,0.082009,0.182801,0.0197,32.3,65.3478135268777
1732,-8.303095,-3.702893,4.156931,0.082772,0.166308,0.022144,32.3,65.4282347400896
1742,-8.316256,-3.705286,4.137789,0.082009,0.14676,0.024129,32.35,65.5589328540482
1752,-8.357532,-3.704688,4.127021,0.08094,0.12538,0.025198,32.35,65.7035063004344
1762,-8.355139,-3.702295,4.118646,0.079107,0.10064,0.023824,32.3,65.7397114095642
1772,-8.378469,-3.71725,4.112065,0.076816,0.075595,0.02138,32.3,65.8381129708673
1782,-8.392226,-3.711268,4.110869,0.072998,0.047647,0.017104,32.41,65.8680178866761
1792,-8.415558,-3.719045,4.104887,0.06918,0.018937,0.011148,32.41,65.9559920563221
1822,-8.440681,-3.726223,4.141976,0.054214,-0.067042,-0.015272,32.33,65.8238462798885
1832,-8.437692,-3.744768,4.163511,0.048258,-0.09499,-0.027489,32.33,65.7237513902549
1842,-8.437093,-3.732205,4.170092,0.041386,-0.120035,-0.040164,32.3,65.6766862065816
1852,-8.425727,-3.75075,4.192225,0.035125,-0.144011,-0.052534,32.3,65.5559448449515
1862,-8.404789,-3.748357,4.228716,0.029016,-0.164475,-0.065057,32.36,65.3209562160277
1872,-8.371889,-3.751348,4.250251,0.02306,-0.196699,-0.089644,32.36,65.1418876810837
1882,-8.324032,-3.763312,4.285545,0.012675,-0.207083,-0.10064,32.31,64.8676009894333
1892,-8.307282,-3.748357,4.289733,0.008094,-0.214719,-0.110261,32.32,64.7942853034617
1902,-8.282157,-3.765106,4.307679,0.005345,-0.218384,-0.118355,32.32,64.663134624745
1912,-8.238488,-3.776472,4.331607,0.003665,-0.218384,-0.124464,32.34,64.4543286555934
1922,-8.216354,-3.77408,4.35075,0.003054,-0.215177,-0.127518,32.34,64.3037118019489
1932,-8.182258,-3.772883,4.369893,0.002902,-0.209069,-0.129198,32.32,64.1269326815881
1942,-8.150552,-3.777669,4.395615,0.004581,-0.199906,-0.129809,32.32,63.9274172368015
1952,-8.132606,-3.775276,4.408776,0.00733,-0.187841,-0.127671,32.36,63.8160569115637
1962,-8.103294,-3.775874,4.407579,0.010996,-0.172264,-0.124006,32.36,63.7554561916015
1972,-8.083553,-3.775276,4.435695,0.015119,-0.155771,-0.11973,32.36,63.564304576673
1982,-8.068598,-3.773481,4.454837,0.019853,-0.136223,-0.113468,32.36,63.4290487956797
1992,-8.049455,-3.775276,4.459623,0.024587,-0.114995,-0.106138,32.33,63.3616848931049
2002,-8.032107,-3.777071,4.465007,0.028711,-0.093157,-0.098655,32.33,63.295305906998
2012,-8.033902,-3.783053,4.471587,0.034056,-0.070555,-0.087965,32.34,63.2722336864317
2022,-8.028519,-3.777669,4.477569,0.03879,-0.046731,-0.078038,32.34,63.2228592212329
2032,-8.02792,-3.771687,4.470989,0.043066,-0.02306,-0.06857,32.33,63.2487211239782
2042,-8.024331,-3.76391,4.473382,0.047495,0.001069,-0.048258,32.33,63.2193650276302
2052,-8.049455,-3.775874,4.467998,0.056047,0.045968,-0.038179,32.34,63.3192356349568
2062,-8.041081,-3.769892,4.466204,0.059101,0.066432,-0.0281,32.32,63.3022798090498
2072,-8.062017,-3.760321,4.459623,0.062003,0.086437,-0.018021,32.32,63.3747034044928
2082,-8.075178,-3.762115,4.442873,0.064599,0.105069,-0.009621,32.32,63.4936082405088
2092,-8.088937,-3.757928,4.436294,0.066279,0.120493,-0.003665,32.32,63.5549600319941
2102,-8.126624,-3.754339,4.431507,0.066432,0.133627,0.002291,32.32,63.663043318499
2112,-8.139785,-3.75733,4.417749,0.066432,0.145844,0.007178,32.32,63.76730561878
2122,-8.166704,-3.749553,4.41057,0.064446,0.155007,0.010385,32.31,63.8577990422569
2132,-8.18764,-3.748357,4.402793,0.063072,0.162796,0.011454,32.31,63.9443807628946
2142,-8.206185,-3.746562,4.409972,0.059559,0.168752,0.010232,32.34,63.9479816146065
2152,-8.209177,-3.754339,4.394419,0.055894,0.173791,0.009468,32.34,64.0426445842622
2162,-8.236095,-3.751348,4.376472,0.051465,0.176693,0.007483,32.34,64.1926058135421
2172,-8.242078,-3.756134,4.375875,0.046273,0.178984,0.003818,32.34,64.2140880545115
2182,-8.254042,-3.742374,4.371089,0.040623,0.180053,-0.00168,32.34,64.2515021311299
2192,-8.261818,-3.75075,4.359125,0.034972,0.180205,-0.007636,32.34,64.3389056381152
2202,-8.270791,-3.753142,4.345366,0.029169,0.180053,-0.012523,32.32,64.4320518982006
2212,-8.276175,-3.753142,4.326822,0.023976,0.179136,-0.018784,32.32,64.539324585816
2222,-8.277969,-3.756732,4.304688,0.014508,0.174707,-0.03146,32.34,64.6607963813609
2232,-8.285748,-3.758526,4.301697,0.010843,0.170737,-0.03711,32.32,64.6952524882028
2242,-8.279764,-3.760321,4.284947,0.008858,0.16585,-0.041233,32.32,64.7700927104993
2252,-8.277372,-3.777071,4.269992,0.007483,0.160352,-0.045509,32.35,64.8587881167296
2262,-8.263015,-3.77408,4.249653,0.008399,0.152716,-0.048106,32.35,64.9292623024567
2272,-8.263015,-3.769294,4.234698,0.010385,0.144317,-0.04948,32.35,65.0018988243388
2282,-8.276773,-3.786642,4.22094,0.014508,0.134238,-0.050702,32.35,65.1207039608969
2292,-8.274381,-3.786642,4.210171,0.0197,0.123395,-0.050244,32.38,65.1713027542659
2302,-8.261221,-3.790829,4.208377,0.024282,0.111788,-0.0478,32.38,65.1560698261721
2312,-8.26481,-3.792026,4.198207,0.031001,0.100029,-0.043524,32.28,65.217905092326
2322,-8.249854,-3.783651,4.191627,0.038026,0.087354,-0.039401,32.28,65.2110974733245
2332,-8.255239,-3.786044,4.189833,0.045204,0.075289,-0.034972,32.3,65.2345798467796
2342,-8.257631,-3.78724,4.176074,0.052229,0.063225,-0.028863,32.3,65.3125892524304
2352,-8.265409,-3.783053,4.185047,0.060628,0.050244,-0.021991,32.34,65.2786492093136
2362,-8.259426,-3.783053,4.188636,0.067348,0.037721,-0.014355,32.34,65.2469473354968
2372,-8.266603,-3.781856,4.185047,0.073762,0.025504,-0.007025,32.31,65.2800562441221
2382,-8.261818,-3.778865,4.195815,0.078802,0.013286,0.000153,32.31,65.2106561485673
2392,-8.267202,-3.772285,4.203591,0.083536,-0.010079,0.014355,32.34,65.1754478345985
2402,-8.28156,-3.775874,4.207779,0.090103,-0.02306,0.019395,32.34,65.188640244939
2412,-8.273782,-3.77408,4.214957,0.092241,-0.034667,0.02474,32.34,65.1326349651842
2422,-8.282756,-3.778865,4.219743,0.093004,-0.045968,0.029016,32.37,65.1322137865732
2432,-8.290532,-3.762714,4.235296,0.093921,-0.056963,0.031001,32.37,65.0526286424464
2442,-8.297112,-3.747759,4.234099,0.091935,-0.06857,0.030391,32.3,65.0584025030736
2452,-8.291131,-3.753142,4.242475,0.089644,-0.080329,0.02978,32.3,65.0072897450357
2462,-8.303694,-3.744169,4.25085,0.086896,-0.090408,0.027031,32.35,64.9826970365409
2472,-8.305488,-3.738786,4.267599,0.082467,-0.101556,0.022297,32.35,64.8948545485546
2484,-8.317451,-3.739982,4.273581,0.078038,-0.110719,0.015424,32.36,64.8915554280077
2492,-8.316256,-3.727419,4.292724,0.071777,-0.118661,0.007483,32.36,64.7779169486236
2502,-8.306085,-3.722634,4.310072,0.065668,-0.125533,-0.001527,32.35,64.6613850900399
2512,-8.3013,-3.716054,4.322036,0.058796,-0.131489,-0.01069,32.35,64.5826768636892
2522,-8.296515,-3.71067,4.333402,0.051313,-0.136528,-0.021991,32.34,64.5082211111467
2532,-8.277372,-3.707679,4.351348,0.044288,-0.139125,-0.032834,32.34,64.3701324251098
2542,-8.266603,-3.704688,4.363312,0.03711,-0.139888,-0.04383,32.36,64.2814274712467
2552,-8.248059,-3.697509,4.38425,0.030696,-0.138208,-0.053145,32.36,64.1246931809844
2562,-8.208578,-3.699902,4.400999,0.025045,-0.134543,-0.069791,32.31,63.951140400842
2572,-8.190632,-3.699304,4.41416,0.01405,-0.121409,-0.076358,32.36,63.8417564005747
2582,-8.1679,-3.689733,4.423731,0.010385,-0.111788,-0.08094,32.36,63.730198382306
2592,-8.159525,-3.69392,4.418945,0.007636,-0.100335,-0.083689,32.28,63.7398237027303
2602,-8.120642,-3.685545,4.427918,0.005345,-0.087812,-0.086285,32.28,63.5945452814107
2612,-8.120642,-3.686741,4.433302,0.004581,-0.072998,-0.087354,32.37,63.5680679396746
2622,-8.099705,-3.684349,4.445865,0.004276,-0.057269,-0.087965,32.37,63.4518592690559
2632,-8.09791,-3.678965,4.450052,0.00504,-0.040317,-0.086743,32.34,63.4203369646424
2642,-8.086544,-3.692126,4.451847,0.006872,-0.022144,-0.083994,32.34,63.3984794198181
2652,-8.088937,-3.688536,4.452445,0.008705,-0.004123,-0.080481,32.36,63.397170438946
2662,-8.100902,-3.683152,4.449454,0.011148,0.015424,-0.076816,32.36,63.4348993741417
2672,-8.093124,-3.687938,4.46381,0.013286,0.033903,-0.073151,32.33,63.3478451246544
2682,-8.096116,-3.685545,4.462016,0.017257,0.053145,-0.069028,32.33,63.3615466742742
2692,-8.106285,-3.692724,4.449454,0.019853,0.071929,-0.065973,32.33,63.4577107095142
2702,-8.111669,-3.692724,4.446463,0.022449,0.090103,-0.061392,32.33,63.4856981270741
2712,-8.134401,-3.705884,4.442276,0.026114,0.107054,-0.05681,32.36,63.5741919620202
2722,-8.14457,-3.711268,4.43749,0.028405,0.121715,-0.05284,32.36,63.628090789506
2732,-8.166704,-3.715455,4.413561,0.031307,0.134696,-0.04948,32.3,63.8066282547426
2742,-8.17149,-3.727419,4.406981,0.037415,0.156992,-0.042913,32.34,63.8639905486191
2752,-8.193025,-3.732205,4.392624,0.040317,0.165086,-0.040164,32.34,63.9920816762044
2762,-8.204989,-3.737589,4.390232,0.042761,0.171348,-0.038026,32.33,64.0372327929872
2772,-8.213962,-3.749553,4.363312,0.044593,0.175013,-0.036957,32.33,64.208352634315
2782,-8.225926,-3.754339,4.362714,0.047342,0.178831,-0.034361,32.38,64.2433857147369
2792,-8.230712,-3.760321,4.345366,0.047953,0.179442,-0.032681,32.38,64.3495271021429
2802,-8.256434,-3.777071,4.33041,0.048106,0.17822,-0.03207,32.31,64.5011698658972
2812,-8.245069,-3.781856,4.312464,0.048717,0.176693,-0.031765,32.31,64.5730908441492
2822,-8.257631,-3.789633,4.30409,0.048106,0.172875,-0.030696,32.34,64.6520654571953
2832,-8.273185,-3.786642,4.299902,0.046731,0.167835,-0.030543,32.34,64.7050412639466
2842,-8.26481,-3.800999,4.278965,0.046426,0.161421,-0.030543,32.36,64.8089696852491
2852,-8.273185,-3.809374,4.265206,0.044899,0.153938,-0.030238,32.36,64.9068370371282
2862,-8.278568,-3.818945,4.262215,0.04215,0.145233,-0.030849,32.34,64.9437336475565
2872,-8.277372,-3.814758,4.240082,0.041081,0.13607,-0.030696,32.34,65.0511626647885
2882,-8.282157,-3.828516,4.234698,0.039401,0.125533,-0.031154,32.36,65.103258742827
2892,-8.277372,-3.824329,4.219144,0.037263,0.114079,-0.031307,32.36,65.1690718441736
2902,-8.280362,-3.84048,4.195216,0.036346,0.101556,-0.031307,32.35,65.3156802297205
2912,-8.276175,-3.841079,4.195216,0.035583,0.074984,-0.03207,32.35,65.3072311749153
2922,-8.273782,-3.842275,4.185645,0.034819,0.059865,-0.032376,32.3,65.3528966633411
2932,-8.283952,-3.835695,4.175476,0.035583,0.043677,-0.033139,32.28,65.4210216705371
2942,-8.28455,-3.847659,4.177869,0.036652,0.027642,-0.033445,32.28,65.4218376313485
2952,-8.280362,-3.838686,4.182654,0.038026,0.011759,-0.034972,32.35,65.3790213889546
2962,-8.288139,-3.831507,4.185047,0.039554,-0.004123,-0.036957,32.35,65.3762166293618
2972,-8.275578,-3.844668,4.182654,0.042302,-0.019395,-0.037874,32.34,65.3746904217332
2982,-8.273782,-3.829713,4.195815,0.043677,-0.034819,-0.039401,32.34,65.287547457386
2992,-8.276773,-3.830311,4.199404,0.045968,-0.048717,-0.040775,32.32,65.2760174079475
3002,-8.279764,-3.820141,4.226323,0.048717,-0.060934,-0.043219,32.32,65.1329252689509
3012,-8.264212,-3.815954,4.237091,0.049938,-0.072082,-0.045204,32.36,65.039080249593
3022,-8.257631,-3.805784,4.25085,0.051771,-0.079871,-0.046731,32.36,64.9432161956182
3032,-8.269596,-3.8004,4.256233,0.05284,-0.086743,-0.048564,32.29,64.9362222989246
3042,-8.246863,-3.790231,4.272385,0.053909,-0.092241,-0.050396,32.29,64.7924011065063
3052,-8.23789,-3.788436,4.301697,0.055436,-0.094073,-0.050855,32.35,64.6193463501893
3062,-8.225926,-3.776472,4.314259,0.055436,-0.095142,-0.049786,32.35,64.5156321379806
3072,-8.209774,-3.760321,4.339384,0.056505,-0.092852,-0.049327,32.32,64.3332295825612
3082,-8.189436,-3.752544,4.351946,0.057269,-0.089797,-0.04444,32.32,64.2144836594071
3092,-8.190034,-3.751946,4.357928,0.058796,-0.078954,-0.040012,32.32,64.1843781103052
3102,-8.163713,-3.739383,4.372285,0.058796,-0.071013,-0.035125,32.36,64.0373795433809
3112,-8.160124,-3.728616,4.378268,0.059712,-0.062156,-0.029932,32.36,63.9870513797232
3122,-8.163713,-3.736392,4.390232,0.060934,-0.052382,-0.025045,32.37,63.9417480524246
3132,-8.146963,-3.720241,4.39083,0.060934,-0.041081,-0.0197,32.37,63.8832783330402
3142,-8.138588,-3.698706,4.400999,0.061392,-0.029474,-0.013134,32.33,63.7888859203066
3152,-8.13799,-3.709473,4.395615,0.062614,-0.018173,-0.006261,32.33,63.8266025541836
3162,-8.139186,-3.703491,4.400401,0.063072,-0.006109,0.000305,32.35,63.798382122943
3172,-8.138588,-3.691527,4.402793,0.063225,0.005956,0.005956,32.35,63.7720901799117
3182,-8.145168,-3.692724,4.400999,0.062919,0.018021,0.010232,32.33,63.7978206722426
3192,-8.149954,-3.695715,4.404588,0.063072,0.029322,0.013592,32.33,63.7935109868366
3202,-8.145766,-3.685545,4.398008,0.063225,0.041081,0.01741,32.34,63.8071156143442
3213,-8.15773,-3.689733,4.392624,0.062919,0.050855,0.019395,32.34,63.8668911185808
3222,-8.176873,-3.692724,4.39083,0.062766,0.06017,0.020311,32.37,63.923313603824
3232,-8.193025,-3.694518,4.38425,0.061239,0.069333,0.020006,32.37,63.9961155505799
3242,-8.203793,-3.673581,4.370491,0.060934,0.077274,0.018631,32.34,64.0701211717371
3252,-8.23131,-3.68734,4.353143,0.060018,0.083383,0.010385,32.34,64.2362706481949
3262,-8.245667,-3.693322,4.348955,0.057421,0.092546,0.005498,32.38,64.2964381704689
3272,-8.250452,-3.697509,4.343571,0.056505,0.094226,-0.000764,32.35,64.3392095475091
3282,-8.255836,-3.693322,4.323233,0.056658,0.095295,-0.007941,32.35,64.4519160369046
3292,-8.283354,-3.699304,4.321437,0.054062,0.093921,-0.015882,32.38,64.5289356272926
3302,-8.275578,-3.704688,4.314857,0.052382,0.091172,-0.023518,32.38,64.550805172478
3312,-8.286345,-3.714857,4.303492,0.051465,0.087201,-0.031154,32.34,64.6435764343704
3322,-8.292925,-3.71067,4.291527,0.049938,0.082009,-0.040317,32.34,64.7157168275507
3332,-8.296515,-3.722036,4.292724,0.047647,0.075289,-0.048258,32.34,64.7288327568187
3342,-8.29472,-3.725027,4.288536,0.046578,0.067653,-0.055894,32.34,64.7494123297303
3352,-8.292925,-3.739383,4.278367,0.043982,0.059865,-0.062156,32.32,64.812175482525
3362,-8.283952,-3.738187,4.282554,0.041233,0.052076,-0.068264,32.32,64.7695223795797
3372,-8.286345,-3.743571,4.267599,0.039706,0.04383,-0.073609,32.35,64.8573813810841
3382,-8.28156,-3.745365,4.272385,0.037568,0.035125,-0.077885,32.35,64.8238868150862
3392,-8.273782,-3.753741,4.273581,0.035736,0.027184,-0.081398,32.36,64.808900601594
3403,-8.249256,-3.762714,4.278965,0.034361,0.0197,-0.084758,32.36,64.735792873747
3412,-8.249256,-3.762714,4.278965,0.033139,0.01237,-0.084758,32.35,64.735792873747
3422,-8.224131,-3.779463,4.279563,0.033445,0.006261,-0.084299,32.35,64.6939306453614
3432,-8.212766,-3.777071,4.288536,0.03207,-0.002443,-0.080329,32.34,64.619755635684
3442,-8.209774,-3.792026,4.298108,0.033139,-0.004887,-0.077885,32.31,64.5789570464494
3452,-8.191828,-3.77408,4.311268,0.034514,-0.005345,-0.074526,32.31,64.4522477678764
3462,-8.184649,-3.790829,4.314857,0.034514,-0.005192,-0.069639,32.33,64.4349445559242
3472,-8.175079,-3.781856,4.315455,0.036957,-0.00336,-0.064752,32.33,64.4010199153879
3482,-8.17448,-3.798008,4.335794,0.037568,0.000305,-0.06017,32.33,64.311418523884
3492,-8.175676,-3.788436,4.338786,0.039095,0.004123,-0.055131,32.33,64.2886604469801
3502,-8.172088,-3.795017,4.351348,0.040317,0.009774,-0.050244,32.36,64.222644242099
3512,-8.170892,-3.796213,4.348357,0.040317,0.015119,-0.047189,32.36,64.2366230067129
3522,-8.183454,-3.79382,4.358526,0.04215,0.021838,-0.043677,32.32,64.2100665460844
3532,-8.176275,-3.79741,4.36391,0.041997,0.029322,-0.040164,32.32,64.1698880179476
3542,-8.195418,-3.791427,4.366303,0.042761,0.034972,-0.039095,32.32,64.1945483841696
3552,-8.202596,-3.789633,4.365705,0.04215,0.041997,-0.038332,32.32,64.211944823331
3562,-8.204391,-3.771089,4.356134,0.043524,0.048869,-0.038179,32.33,64.245952992287
3572,-8.209177,-3.774678,4.367499,0.04383,0.054214,-0.038026,32.33,64.2020190028392
3582,-8.212766,-3.78066,4.365705,0.043219,0.060018,-0.039095,32.32,64.2255436634576
3592,-8.217552,-3.776472,4.339384,0.043219,0.064599,-0.041081,32.32,64.36738224169
3602,-8.230712,-3.762714,4.337589,0.043066,0.070402,-0.044746,32.36,64.3920097352374
3612,-8.236693,-3.765705,4.337589,0.041997,0.071777,-0.047037,32.36,64.4084907803518
3622,-8.24148,-3.773481,4.322036,0.041692,0.072693,-0.049633,32.36,64.5072264475788
3632,-8.237292,-3.756134,4.313661,0.042302,0.072998,-0.050244,32.37,64.5233223306469
3642,-8.236693,-3.764508,4.302295,0.041539,0.071624,-0.051924,32.37,64.5891676529591
3652,-8.244471,-3.765705,4.295715,0.041997,0.069028,-0.052534,32.34,64.6416787630494
3662,-8.243275,-3.759723,4.285545,0.041997,0.065668,-0.054367,32.34,64.6854701906751
3672,-8.23789,-3.764508,4.285545,0.04215,0.060781,-0.055131,32.37,64.6783517458565
3682,-8.233703,-3.754339,4.271188,0.042608,0.055436,-0.055436,32.37,64.7329899388732
3692,-8.237292,-3.757928,4.256233,0.042608,0.049786,-0.053603,32.35,64.8220659426141
3702,-8.238488,-3.755535,4.260421,0.04215,0.043066,-0.052534,32.35,64.8005962288943
3712,-8.239684,-3.754937,4.253242,0.042913,0.035583,-0.05116,32.3,64.8398480906759
3722,-8.227122,-3.750151,4.245465,0.04383,0.027489,-0.0478,32.3,64.8475085793891
3732,-8.22473,-3.737589,4.249653,0.044288,0.018479,-0.04383,32.35,64.807749644249
3742,-8.216354,-3.741179,4.247859,0.045815,0.011148,-0.040317,32.35,64.8020689490425
3752,-8.207382,-3.742973,4.247859,0.047342,0.003971,-0.036346,32.33,64.7839149323291
3762,-8.216354,-3.741179,4.262215,0.048869,-0.003818,-0.030849,32.33,64.7275195844089
3772,-8.198408,-3.753142,4.273581,0.05116,-0.010079,-0.020464,32.34,64.6406612614809
3782,-8.187043,-3.747759,4.292724,0.054367,-0.018173,-0.01573,32.33,64.5103665751962
3792,-8.191828,-3.752544,4.292126,0.057574,-0.020769,-0.011148,32.33,64.5291354434036
3802,-8.190632,-3.751946,4.298108,0.06017,-0.02138,-0.005803,32.31,64.4948372810471
3812,-8.189436,-3.749553,4.307679,0.062003,-0.020922,-0.001222,32.31,64.4401156358606
3822,-8.195418,-3.744169,4.316652,0.06353,-0.019242,0.001985,32.37,64.4016126517503
3832,-8.19781,-3.759723,4.335794,0.066432,-0.01573,0.006261,32.37,64.3241660901716
3842,-8.200203,-3.760321,4.339982,0.067653,-0.011454,0.008399,32.35,64.3085756996793
3852,-8.202596,-3.747759,4.351946,0.06918,-0.006109,0.009621,32.35,64.2393142433636
3862,-8.210971,-3.747759,4.363312,0.07086,0.000458,0.009774,32.36,64.1997340824524
3872,-8.216953,-3.738786,4.359723,0.072846,0.006261,0.009163,32.36,64.2224856021909
3882,-8.239087,-3.744768,4.366303,0.073609,0.012065,0.007483,32.37,64.2448019051926
3892,-8.236693,-3.756134,4.375875,0.074526,0.019548,0.005956,32.37,64.2019421377502
3902,-8.249256,-3.751946,4.361517,0.075136,0.025504,0.003054,32.34,64.2996287572332
3912,-8.257033,-3.75733,4.369295,0.075136,0.030085,-0.001985,32.34,64.2827182347149
3922,-8.260024,-3.754339,4.37408,0.07422,0.034361,-0.006109,32.35,64.2618598123617
3932,-8.271988,-3.75733,4.362714,0.073151,0.037721,-0.011606,32.35,64.3500091333253
3942,-8.276175,-3.762115,4.361517,0.07254,0.039859,-0.01741,32.34,64.3703857725402
3952,-8.286345,-3.75733,4.348357,0.068264,0.040928,-0.029169,32.34,64.4556985205614
3962,-8.274979,-3.762115,4.343571,0.066126,0.040623,-0.033903,32.33,64.4597280810208
3972,-8.271988,-3.763312,4.333402,0.063377,0.039095,-0.039401,32.35,64.5064787769012
3982,-8.268398,-3.764508,4.323831,0.061087,0.036957,-0.043524,32.35,64.5488803969767
3992,-8.268398,-3.762115,4.333402,0.056658,0.034056,-0.0478,32.35,64.4972576704896
4002,-8.26481,-3.754339,4.322036,0.052993,0.030543,-0.051313,32.35,64.539808630614
4012,-8.252846,-3.766303,4.31067,0.049022,0.026573,-0.055589,32.34,64.5838062156375
4022,-8.236693,-3.769892,4.306482,0.045662,0.022144,-0.057421,32.34,64.5730528550537
4032,-8.218149,-3.768696,4.313063,0.042608,0.018479,-0.058643,32.34,64.49643114463
4042,-8.209774,-3.751946,4.31067,0.039095,0.016035,-0.058643,32.34,64.472826925173
4052,-8.202596,-3.766303,4.296313,0.036805,0.013286,-0.059407,32.36,64.5457336581275
4062,-8.182258,-3.75733,4.297509,0.033139,0.010232,-0.058032,32.36,64.4846699293177
4072,-8.187043,-3.755535,4.296313,0.031307,0.008094,-0.054978,32.36,64.4997703168773
4082,-8.181659,-3.759125,4.292724,0.031001,0.00672,-0.052993,32.36,64.5099814218074
4092,-8.170293,-3.748357,4.302894,0.029016,0.00672,-0.04948,32.32,64.4205304547807
4102,-8.17448,-3.750151,4.307081,0.028405,0.006567,-0.04612,32.32,64.410127671781
4112,-8.175079,-3.748357,4.314259,0.028863,0.006567,-0.044593,32.36,64.3724362228045
4122,-8.170293,-3.744169,4.316652,0.029322,0.009316,-0.038332,32.36,64.3448858307948
4132,-8.17807,-3.736392,4.331009,0.030238,0.012523,-0.036194,32.37,64.2801213703193
4142,-8.184649,-3.735795,4.341179,0.031307,0.015119,-0.034972,32.34,64.2418481852497
4152,-8.179267,-3.73041,4.337589,0.03207,0.018784,-0.034514,32.34,64.2426175511414
4162,-8.19123,-3.720839,4.353741,0.03375,0.023976,-0.034819,32.33,64.1764717218147
4172,-8.187043,-3.719643,4.360321,0.033903,0.028253,-0.036041,32.33,64.131759286912
4182,-8.200203,-3.715455,4.368098,0.034514,0.03375,-0.038179,32.34,64.1173072336513
4192,-8.217552,-3.71067,4.378866,0.03543,0.040164,-0.04047,32.34,64.096452546624
4202,-8.219346,-3.702295,4.381258,0.036041,0.047189,-0.043371,32.31,64.0796381743288
4212,-8.221739,-3.716054,4.382454,0.036499,0.054672,-0.045968,32.31,64.0930694725968
4222,-8.23131,-3.703491,4.389035,0.036805,0.060781,-0.049175,32.33,64.0681564851572
4232,-8.243872,-3.714857,4.383651,0.036194,0.067653,-0.053451,32.33,64.1359597724857
4242,-8.247462,-3.701697,4.383651,0.036194,0.073304,-0.057269,32.38,64.1306769136097
4252,-8.254042,-3.706482,4.38066,0.036194,0.079412,-0.060934,32.38,64.1658173573716
4262,-8.24148,-3.711866,4.375276,0.036041,0.084758,-0.063988,32.34,64.1704714736106
4272,-8.248059,-3.711268,4.37408,0.035583,0.089186,-0.067348,32.34,64.1909071273349
4282,-8.249854,-3.714259,4.350152,0.035736,0.092546,-0.069639,32.35,64.3209684509185
4292,-8.244471,-3.724428,4.341777,0.035125,0.095906,-0.07254,32.35,64.3622677535528
4302,-8.24148,-3.738786,4.331607,0.035736,0.099418,-0.071166,32.33,64.4225258279123
4312,-8.239087,-3.744768,4.320839,0.036346,0.09896,-0.07025,32.33,64.4787425630967
4322,-8.244471,-3.742374,4.302295,0.037263,0.098349,-0.066584,32.33,64.5840258853839
4332,-8.230712,-3.74058,4.292724,0.037263,0.096211,-0.063377,32.34,64.6009124550836
4342,-8.252247,-3.741776,4.283751,0.037874,0.093615,-0.058948,32.34,64.6965444230356
4352,-8.2349,-3.759723,4.261617,0.03879,0.088117,-0.054214,32.32,64.7906783841014
4362,-8.233703,-3.772285,4.251448,0.040623,0.082314,-0.047953,32.32,64.8534562359343
4372,-8.235497,-3.777071,4.234099,0.041539,0.075442,-0.042455,32.37,64.9522553641618
4382,-8.23131,-3.776472,4.222135,0.043677,0.068111,-0.036041,32.37,65.0045610573598
4392,-8.240881,-3.78724,4.216154,0.045662,0.058796,-0.029016,32.32,65.0675464532781
4402,-8.235497,-3.792624,4.215555,0.047342,0.048258,-0.023213,32.32,65.0642793466934
4412,-8.22772,-3.8004,4.211368,0.049633,0.036652,-0.017715,32.35,65.0768484391237
4422,-8.234302,-3.811767,4.198806,0.052229,0.025351,-0.011454,32.35,65.1680808724377
4432,-8.225328,-3.811168,4.205984,0.054672,0.014203,-0.006414,32.34,65.1105198968086
4442,-8.236693,-3.820141,4.196413,0.0562,0.001222,-0.002596,32.34,65.1942091757094
4452,-8.24148,-3.823731,4.198806,0.058185,-0.011759,0.000153,32.36,65.195831963834
4462,-8.253444,-3.826123,4.220341,0.060781,-0.024587,0.00168,32.36,65.1125724865309
4472,-8.244471,-3.809374,4.221537,0.064294,-0.046731,0.003665,32.32,65.069823829752
4482,-8.257631,-3.813561,4.241877,0.065515,-0.057421,0.002902,32.33,64.9974984001644
4492,-8.253444,-3.820141,4.247859,0.065973,-0.068111,0.000458,32.33,64.9640459270317
4502,-8.253444,-3.816552,4.258626,0.065668,-0.075442,-0.00168,32.33,64.9047409960845
4513,-8.260622,-3.811767,4.278965,0.066432,-0.082314,-0.004581,32.33,64.8106716086243
4522,-8.261818,-3.801597,4.290929,0.065363,-0.086896,-0.009621,32.34,64.7412995124935
4532,-8.247462,-3.802794,4.31725,0.064446,-0.090103,-0.013439,32.34,64.5751832468767
4542,-8.243275,-3.798008,4.329215,0.06353,-0.092241,-0.01909,32.37,64.4994092644066
4552,-8.245667,-3.792624,4.349553,0.062003,-0.091324,-0.024282,32.37,64.3947142968619
4562,-8.23789,-3.79382,4.36391,0.059865,-0.089644,-0.029932,32.37,64.3048601771812
4572,-8.230712,-3.790231,4.383053,0.057421,-0.085674,-0.034972,32.37,64.1868754218868
4582,-8.221739,-3.784249,4.395615,0.055283,-0.080634,-0.040164,32.36,64.0960667599673
4592,-8.222935,-3.778267,4.418347,0.052687,-0.072693,-0.045204,32.36,63.9762159314743
4602,-8.20798,-3.767499,4.426722,0.050244,-0.063683,-0.050244,32.36,63.888144940604
4612,-8.19781,-3.769892,4.428516,0.0478,-0.053298,-0.05452,32.36,63.8582834108222
4622,-8.200802,-3.759723,4.442276,0.044135,-0.041844,-0.059101,32.36,63.7840766356758
4633,-8.170892,-3.745964,4.447061,0.04047,-0.013439,-0.062614,32.35,63.6764579093567
4642,-8.167302,-3.738786,4.446463,0.04047,0.001985,-0.063835,32.35,63.6636698384297
4652,-8.160124,-3.728616,4.454837,0.036346,0.017104,-0.063835,32.31,63.5934438258716
4662,-8.148758,-3.726821,4.451847,0.034361,0.033139,-0.063225,32.31,63.5805526727361
4672,-8.140981,-3.729214,4.446463,0.033445,0.048258,-0.061545,32.34,63.5926933940096
4682,-8.133204,-3.727419,4.439284,0.032681,0.063683,-0.058643,32.34,63.6096335053724
4692,-8.134999,-3.710072,4.418945,0.032376,0.078038,-0.054214,32.3,63.7000519001204
4702,-8.133802,-3.714259,4.418347,0.032376,0.091324,-0.050244,32.3,63.7047843358024
4712,-8.138588,-3.711866,4.400401,0.032987,0.104153,-0.043524,32.32,63.8058118649052
4722,-8.136195,-3.711268,4.395017,0.034056,0.115148,-0.038332,32.32,63.8274350220858
4732,-8.134999,-3.703491,4.374678,0.035888,0.124464,-0.031765,32.32,63.9215772005158
4742,-8.140981,-3.703491,4.356732,0.037568,0.133169,-0.025045,32.32,64.0281950540139
4752,-8.157133,-3.702295,4.343571,0.038943,0.138666,-0.018784,32.38,64.1321046069682
4762,-8.1679,-3.706482,4.319045,0.040775,0.143248,-0.012217,32.38,64.2880814237753
4772,-8.173882,-3.710072,4.31067,0.043524,0.145386,-0.005345,32.33,64.3487999204019
4782,-8.177471,-3.689733,4.297509,0.045968,0.145539,0.000305,32.33,64.4043778133402
4792,-8.20798,-3.702893,4.276572,0.048717,0.145233,0.005803,32.34,64.5954002187433
4802,-8.217552,-3.701099,4.262215,0.050396,0.142026,0.009927,32.34,64.6896296175296
4812,-8.236693,-3.698107,4.26401,0.051771,0.137445,0.012523,32.35,64.7201337662283
4822,-8.248658,-3.702893,4.248456,0.055589,0.1237,0.013744,32.33,64.832332271072
4832,-8.27139,-3.698107,4.242475,0.0562,0.115454,0.012065,32.33,64.9090933073239
4842,-8.283354,-3.7005,4.237091,0.055894,0.106749,0.00901,32.34,64.9658674870598
4852,-8.300702,-3.706482,4.251448,0.055894,0.096822,0.006109,32.34,64.9357618378949
4862,-8.312068,-3.713661,4.25085,0.056047,0.086437,0.001069,32.29,64.9709942394216
4872,-8.319845,-3.713661,4.249055,0.056047,0.074831,-0.006567,32.29,64.9973862415239
4883,-8.321639,-3.734,4.25384,0.054978,0.064294,-0.014813,32.36,64.9966297087739
4892,-8.328817,-3.729812,4.259823,0.052993,0.053603,-0.022907,32.36,64.9774126111331
4902,-8.335996,-3.728018,4.251448,0.052076,0.043066,-0.031154,32.38,65.0345821247714
4912,-8.337193,-3.742374,4.267001,0.049786,0.032223,-0.041844,32.38,64.9711766273353
4922,-8.339585,-3.727419,4.259823,0.049175,0.023213,-0.050549,32.34,64.9986965699244
4932,-8.333604,-3.75075,4.269393,0.047037,0.013134,-0.059254,32.34,64.9592507618543
4942,-8.329416,-3.753142,4.269992,0.045662,0.003818,-0.067653,32.3,64.9493463267801
4952,-8.315658,-3.757928,4.281956,0.043677,-0.003818,-0.075289,32.3,64.8622951828981
4962,-8.307282,-3.760919,4.293322,0.041844,-0.010537,-0.082467,32.37,64.7883509432812
4972,-8.294122,-3.769892,4.281956,0.040317,-0.016341,-0.087812,32.37,64.8268104380783
4982,-8.271988,-3.777071,4.297509,0.038026,-0.02138,-0.092699,32.33,64.70503060861
4992,-8.255836,-3.775276,4.301099,0.035277,-0.027947,-0.096822,32.39,64.6488971244952
5002,-8.23789,-3.777669,4.307679,0.034208,-0.030391,-0.096975,32.39,64.5774892177833
5012,-8.225926,-3.788436,4.302295,0.033292,-0.03146,-0.094379,32.33,64.5896379493431
5022,-8.216953,-3.802195,4.308277,0.032529,-0.032223,-0.090255,32.33,64.5529263707633
5032,-8.196015,-3.804588,4.304688,0.032223,-0.032223,-0.085063,32.31,64.5272272299798
5042,-8.184052,-3.8004,4.308876,0.033598,-0.03207,-0.078802,32.31,64.474477544305
5052,-8.183454,-3.801597,4.307679,0.034819,-0.031001,-0.071624,32.35,64.4805729810664
5062,-8.170293,-3.811168,4.314259,0.034667,-0.030085,-0.064141,32.35,64.4270397750692
5072,-8.172686,-3.80399,4.301099,0.035888,-0.029169,-0.057727,32.37,64.4929993741202
5082,-8.164909,-3.813561,4.304688,0.037415,-0.027642,-0.047953,32.37,64.4669946763763
5092,-8.179267,-3.81057,4.314259,0.038485,-0.026878,-0.039401,32.35,64.446527912673
5102,-8.173882,-3.802794,4.305884,0.041386,-0.025351,-0.031612,32.35,64.4696642308035
5112,-8.17149,-3.796213,4.305884,0.042761,-0.024587,-0.025962,32.37,64.457440223455
5122,-8.173284,-3.796811,4.307081,0.044593,-0.023976,-0.019395,32.37,64.4558923535246
5132,-8.185248,-3.788436,4.311867,0.046884,-0.023824,-0.014661,32.33,64.4492609060721
5142,-8.186445,-3.78724,4.321437,0.049786,-0.022602,-0.009774,32.33,64.4012432081575
5152,-8.193623,-3.78066,4.325625,0.051465,-0.021533,-0.00672,32.34,64.3889108211475
5162,-8.210373,-3.779463,4.328616,0.053451,-0.019853,-0.005803,32.34,64.4098469694234
5172,-8.219944,-3.78066,4.333402,0.055589,-0.01909,-0.006109,32.32,64.4078771838377
5182,-8.219944,-3.771089,4.341777,0.056047,-0.016799,-0.00733,32.36,64.354881095311
5192,-8.216354,-3.766303,4.347759,0.056352,-0.015424,-0.01069,32.36,64.3110744651918
5202,-8.228318,-3.758526,4.354938,0.056352,-0.013439,-0.014355,32.34,64.2930622664425
5214,-8.224131,-3.748955,4.353143,0.056352,-0.011301,-0.019242,32.34,64.2830193303935
5222,-8.233105,-3.747759,4.358526,0.056505,-0.00733,-0.023518,32.31,64.2743390658826
5232,-8.228318,-3.745964,4.378268,0.056047,-0.003818,-0.027642,32.31,64.1602681900244
5242,-8.215158,-3.736991,4.37408,0.054825,0.000305,-0.032681,32.34,64.1427221340166
5252,-8.20798,-3.736991,4.375875,0.053145,0.006109,-0.037415,32.34,64.117203278497
5262,-8.222935,-3.726223,4.38425,0.052229,0.012065,-0.042302,32.35,64.0970224055913
5272,-8.19781,-3.734598,4.381258,0.051007,0.018021,-0.045509,32.35,64.0639174312743
5282,-8.194221,-3.729214,4.392026,0.049327,0.024893,-0.048717,32.35,63.9947771477183
5292,-8.191828,-3.714857,4.390232,0.047495,0.031765,-0.051771,32.35,63.9836343601862
5302,-8.183454,-3.728616,4.394419,0.045815,0.039248,-0.053451,32.37,63.9572497947483
5312,-8.17448,-3.729812,4.388436,0.044746,0.047342,-0.05452,32.37,63.9687578999452
5322,-8.178668,-3.719643,4.387838,0.043677,0.055741,-0.053909,32.35,63.9708200341587
5332,-8.17448,-3.725625,4.383053,0.042455,0.065363,-0.052534,32.35,63.9921132308683
5342,-8.172686,-3.727419,4.375276,0.041692,0.082009,-0.050396,32.34,64.0299608092862
5352,-8.1679,-3.71725,4.378268,0.040775,0.089797,-0.0478,32.33,63.9929884998971
5362,-8.159525,-3.719045,4.37408,0.041692,0.096669,-0.043066,32.33,63.9972850619072
5372,-8.17149,-3.729214,4.356134,0.042455,0.103084,-0.038943,32.34,64.1278694681816
5382,-8.180463,-3.724428,4.350152,0.043677,0.108123,-0.034667,32.34,64.1742249270671
5392,-8.186445,-3.731607,4.341179,0.045204,0.113163,-0.029474,32.37,64.2415890083339
5402,-8.194221,-3.733402,4.337589,0.047189,0.117286,-0.023671,32.37,64.2796056507046
5412,-8.194819,-3.724428,4.329813,0.049633,0.119271,-0.019548,32.4,64.3118924874161
5422,-8.200802,-3.729812,4.320839,0.051618,0.121257,-0.014966,32.4,64.3773435981535
5432,-8.219346,-3.733402,4.305286,0.054214,0.121562,-0.010385,32.38,64.5031822767246
5442,-8.217552,-3.744169,4.306482,0.0562,0.120799,-0.006872,32.38,64.5039655203653
5452,-8.232506,-3.748955,4.294518,0.057879,0.119271,-0.004123,32.38,64.6041585125015
5462,-8.242676,-3.74716,4.283153,0.06017,0.115912,-0.002291,32.38,64.6837718208828
5472,-8.251051,-3.753741,4.281358,0.062003,0.112552,0.000153,32.33,64.7183354889977
5482,-8.262416,-3.760321,4.285545,0.063988,0.106901,0.000153,32.33,64.7285843636947
5492,-8.271988,-3.765106,4.25384,0.065668,0.10064,0,32.36,64.9183536529749
5502,-8.279166,-3.761517,4.259823,0.067042,0.094226,-0.001069,32.36,64.8996461250342
5512,-8.280362,-3.764508,4.258028,0.068417,0.077427,-0.00504,32.32,64.9145493324215
5522,-8.30489,-3.760321,4.24726,0.068875,0.068417,-0.008399,32.34,65.0198787634821
5532,-8.297711,-3.769294,4.243671,0.068264,0.059101,-0.011759,32.34,65.0316039200473
5542,-8.306085,-3.771687,4.247859,0.067348,0.047953,-0.016799,32.36,65.0306903502757
5553,-8.300702,-3.769892,4.245465,0.066279,0.037415,-0.020922,32.36,65.0294822049167
5562,-8.299506,-3.766303,4.24068,0.065515,0.027031,-0.02474,32.34,65.048015876949
5572,-8.291729,-3.77408,4.244269,0.064141,0.01573,-0.029627,32.34,65.0201765158871
5582,-8.306684,-3.768696,4.249653,0.061545,0.005192,-0.033292,32.33,65.0197702805613
5592,-8.295319,-3.762115,4.253242,0.059254,-0.004887,-0.037415,32.33,64.9697726445201
5602,-8.289934,-3.764508,4.255037,0.056505,-0.015577,-0.041997,32.34,64.9510572369157
5612,-8.283354,-3.765106,4.269393,0.053145,-0.025198,-0.04612,32.34,64.8630537285825
5622,-8.279764,-3.757928,4.269992,0.049938,-0.034056,-0.049938,32.36,64.8448493774482
5632,-8.26481,-3.760321,4.269393,0.046426,-0.041233,-0.053298,32.36,64.8173026662447
5642,-8.270791,-3.756732,4.282554,0.042302,-0.047953,-0.056505,32.38,64.7589659680724
5652,-8.257033,-3.760919,4.291527,0.039401,-0.053451,-0.059101,32.38,64.6863690839245
5662,-8.249256,-3.76391,4.293921,0.035277,-0.058032,-0.061392,32.39,64.6597602076996
5672,-8.240881,-3.742973,4.314857,0.03207,-0.061697,-0.063988,32.39,64.5117825115432
5682,-8.228917,-3.74716,4.323233,0.02642,-0.065821,-0.068264,32.34,64.446030841674
5692,-8.222935,-3.74716,4.325625,0.023671,-0.066126,-0.069486,32.35,64.4202594081388
5702,-8.209774,-3.744768,4.334,0.021991,-0.065363,-0.071471,32.35,64.3449760208935
5712,-8.224131,-3.74716,4.334598,0.021075,-0.06353,-0.072388,32.34,64.3766808470965
5722,-8.205587,-3.737589,4.353741,0.019548,-0.06017,-0.072998,32.34,64.226333615097
5732,-8.187043,-3.738786,4.353741,0.020159,-0.056047,-0.07254,32.34,64.1855294807589
5742,-8.181061,-3.735196,4.364508,0.020617,-0.050549,-0.072082,32.34,64.1126728040638
5752,-8.17807,-3.717848,4.377071,0.021075,-0.044899,-0.072082,32.35,64.0230524433438
5762,-8.168499,-3.734598,4.373481,0.023366,-0.038332,-0.072082,32.35,64.037139987411
5772,-8.181659,-3.72383,4.380062,0.024893,-0.029627,-0.070402,32.35,64.0220612024616
5782,-8.173882,-3.737589,4.382454,0.027947,-0.022144,-0.068722,32.35,64.0063145575318
5792,-8.155338,-3.727419,4.385446,0.030391,-0.012217,-0.066432,32.38,63.9378123527832
5802,-8.166105,-3.726821,4.392026,0.034667,-0.00336,-0.063835,32.38,63.9279670451494
5812,-8.149954,-3.732804,4.387838,0.037874,0.006109,-0.061545,32.35,63.9187790482764
5822,-8.160722,-3.724428,4.38425,0.041844,0.015882,-0.057574,32.35,63.953192120006
5832,-8.155338,-3.718446,4.38066,0.045662,0.026725,-0.053756,32.38,63.9531019705802
5842,-8.147561,-3.722036,4.378866,0.049175,0.036499,-0.049327,32.38,63.948272712883
5852,-8.159525,-3.73041,4.369893,0.053451,0.053909,-0.039401,32.35,64.0307702163997
5862,-8.163713,-3.729812,4.363312,0.061392,0.062156,-0.034514,32.36,64.0736889889356
5872,-8.166105,-3.741179,4.365705,0.063988,0.069791,-0.029169,32.36,64.0786598863099
5882,-8.173284,-3.736392,4.361517,0.067042,0.076511,-0.024893,32.35,64.1116371359531
5892,-8.169096,-3.738187,4.356732,0.069639,0.081398,-0.020464,32.35,64.1286684571749
5902,-8.17149,-3.743571,4.353741,0.071013,0.086743,-0.016952,32.36,64.1551678263882
5912,-8.194819,-3.735196,4.339982,0.071929,0.091172,-0.013134,32.36,64.2704534367103
5922,-8.193623,-3.734598,4.343571,0.07254,0.094837,-0.008552,32.36,64.2485993909215
5932,-8.210373,-3.752544,4.34058,0.072082,0.096822,-0.006414,32.36,64.3203962771579
5942,-8.215158,-3.758526,4.335794,0.07086,0.097891,-0.00504,32.33,64.362004427896
5952,-8.218149,-3.765106,4.316054,0.069028,0.098044,-0.002902,32.33,64.4773062840888
5962,-8.234302,-3.767499,4.328616,0.067042,0.098044,-0.002443,32.39,64.4511674874921
5972,-8.242676,-3.77408,4.308876,0.065057,0.096364,-0.00336,32.39,64.5783164287502
5982,-8.249256,-3.775276,4.315455,0.062308,0.09331,-0.003971,32.34,64.5602945704486
5992,-8.247462,-3.779463,4.30409,0.058948,0.089492,-0.006109,32.34,64.6191299268937
6002,-8.250452,-3.775276,4.305884,0.055894,0.085827,-0.00901,32.33,64.6122679628216
6013,-8.263015,-3.771687,4.289733,0.052382,0.080176,-0.016799,32.33,64.7197884179341
6022,-8.278568,-3.786642,4.290331,0.04948,0.074678,-0.021533,32.34,64.7662143091627
6032,-8.279166,-3.796811,4.278965,0.044135,0.062614,-0.025962,32.36,64.8363495104512
6042,-8.282756,-3.798606,4.286144,0.04215,0.055741,-0.031001,32.36,64.809084206384
6052,-8.270791,-3.793222,4.286144,0.039859,0.049786,-0.036346,32.35,64.7772726281157
6062,-8.275578,-3.798008,4.287939,0.038179,0.04383,-0.04047,32.35,64.7834248432583
6072,-8.2678,-3.798606,4.286144,0.037263,0.038332,-0.044593,32.37,64.7761263858356
6082,-8.254042,-3.79382,4.28734,0.037874,0.033139,-0.048869,32.37,64.7347101851087
6092,-8.238488,-3.802794,4.282554,0.038332,0.028405,-0.052534,32.33,64.7341441463487
6102,-8.244471,-3.802195,4.280162,0.038637,0.022907,-0.055436,32.33,64.7591168155847
6112,-8.248059,-3.793222,4.279563,0.040012,0.0197,-0.05681,32.36,64.7610061098136
6122,-8.239087,-3.789035,4.294518,0.041997,0.016799,-0.058338,32.36,64.6596570266939
6132,-8.230114,-3.789035,4.296313,0.044288,0.013897,-0.058643,32.34,64.6304529440079
6142,-8.221739,-3.779463,4.293921,0.046731,0.011912,-0.058185,32.34,64.6143636013869
6152,-8.215158,-3.786642,4.3005,0.049022,0.010843,-0.056963,32.33,64.5730642104038
6162,-8.212168,-3.778267,4.301099,0.051618,0.009774,-0.05452,32.33,64.5546852632949
6172,-8.216354,-3.772285,4.302894,0.055131,0.009468,-0.051771,32.37,64.548619520593
6182,-8.199606,-3.767499,4.314857,0.057879,0.009774,-0.048106,32.37,64.4443595829977
6192,-8.200203,-3.758526,4.320241,0.060628,0.010232,-0.043982,32.35,64.4086264646636
6202,-8.19781,-3.756732,4.319643,0.064752,0.013286,-0.035277,32.35,64.404482390017
6212,-8.201998,-3.743571,4.321437,0.065973,0.014355,-0.03146,32.4,64.3910879161916
6222,-8.198408,-3.74058,4.321437,0.066432,0.016952,-0.027184,32.36,64.3799179692716
6232,-8.206185,-3.726223,4.325027,0.066126,0.018326,-0.022907,32.36,64.3641667733881
6242,-8.216354,-3.727419,4.339982,0.066432,0.02138,-0.0197,32.36,64.3111582224315
6252,-8.212766,-3.726223,4.326822,0.065515,0.023366,-0.016341,32.36,64.3697480628895
6262,-8.219944,-3.713063,4.337589,0.06353,0.024893,-0.014661,32.38,64.3169275926435
6272,-8.222935,-3.709473,4.337589,0.061697,0.02642,-0.013897,32.38,64.3200262383277
6282,-8.229516,-3.707081,4.336991,0.059407,0.0281,-0.013592,32.36,64.3355481616027
6292,-8.23789,-3.690331,4.332206,0.056352,0.028558,-0.014355,32.36,64.3621495720138
6302,-8.246264,-3.691527,4.329813,0.052534,0.029474,-0.016035,32.38,64.394608288162
6312,-8.253444,-3.703491,4.329215,0.04948,0.028405,-0.016188,32.38,64.4259478396561
6322,-8.252846,-3.696911,4.334598,0.046426,0.027642,-0.019242,32.35,64.3902204816472
6332,-8.257631,-3.693322,4.319643,0.043219,0.026114,-0.022602,32.35,64.4744678569801
6342,-8.268398,-3.688536,4.308876,0.040623,0.025198,-0.026725,32.35,64.5493881558151
6352,-8.26481,-3.692126,4.313063,0.037568,0.021838,-0.031001,32.35,64.5233331356518
6362,-8.270193,-3.705884,4.310072,0.036041,0.018631,-0.034667,32.38,64.5646158793462
6372,-8.260622,-3.713063,4.293921,0.033445,0.010843,-0.043677,32.35,64.6337706213266
6382,-8.250452,-3.708875,4.291527,0.033139,0.007483,-0.046273,32.35,64.6191994453474
6392,-8.258827,-3.703491,4.295117,0.032529,0.003818,-0.051313,32.34,64.6139730731393
6402,-8.243275,-3.719045,4.296313,0.032987,-0.000916,-0.053603,32.34,64.5886459648731
6412,-8.237292,-3.715455,4.296911,0.034972,-0.004581,-0.055894,32.36,64.5685249811474
6422,-8.229516,-3.714259,4.296911,0.036041,-0.007789,-0.059101,32.36,64.5498736757479
6432,-8.223534,-3.715455,4.299902,0.038332,-0.01069,-0.062003,32.38,64.522176997397
6442,-8.221141,-3.733402,4.292724,0.040623,-0.012217,-0.062766,32.38,64.572194661658
6452,-8.205587,-3.732205,4.299902,0.042761,-0.01405,-0.063377,32.39,64.498905904944
6462,-8.202596,-3.738786,4.313661,0.047037,-0.014355,-0.062919,32.39,64.4277183427573
6472,-8.192427,-3.74716,4.316652,0.049633,-0.013744,-0.06353,32.38,64.3979530825846
6482,-8.192427,-3.753741,4.329813,0.052687,-0.012523,-0.062308,32.38,64.3367178056914
6492,-8.192427,-3.753741,4.336392,0.055741,-0.010079,-0.060323,32.38,64.3027431549355
6502,-8.186445,-3.766303,4.346562,0.059865,-0.006109,-0.058643,32.38,64.2497775660587
6512,-8.173882,-3.762115,4.342375,0.062003,-0.002138,-0.0562,32.32,64.238608764331
6522,-8.186445,-3.759125,4.350152,0.065363,0.003818,-0.053145,32.32,64.2237984672945
6532,-8.181061,-3.78066,4.369893,0.067348,0.010843,-0.049938,32.32,64.1323562672155
6542,-8.176275,-3.77408,4.377071,0.068722,0.017868,-0.043524,32.32,64.0776612106982
6552,-8.170892,-3.786044,4.385446,0.070402,0.033139,-0.041081,32.33,64.034915391407
6562,-8.185846,-3.781258,4.386044,0.07086,0.041539,-0.038179,32.34,64.0607694856263
6572,-8.193025,-3.784847,4.38425,0.069791,0.049633,-0.035736,32.34,64.090020362169
6582,-8.19781,-3.784249,4.39083,0.069028,0.057879,-0.032987,32.35,64.0664522433907
6592,-8.200802,-3.779463,4.397409,0.067501,0.065668,-0.031765,32.35,64.0344776938389
6602,-8.210373,-3.790231,4.394419,0.064599,0.072846,-0.030543,32.32,64.0827344243413
6612,-8.216953,-3.787838,4.377071,0.060781,0.078649,-0.031154,32.32,64.1840689229714
6622,-8.219346,-3.793222,4.37408,0.057269,0.083536,-0.029474,32.36,64.2104025086961
6632,-8.227122,-3.789633,4.366901,0.053603,0.087812,-0.030849,32.36,64.2610132964208
6642,-8.236693,-3.789035,4.359125,0.049175,0.091172,-0.031765,32.39,64.3217923002229
6652,-8.235497,-3.801597,4.342973,0.045662,0.093462,-0.034361,32.39,64.4150243717216
6662,-8.236693,-3.799204,4.341179,0.041081,0.094379,-0.034667,32.35,64.4244488102959
6672,-8.243872,-3.798008,4.335197,0.03711,0.094073,-0.036041,32.35,64.4699845276443
6682,-8.242078,-3.789633,4.322634,0.032834,0.092393,-0.038332,32.36,64.5220123604349
6692,-8.239087,-3.795615,4.308876,0.029322,0.089644,-0.040317,32.36,64.5923411863062
6702,-8.250452,-3.801597,4.295715,0.027184,0.085368,-0.043066,32.33,64.6915009212872
6712,-8.253444,-3.792026,4.272983,0.025198,0.080329,-0.044288,32.33,64.8056720880392
6722,-8.247462,-3.776472,4.269393,0.023518,0.067653,-0.047342,32.33,64.7952332541556
6732,-8.252247,-3.778865,4.256832,0.024282,0.06017,-0.0478,32.36,64.8732019226129
6742,-8.237292,-3.776472,4.245465,0.025198,0.053298,-0.048106,32.36,64.896648243399
6752,-8.235497,-3.776472,4.248456,0.026878,0.045509,-0.047647,32.38,64.8771766542011
6762,-8.230712,-3.769892,4.248456,0.029322,0.03711,-0.047342,32.38,64.8599271541053
6772,-8.222935,-3.771089,4.242475,0.032834,0.030543,-0.045815,32.3,64.874967026416
6784,-8.225328,-3.772285,4.238885,0.036499,0.021838,-0.044288,32.3,64.9001128726597
6792,-8.219944,-3.760919,4.252644,0.040775,0.01405,-0.041692,32.35,64.8052259043856
6802,-8.224131,-3.753142,4.255037,0.045662,0.007941,-0.039706,32.35,64.7942149024317
6812,-8.216354,-3.749553,4.261617,0.050396,0.000916,-0.036805,32.37,64.7391298746597
6822,-8.22473,-3.745964,4.259224,0.055589,-0.004734,-0.035583,32.37,64.7665486844124
6832,-8.220542,-3.743571,4.274778,0.059712,-0.008552,-0.034056,32.34,64.6741403012559
6842,-8.204989,-3.736991,4.28734,0.064599,-0.011759,-0.03207,32.34,64.5675308439833
6852,-8.22772,-3.728616,4.292126,0.069028,-0.013897,-0.030543,32.36,64.5851629142419
6862,-8.209774,-3.719643,4.301697,0.07254,-0.015119,-0.029169,32.36,64.4862025550643
6872,-8.218149,-3.721437,4.316652,0.074984,-0.015119,-0.028405,32.34,64.4295324985823
6882,-8.212168,-3.714259,4.336392,0.077122,-0.013744,-0.027031,32.34,64.3067384501161
6892,-8.227122,-3.703491,4.351348,0.078649,-0.008399,-0.025962,32.36,64.2524685013307
6902,-8.227122,-3.696313,4.357928,0.078954,-0.004581,-0.026573,32.36,64.2112531756879
6912,-8.233703,-3.708277,4.366303,0.079412,0.000458,-0.0281,32.36,64.1952902999644
6922,-8.22473,-3.708277,4.368696,0.07758,0.005192,-0.027794,32.34,64.1626216692651
6932,-8.225328,-3.698107,4.37408,0.075136,0.011759,-0.028405,32.34,64.1258784595714
6942,-8.229516,-3.710072,4.377071,0.07254,0.017562,-0.029169,32.35,64.1322685972836
6952,-8.227122,-3.705286,4.37408,0.070097,0.023366,-0.031001,32.35,64.1373037305004
6962,-8.225328,-3.712464,4.366901,0.067195,0.027947,-0.031612,32.36,64.177500755088
6972,-8.236693,-3.711866,4.371687,0.064752,0.033445,-0.031154,32.36,64.1780574191548
6982,-8.222935,-3.717848,4.369893,0.061087,0.036957,-0.033445,32.33,64.1621995563755
6992,-8.225328,-3.710072,4.359723,0.057421,0.041081,-0.033445,32.33,64.2119921452102
7002,-8.225926,-3.732205,4.362116,0.055131,0.044288,-0.033598,32.38,64.2237073260725
7012,-8.218149,-3.729214,4.344768,0.053145,0.046426,-0.034056,32.38,64.2923788962147
7022,-8.22772,-3.729812,4.341777,0.050549,0.047953,-0.033903,32.37,64.3300110938709
7032,-8.220542,-3.74716,4.328616,0.049022,0.048106,-0.034056,32.37,64.3994520715885
7042,-8.219944,-3.741179,4.316652,0.0478,0.048564,-0.032376,32.36,64.4537326242872
7052,-8.219346,-3.738187,4.301099,0.046884,0.047953,-0.03207,32.36,64.5297147225398
7062,-8.219944,-3.768098,4.301697,0.047189,0.045509,-0.030696,32.39,64.558534367155
7072,-8.216953,-3.758526,4.286742,0.0478,0.039706,-0.029627,32.34,64.619401904053
7082,-8.212766,-3.762714,4.271787,0.049175,0.036652,-0.0281,32.34,64.6918011691795
7092,-8.209177,-3.765106,4.275974,0.051771,0.033445,-0.026878,32.37,64.664543898234
7102,-8.216354,-3.766303,4.275376,0.053451,0.029627,-0.026267,32.37,64.6848618521758
7112,-8.213365,-3.773481,4.271787,0.056352,0.025198,-0.026878,32.35,64.7041350106272
7122,-8.219346,-3.779463,4.274778,0.058338,0.021228,-0.025962,32.35,64.7080596657793
7132,-8.221141,-3.771687,4.286144,0.060628,0.017562,-0.026114,32.32,64.645285607104
7142,-8.220542,-3.786642,4.284947,0.06185,0.01405,-0.027031,32.32,64.6654459584705
7152,-8.210373,-3.778865,4.290331,0.064294,0.010385,-0.028711,32.4,64.6069724665898
7162,-8.22772,-3.778865,4.313661,0.066279,0.008094,-0.029627,32.4,64.5251781997246
7172,-8.224131,-3.767499,4.303492,0.067653,0.005956,-0.031307,32.37,64.5580026913496
7182,-8.235497,-3.769892,4.322036,0.066737,0.004581,-0.034514,32.37,64.4901881429863
7192,-8.243275,-3.772883,4.322634,0.066432,0.003818,-0.037874,32.37,64.5075433410724
7202,-8.240283,-3.775276,4.331009,0.065973,0.003512,-0.040928,32.37,64.4601940228768
7215,-8.233703,-3.766901,4.355535,0.060323,0.005192,-0.050855,32.33,64.3107218327885
7222,-8.233703,-3.766901,4.355535,0.060323,0.005192,-0.050855,32.33,64.3107218327885
7232,-8.243872,-3.755535,4.359723,0.057421,0.007941,-0.055741,32.34,64.300405421974
7242,-8.243872,-3.758526,4.378268,0.050549,0.01405,-0.06521,32.37,64.2083200063726
7252,-8.244471,-3.760321,4.383053,0.046426,0.018021,-0.069944,32.37,64.1869909901178
7262,-8.229516,-3.747759,4.380062,0.041692,0.022907,-0.072998,32.34,64.1556195206764
7272,-8.22772,-3.744768,4.392624,0.036957,0.027947,-0.077427,32.34,64.0840272839567
7282,-8.228917,-3.746562,4.38066,0.032681,0.032223,-0.082009,32.36,64.1499619412126
7292,-8.22473,-3.748955,4.385446,0.028558,0.037568,-0.084452,32.36,64.1183905542333
7302,-8.225926,-3.748955,4.379463,0.025656,0.044593,-0.085063,32.34,64.1518040534701
7312,-8.208578,-3.744169,4.380062,0.023213,0.050549,-0.086743,32.34,64.1044630007135
7322,-8.215756,-3.744169,4.370491,0.021228,0.057269,-0.086896,32.36,64.1699353834444
7332,-8.202596,-3.744768,4.371089,0.019853,0.063225,-0.085216,32.36,64.1376484696204
7342,-8.186445,-3.737589,4.350152,0.018631,0.068875,-0.083383,32.33,64.2014502544875
7352,-8.190632,-3.735196,4.347161,0.018631,0.073151,-0.082925,32.33,64.2239079228841
7362,-8.195418,-3.738187,4.336991,0.020617,0.077274,-0.07926,32.36,64.2903388017212
7372,-8.181061,-3.74058,4.338786,0.023518,0.081245,-0.073304,32.36,64.2510329722823
7382,-8.188239,-3.735196,4.315455,0.025351,0.083841,-0.06857,32.37,64.3823698546152
7392,-8.181659,-3.736392,4.293322,0.029627,0.085368,-0.062461,32.37,64.4834561058972
7402,-8.186445,-3.736991,4.284947,0.034056,0.085674,-0.056658,32.35,64.5383006533947
7412,-8.192427,-3.736991,4.269393,0.039095,0.084299,-0.042302,32.35,64.6324940424227
7422,-8.195418,-3.736392,4.256233,0.050396,0.081703,-0.035277,32.37,64.7069782358816
7432,-8.190632,-3.742374,4.250251,0.056658,0.077885,-0.0281,32.31,64.7335008669965
7442,-8.194221,-3.744169,4.250251,0.062461,0.072693,-0.022297,32.31,64.7433464664507
7452,-8.212168,-3.74716,4.237091,0.067348,0.066584,-0.016341,32.34,64.8548035043057
7462,-8.217552,-3.74716,4.238885,0.073151,0.060781,-0.010537,32.34,64.8574304799181
7472,-8.21157,-3.744768,4.243073,0.078343,0.053451,-0.005803,32.33,64.8199409399269
7482,-8.225926,-3.756732,4.241278,0.08262,0.045204,-0.001222,32.33,64.8732562632889
7492,-8.2349,-3.748357,4.252046,0.086743,0.03711,0.001833,32.38,64.8287985620395
7502,-8.236693,-3.746562,4.247859,0.089186,0.029322,0.004429,32.38,64.8526847174243
7512,-8.231908,-3.748357,4.267599,0.091324,0.021686,0.005498,32.36,64.7415241828279
7522,-8.246863,-3.748955,4.271188,0.093157,0.01405,0.006109,32.36,64.7567885326091
7532,-8.255836,-3.75075,4.27059,0.092546,0.006414,0.004734,32.35,64.7816051453107
7542,-8.2678,-3.764508,4.281358,0.092852,-0.000153,0.003665,32.35,64.7663454269229
7552,-8.274979,-3.771089,4.299304,0.091324,-0.005956,0.000764,32.37,64.696367126448
7562,-8.276773,-3.762714,4.299304,0.089034,-0.011606,-0.00336,32.37,64.6918947744743
7572,-8.276175,-3.765106,4.318447,0.086743,-0.015119,-0.008094,32.32,64.5944733947166
7582,-8.277969,-3.763312,4.323831,0.08262,-0.018937,-0.018937,32.32,64.5689729086856
7592,-8.269596,-3.774678,4.348955,0.07422,-0.022602,-0.024129,32.38,64.4328658608408
7602,-8.262416,-3.77408,4.354938,0.069944,-0.02306,-0.030085,32.36,64.3855264936064
7612,-8.252247,-3.772285,4.353143,0.065363,-0.02138,-0.035888,32.36,64.3701407452457
7622,-8.252846,-3.771089,4.371089,0.060323,-0.019548,-0.042913,32.31,64.2782109876724
7632,-8.247462,-3.776472,4.381258,0.055589,-0.016952,-0.048106,32.31,64.219545176779
7642,-8.242676,-3.768696,4.371687,0.051007,-0.01237,-0.052382,32.32,64.2498278140544
7652,-8.2349,-3.775874,4.375276,0.047189,-0.00901,-0.057269,32.32,64.2213182306146
7662,-8.20798,-3.766901,4.377669,0.043982,-0.003512,-0.060628,32.34,64.1389774996842
7672,-8.203793,-3.774678,4.380062,0.041081,0.002596,-0.062614,32.34,64.1252971816059
7682,-8.201998,-3.775276,4.38425,0.039248,0.009163,-0.064141,32.38,64.1003481501193
7692,-8.200203,-3.769892,4.36391,0.037415,0.014355,-0.065668,32.38,64.1952338575096
7704,-8.177471,-3.767499,4.371089,0.036957,0.020311,-0.064599,32.4,64.1042818431637
7712,-8.18764,-3.775276,4.35733,0.037415,0.026573,-0.062919,32.4,64.2063138597009
7722,-8.182856,-3.768098,4.347161,0.038026,0.032834,-0.060934,32.34,64.2404417409157
7732,-8.163115,-3.771089,4.345366,0.039706,0.03879,-0.059407,32.34,64.2081445506546
7742,-8.17807,-3.769892,4.347161,0.042455,0.043371,-0.053909,32.34,64.2314868068415
7752,-8.17448,-3.762714,4.325027,0.043524,0.047037,-0.04948,32.34,64.3302470614708
7762,-8.178668,-3.757928,4.319045,0.048869,0.053603,-0.040775,32.38,64.3656782762468
7772,-8.17448,-3.751348,4.320241,0.051771,0.05681,-0.036194,32.34,64.3432103281925
7782,-8.179267,-3.754339,4.316054,0.054978,0.05849,-0.030849,32.34,64.3787899207925
7792,-8.188239,-3.742374,4.313063,0.057421,0.059254,-0.026878,32.33,64.402147650505
7802,-8.198408,-3.732205,4.311867,0.059254,0.059712,-0.02306,32.33,64.4208083907266
7812,-8.194819,-3.739982,4.307679,0.061545,0.059559,-0.018784,32.35,64.4423851645333
7822,-8.213365,-3.728616,4.31067,0.062003,0.058185,-0.016341,32.35,64.4570136870765
7832,-8.22473,-3.731009,4.299902,0.063835,0.057269,-0.015119,32.33,64.5406675125014
7842,-8.229516,-3.726223,4.308277,0.062308,0.054214,-0.015119,32.33,64.5032447474033
7852,-8.242676,-3.722036,4.306482,0.061392,0.052382,-0.014203,32.34,64.5377885482127
7862,-8.244471,-3.719643,4.31725,0.060476,0.049786,-0.015424,32.34,64.4838102232024
7872,-8.259426,-3.720839,4.308876,0.058032,0.045815,-0.017715,32.36,64.5617274988969
7882,-8.255836,-3.705884,4.314259,0.055283,0.04215,-0.020922,32.36,64.5108508248567
7892,-8.264212,-3.705884,4.320839,0.052534,0.039248,-0.025504,32.36,64.4957155195509
7902,-8.263015,-3.712464,4.320241,0.049786,0.035583,-0.030543,32.36,64.5027358491448
7912,-8.266603,-3.720839,4.319643,0.04612,0.032681,-0.034514,32.35,64.522289103313
7922,-8.261221,-3.707081,4.323831,0.042608,0.030391,-0.040317,32.35,64.4747908539888
7932,-8.264212,-3.707679,4.323831,0.039248,0.025045,-0.052229,32.34,64.48210568253
7942,-8.268398,-3.711866,4.32742,0.032834,0.022907,-0.057879,32.37,64.4772271796152
7952,-8.2678,-3.722036,4.329215,0.030543,0.021838,-0.062461,32.37,64.4768957069784
7962,-8.253444,-3.710072,4.32742,0.028405,0.021686,-0.066584,32.36,64.4418449961796
7972,-8.23789,-3.716054,4.328018,0.027184,0.021075,-0.071013,32.36,64.4098325299335
7982,-8.233703,-3.724428,4.328018,0.027642,0.021991,-0.073457,32.37,64.4089224257709
7992,-8.222337,-3.73041,4.323831,0.027947,0.022907,-0.076511,32.37,64.4110428290239
8002,-8.221141,-3.74058,4.323831,0.029016,0.023824,-0.077274,32.38,64.4187481530393
8013,-8.204391,-3.734598,4.322634,0.031765,0.024893,-0.077885,32.38,64.3810765629614
8022,-8.210971,-3.733402,4.323233,0.03375,0.026725,-0.076969,32.33,64.3915902324469
8032,-8.188239,-3.748955,4.321437,0.036957,0.029627,-0.075442,32.33,64.3656134842586
8042,-8.19123,-3.751348,4.308876,0.039859,0.031612,-0.073609,32.35,64.4398077594533
8052,-8.181659,-3.756732,4.31725,0.04444,0.033445,-0.069791,32.35,64.3804733009669
8062,-8.18764,-3.760321,4.314259,0.049022,0.036346,-0.065515,32.35,64.4131360463854
8072,-8.186445,-3.766303,4.316652,0.053603,0.038179,-0.059712,32.35,64.4042580446142
8082,-8.173882,-3.775874,4.316054,0.057269,0.040928,-0.054825,32.34,64.3890028872753
8092,-8.182856,-3.772883,4.311268,0.061545,0.042608,-0.048106,32.34,64.4308523956222
8102,-8.184052,-3.772285,4.314857,0.064599,0.044593,-0.036346,32.31,64.4143553318511
8112,-8.185846,-3.775276,4.313063,0.071166,0.047037,-0.029627,32.33,64.4307674200308
8122,-8.195418,-3.779463,4.31725,0.073151,0.047953,-0.023824,32.33,64.434956258639
8132,-8.196614,-3.782454,4.314259,0.074067,0.047189,-0.018326,32.34,64.4561875737423
8142,-8.203195,-3.780062,4.311268,0.075747,0.047495,-0.013744,32.34,64.4839164491843
8152,-8.216953,-3.789633,4.313063,0.074984,0.047037,-0.01069,32.34,64.5152860544985
8162,-8.216354,-3.795615,4.311867,0.074678,0.045968,-0.005956,32.34,64.5262836316363
8172,-8.225328,-3.790231,4.321437,0.071929,0.044135,-0.002596,32.34,64.4914252685464
8182,-8.231908,-3.795615,4.31067,0.069028,0.041692,-0.001527,32.34,64.5671234328536
8192,-8.244471,-3.791427,4.31725,0.066432,0.039554,-0.000916,32.35,64.5568949154136
8202,-8.245069,-3.796213,4.319045,0.063072,0.03711,-0.001833,32.35,64.553885287167
8212,-8.260024,-3.789633,4.314857,0.059712,0.033139,-0.003512,32.32,64.6019509395694
8222,-8.25464,-3.794419,4.309474,0.055283,0.029627,-0.00504,32.32,64.6225830500147
8232,-8.269596,-3.781856,4.312464,0.049938,0.02642,-0.007636,32.38,64.627599187853
8242,-8.261818,-3.785445,4.311867,0.045204,0.022144,-0.012065,32.38,64.6170560063169
8252,-8.259426,-3.777071,4.316054,0.04047,0.018937,-0.015882,32.34,64.5816762466427
8262,-8.266603,-3.769294,4.311867,0.036194,0.015424,-0.020617,32.34,64.6112870196007
8272,-8.264212,-3.785445,4.305884,0.032223,0.011606,-0.0281,32.33,64.6531622266355
8282,-8.2678,-3.775276,4.295715,0.026114,0.004429,-0.032529,32.36,64.7031819918544
8292,-8.252846,-3.768696,4.301099,0.023518,0.001069,-0.036957,32.36,64.6355705134025
8302,-8.25165,-3.761517,4.298108,0.021838,-0.001069,-0.04047,32.32,64.6410516176051
8312,-8.243872,-3.765705,4.308876,0.021838,-0.00336,-0.04383,32.32,64.5724452510196
8322,-8.233703,-3.769892,4.3005,0.021991,-0.00672,-0.045968,32.34,64.5972586046212
8332,-8.239684,-3.759723,4.302894,0.023518,-0.008399,-0.048106,32.34,64.5878733931019
8342,-8.222935,-3.748955,4.302295,0.024282,-0.010079,-0.048717,32.37,64.5425598769426
8352,-8.204989,-3.747759,4.30409,0.025809,-0.010996,-0.051007,32.37,64.4918150993271
8362,-8.216953,-3.754339,4.316652,0.0281,-0.011301,-0.051007,32.35,64.4604915185345
8372,-8.206185,-3.743571,4.318447,0.030543,-0.010843,-0.050855,32.35,64.4159691764435
8382,-8.200802,-3.734,4.309474,0.034056,-0.010079,-0.049633,32.32,64.4404281482466
8392,-8.200802,-3.728018,4.324429,0.03711,-0.008858,-0.048411,32.32,64.3569421638067
8402,-8.198408,-3.728018,4.324429,0.039706,-0.007025,-0.048106,32.37,64.3515333483669
8412,-8.190034,-3.725027,4.334,0.044135,-0.003971,-0.04444,32.37,64.2800289460387
8422,-8.191828,-3.728616,4.34058,0.046731,-0.00168,-0.042913,32.38,64.2537997249593
8432,-8.190632,-3.714857,4.339982,0.049175,0.001833,-0.041692,32.38,64.2399912406256
8442,-8.19123,-3.717848,4.360919,0.051313,0.006261,-0.039859,32.34,64.1363526419387
8452,-8.186445,-3.708875,4.358526,0.054978,0.015577,-0.035888,32.34,64.128526820344
8462,-8.197212,-3.702295,4.356732,0.055894,0.020464,-0.033598,32.36,64.1555374747049
8472,-8.20798,-3.691527,4.357928,0.056352,0.024587,-0.032834,32.37,64.1628394022743
8482,-8.196015,-3.696911,4.367499,0.056505,0.029627,-0.031001,32.37,64.0917335262543
8492,-8.198408,-3.7005,4.358526,0.056352,0.034208,-0.029474,32.34,64.1471603327198
8502,-8.200802,-3.697509,4.359125,0.055436,0.039401,-0.028863,32.34,64.1464507762871
8512,-8.194221,-3.711268,4.371089,0.05452,0.044135,-0.028253,32.34,64.0839434447916
8522,-8.206185,-3.702893,4.364508,0.05284,0.048258,-0.026267,32.34,64.1364914683805
8532,-8.204989,-3.704688,4.359125,0.050702,0.052382,-0.025809,32.37,64.1633591238474
8542,-8.214561,-3.71067,4.349553,0.049175,0.056658,-0.024893,32.37,64.2405868928526
8552,-8.216953,-3.717848,4.351348,0.047037,0.059712,-0.024282,32.34,64.2441097105706
8562,-8.228917,-3.716054,4.353741,0.045051,0.062308,-0.022449,32.34,64.2570330876598
8572,-8.213962,-3.71725,4.339982,0.043524,0.064752,-0.021838,32.34,64.2953327743622
8582,-8.212766,-3.721437,4.339384,0.04215,0.066584,-0.021686,32.34,64.3000017571414
8592,-8.210971,-3.739383,4.331009,0.039706,0.067501,-0.020464,32.35,64.3575755181418
8602,-8.213962,-3.736991,4.315455,0.038026,0.067653,-0.020006,32.35,64.4421848068091
8612,-8.212168,-3.739982,4.306482,0.037415,0.067959,-0.019548,32.36,64.4875987660588
8622,-8.216354,-3.751946,4.307679,0.037263,0.065821,-0.016493,32.36,64.5030474828355
8632,-8.219944,-3.753741,4.296313,0.035888,0.063683,-0.016799,32.34,64.5716807989007
8642,-8.224131,-3.757928,4.292724,0.03543,0.061545,-0.016646,32.34,64.6038717087912
8652,-8.22473,-3.772883,4.27717,0.036499,0.058185,-0.016341,32.34,64.7009286112954
8662,-8.234302,-3.763312,4.282554,0.037721,0.054214,-0.015882,32.33,64.6846175751314
8672,-8.229516,-3.771089,4.281358,0.037874,0.049786,-0.017104,32.33,64.6880738804067
8682,-8.230712,-3.772883,4.278367,0.038485,0.045357,-0.018784,32.36,64.708031876562
8692,-8.242676,-3.781258,4.275376,0.038943,0.039859,-0.020922,32.36,64.7585614751321
8702,-8.240881,-3.791427,4.277769,0.040317,0.035736,-0.022144,32.37,64.7525641815265
8712,-8.255239,-3.78724,4.276572,0.041844,0.030391,-0.024129,32.37,64.7862488645562
8722,-8.257631,-3.789035,4.284349,0.041692,0.026114,-0.027947,32.34,64.7532172439855
8732,-8.263614,-3.791427,4.281956,0.04215,0.021075,-0.031612,32.34,64.7812059435013
8742,-8.266006,-3.78724,4.298108,0.041997,0.016035,-0.035125,32.32,64.698999283195
8752,-8.262416,-3.779463,4.296313,0.043219,0.011606,-0.039554,32.32,64.6924107192204
8762,-8.267202,-3.772285,4.302295,0.042608,0.00901,-0.043066,32.31,64.6649311915643
8772,-8.261221,-3.778865,4.294518,0.041233,0.004734,-0.048106,32.31,64.6984083344924
8782,-8.262416,-3.776472,4.320241,0.041081,0.001833,-0.052687,32.36,64.5661759574379
8792,-8.266603,-3.773481,4.323233,0.038943,-0.000305,-0.059865,32.36,64.55706563069
8802,-8.252846,-3.772285,4.326822,0.035583,-0.003512,-0.063683,32.33,64.506738096193
8812,-8.246264,-3.774678,4.332804,0.033903,-0.003512,-0.065973,32.36,64.4637143243989
8822,-8.250452,-3.77408,4.339384,0.032529,-0.003512,-0.068264,32.36,64.438631091112
8832,-8.235497,-3.765705,4.333402,0.030696,-0.002138,-0.069791,32.32,64.4273614246899
8842,-8.225926,-3.76391,4.351348,0.0281,-0.001222,-0.070708,32.32,64.3116812377195
8852,-8.221141,-3.76391,4.338786,0.026267,0.000611,-0.070097,32.34,64.3655806345522
8862,-8.217552,-3.753741,4.333402,0.024587,0.002138,-0.067959,32.34,64.3748005039791
8872,-8.207382,-3.762115,4.329813,0.022907,0.004429,-0.066432,32.39,64.3790544053261
8882,-8.2014,-3.746562,4.338786,0.021991,0.00733,-0.063072,32.39,64.3032345278328
8892,-8.199007,-3.752544,4.332206,0.021838,0.010537,-0.059101,32.32,64.3379672283237
8902,-8.188239,-3.745365,4.329215,0.022297,0.013592,-0.054672,32.32,64.3216920094024
8912,-8.183454,-3.735196,4.325027,0.022144,0.015577,-0.049633,32.36,64.3220205899665
8922,-8.189436,-3.732804,4.319045,0.022602,0.018021,-0.043982,32.36,64.3640305064529
8933,-8.185248,-3.736392,4.314857,0.024893,0.02138,-0.038332,32.34,64.3799433581999
8942,-8.179864,-3.737589,4.31067,0.025656,0.022602,-0.032376,32.34,64.3907021642127
8952,-8.191828,-3.741179,4.299304,0.026573,0.023671,-0.027184,32.38,64.4802567717809
8962,-8.199606,-3.724428,4.299304,0.029322,0.024282,-0.021838,32.38,64.4805913333855
8972,-8.201998,-3.734,4.289733,0.035277,0.023366,-0.01237,32.35,64.5453585150811
8982,-8.213365,-3.739383,4.297509,0.038026,0.021686,-0.009621,32.38,64.5360946017341
8992,-8.206783,-3.726821,4.287939,0.040775,0.021228,-0.00672,32.38,64.5580725361568
9002,-8.21157,-3.729214,4.298706,0.04383,0.018173,-0.004581,32.35,64.515489388125
9012,-8.220542,-3.729812,4.278965,0.046578,0.015119,-0.003054,32.35,64.638465647447
9022,-8.217552,-3.739383,4.295715,0.048869,0.012523,-0.003512,32.38,64.5547657896434
9032,-8.231908,-3.736991,4.285545,0.052229,0.009621,-0.003512,32.38,64.6370805837414
9042,-8.243275,-3.734,4.295117,0.054367,0.006872,-0.004429,32.4,64.6099454245777
9052,-8.239684,-3.73041,4.305286,0.056505,0.00336,-0.007025,32.4,64.545744591549
9062,-8.232506,-3.739383,4.313063,0.058032,0.000611,-0.01069,32.38,64.4986233306574
9072,-8.246264,-3.742374,4.311268,0.059712,-0.001985,-0.013439,32.38,64.541730387252
9082,-8.253444,-3.744768,4.331009,0.060628,-0.004123,-0.015882,32.32,64.4585189124952
9092,-8.243275,-3.742973,4.32742,0.061087,-0.005345,-0.0197,32.32,64.452385769129
9102,-8.237292,-3.743571,4.332804,0.060934,-0.006109,-0.023671,32.34,64.4118346404678
9112,-8.238488,-3.754937,4.342973,0.060934,-0.005803,-0.025809,32.34,64.3737880192367
9122,-8.219346,-3.749553,4.34417,0.060934,-0.004734,-0.029474,32.37,64.3190432253488
9132,-8.219346,-3.751348,4.364508,0.059254,-0.002902,-0.032834,32.37,64.2162242817729
9142,-8.198408,-3.764508,4.362714,0.058338,0.004429,-0.036957,32.35,64.1917360467855
9152,-8.202596,-3.755535,4.369893,0.055283,0.009621,-0.038179,32.37,64.1549620569992
9162,-8.2014,-3.762714,4.370491,0.054214,0.016188,-0.038485,32.37,64.1566294233842
9172,-8.194819,-3.758526,4.377071,0.052382,0.022602,-0.03879,32.37,64.1035150574567
9182,-8.183454,-3.768696,4.382454,0.049938,0.029474,-0.039401,32.37,64.0606371019149
9192,-8.188837,-3.765106,4.39083,0.048869,0.036957,-0.039401,32.37,64.0260640116444
9202,-8.175079,-3.77049,4.390232,0.046731,0.045204,-0.038026,32.37,64.0034734435438
9216,-8.187043,-3.766901,4.383651,0.04444,0.053756,-0.036499,32.36,64.060759130929
9222,-8.172088,-3.769892,4.378866,0.043982,0.06185,-0.034667,32.36,64.0545136483967
9232,-8.190632,-3.77408,4.368696,0.042455,0.069333,-0.032681,32.37,64.1533160560192
9242,-8.175079,-3.758526,4.362714,0.041081,0.076816,-0.030849,32.37,64.1326254904854
9252,-8.187043,-3.775874,4.354938,0.039095,0.083078,-0.028405,32.36,64.2179117412041
9262,-8.184649,-3.768696,4.362116,0.038637,0.089034,-0.025962,32.36,64.1680284972313
9272,-8.195418,-3.775276,4.339982,0.037721,0.092852,-0.023824,32.33,64.3132833096682
9282,-8.205587,-3.771089,4.346562,0.037415,0.09728,-0.021991,32.33,64.2979385783658
9292,-8.206783,-3.764508,4.332804,0.037568,0.099571,-0.020159,32.33,64.3647456234347
9302,-8.217552,-3.777669,4.312464,0.036346,0.10064,-0.018937,32.33,64.5074051780289
9312,-8.233105,-3.763312,4.305286,0.035888,0.099876,-0.018021,32.35,64.5645023377672
9322,-8.249854,-3.759125,4.289733,0.035583,0.096364,-0.017562,32.35,64.6778595076319
9332,-8.255836,-3.754339,4.282554,0.034972,0.092546,-0.018326,32.35,64.7233879461805
9342,-8.270791,-3.760919,4.283751,0.033598,0.086896,-0.020159,32.34,64.757003871556
9352,-8.276773,-3.759125,4.281358,0.03375,0.080329,-0.021838,32.34,64.7807841985708
9362,-8.279764,-3.739982,4.271188,0.03375,0.072998,-0.023671,32.38,64.8207132459617
9372,-8.289336,-3.751946,4.260421,0.032834,0.064599,-0.026267,32.38,64.9094020262515
9382,-8.279764,-3.744768,4.249653,0.03146,0.054978,-0.029169,32.39,64.9368115129758
9392,-8.297112,-3.742973,4.238287,0.030391,0.044593,-0.033139,32.39,65.0319946736742
9402,-8.298907,-3.729214,4.242475,0.029932,0.034361,-0.036499,32.37,65.0006602930049
9412,-8.300702,-3.743571,4.244269,0.029016,0.022755,-0.040164,32.37,65.0095369445301
9422,-8.30489,-3.73041,4.239483,0.028558,0.011454,-0.04383,32.37,65.0304705761915
9432,-8.295916,-3.733402,4.244868,0.027947,0.000611,-0.047953,32.37,64.9858454406936
9442,-8.300702,-3.725625,4.244868,0.027489,-0.010385,-0.051007,32.39,64.9886864360655
9452,-8.283354,-3.728018,4.25085,0.027031,-0.020922,-0.05452,32.39,64.9218655806369
9462,-8.28455,-3.731009,4.258626,0.027489,-0.030543,-0.057269,32.36,64.8872619358595
9472,-8.272586,-3.725625,4.259823,0.028253,-0.038485,-0.059712,32.36,64.8492374748268
9482,-8.248059,-3.729812,4.282554,0.028405,-0.046731,-0.06185,32.38,64.6813378628004
9492,-8.253444,-3.731009,4.284947,0.029322,-0.057727,-0.062461,32.34,64.6821735709834
9502,-8.229516,-3.729812,4.293322,0.030391,-0.060781,-0.062461,32.34,64.5842102791234
9512,-8.230114,-3.728018,4.308876,0.031612,-0.062308,-0.062461,32.35,64.5033168082055
9522,-8.219346,-3.732804,4.320241,0.034056,-0.062308,-0.060628,32.35,64.4252922313129
9532,-8.193025,-3.735196,4.325027,0.03543,-0.061087,-0.05849,32.38,64.3436628946712
9542,-8.200203,-3.726223,4.331607,0.03711,-0.058032,-0.055894,32.38,64.3166502090528
9552,-8.179267,-3.724428,4.346562,0.039248,-0.054367,-0.052534,32.32,64.1900494366302
9562,-8.169096,-3.74058,4.353143,0.041081,-0.049022,-0.04948,32.32,64.1496951782404
9572,-8.1679,-3.736392,4.354339,0.042608,-0.043066,-0.046884,32.36,64.1364331962022
9582,-8.167302,-3.741776,4.365705,0.045051,-0.035583,-0.042608,32.36,64.0820122041743
9592,-8.161918,-3.747759,4.366901,0.047495,-0.026725,-0.039554,32.34,64.0698234629749
9602,-8.169695,-3.738187,4.38066,0.048717,-0.018021,-0.036194,32.34,64.006617137082
9612,-8.168499,-3.736991,4.386044,0.050702,-0.009774,-0.034819,32.36,63.9748974354766
9622,-8.163115,-3.754937,4.38425,0.052229,-0.000305,-0.030543,32.36,63.9906461627078
9632,-8.188239,-3.751946,4.385446,0.05284,0.009621,-0.027947,32.38,64.0386343943481
9642,-8.173882,-3.747759,4.383651,0.053451,0.019242,-0.026114,32.38,64.0107802401646
9652,-8.185248,-3.75733,4.385446,0.053298,0.0281,-0.025351,32.37,64.0374468943054
9662,-8.190632,-3.771089,4.382454,0.053451,0.04444,-0.021686,32.37,64.0794379310805
9672,-8.191828,-3.77049,4.372883,0.052993,0.05116,-0.020617,32.38,64.1307387716836
9682,-8.196015,-3.766303,4.37408,0.052076,0.058032,-0.0197,32.38,64.1297064322812
9692,-8.197212,-3.775874,4.364508,0.051313,0.062461,-0.019548,32.38,64.1916185644334
9702,-8.199007,-3.777071,4.35075,0.050396,0.06689,-0.018479,32.34,64.267740212483
9712,-8.204989,-3.785445,4.351946,0.049022,0.070097,-0.017257,32.34,64.283755050078
9722,-8.210373,-3.783053,4.341777,0.048106,0.072235,-0.017104,32.38,64.3457367314598
9732,-8.209774,-3.777669,4.338188,0.047037,0.073457,-0.016799,32.38,64.3573092514484
9742,-8.210971,-3.777669,4.328616,0.045662,0.075136,-0.014661,32.34,64.4093363784809
9752,-8.216354,-3.78724,4.316054,0.044899,0.074831,-0.014966,32.34,64.4960513109985
9762,-8.216953,-3.78066,4.320241,0.043371,0.073151,-0.015272,32.33,64.4690156047414
9772,-8.219346,-3.791427,4.305884,0.042761,0.071319,-0.015119,32.33,64.5595213433144
9782,-8.218149,-3.79382,4.305286,0.041081,0.069486,-0.014508,32.33,64.5624014556568
9792,-8.226524,-3.783053,4.303492,0.040164,0.067348,-0.01405,32.33,64.5792722068108
9802,-8.230712,-3.791427,4.305286,0.03879,0.063988,-0.014966,32.36,64.5879280862434
9812,-8.232506,-3.782454,4.298108,0.038332,0.061545,-0.013744,32.36,64.6197741093482
9822,-8.222935,-3.779463,4.299304,0.036957,0.058796,-0.014355,32.38,64.5892169651026
9832,-8.234302,-3.786642,4.299902,0.036957,0.055741,-0.014661,32.38,64.6187935218245
9842,-8.232506,-3.776472,4.303492,0.036041,0.051007,-0.015577,32.38,64.5858681974348
9853,-8.231908,-3.772285,4.302894,0.034972,0.048411,-0.017104,32.39,64.5833418923776
9862,-8.238488,-3.766901,4.309474,0.034361,0.045968,-0.017104,32.39,64.5585709741608
9872,-8.243275,-3.765705,4.301697,0.034056,0.042913,-0.0197,32.37,64.6081439598721
9882,-8.238488,-3.765705,4.30409,0.033903,0.041539,-0.021075,32.37,64.5851268958519
9892,-8.244471,-3.765705,4.313063,0.033598,0.039706,-0.022602,32.36,64.5521960445382
9902,-8.247462,-3.751348,4.315455,0.033903,0.037721,-0.025656,32.36,64.5319337428916
9912,-8.245667,-3.74716,4.312464,0.033139,0.036346,-0.028405,32.37,64.5390867302186
9922,-8.262416,-3.756732,4.322634,0.032376,0.034972,-0.031154,32.37,64.5338173887888
9932,-8.260024,-3.742374,4.308277,0.03207,0.034208,-0.034972,32.36,64.5878848623735
9942,-8.260024,-3.727419,4.319045,0.03146,0.033292,-0.038026,32.36,64.517282095004
9952,-8.273782,-3.736392,4.325027,0.030849,0.031918,-0.040928,32.41,64.5263035199811
9962,-8.266006,-3.728018,4.319045,0.030238,0.030696,-0.044899,32.41,64.5312695793491
9972,-8.25464,-3.722036,4.305286,0.029932,0.030085,-0.047037,32.36,64.5707506947407
9982,-8.256434,-3.720839,4.310072,0.029474,0.027642,-0.050244,32.36,64.5488636748166
9992,-8.264212,-3.721437,4.311867,0.029322,0.025198,-0.052993,32.35,64.5576110019977
10002,-8.263614,-3.713661,4.311268,0.029474,0.023671,-0.054978,32.35,64.5515356552076
10012,-8.248658,-3.713063,4.301697,0.027642,0.018937,-0.057269,32.36,64.5668420832618
10022,-8.258827,-3.713063,4.302894,0.029169,0.016341,-0.056963,32.37,64.5834254350338
10032,-8.250452,-3.720839,4.291527,0.029016,0.012675,-0.057727,32.37,64.6312427046438
10042,-8.239087,-3.713063,4.291527,0.028863,0.009468,-0.055741,32.37,64.5979783207461
10052,-8.231908,-3.702295,4.279563,0.030238,0.005803,-0.054062,32.37,64.6329833119981
10062,-8.225328,-3.714259,4.28734,0.031307,0.002749,-0.051924,32.33,64.5900253878154
10072,-8.228318,-3.702893,4.287939,0.032223,-0.001222,-0.049175,32.33,64.5821353489333
10082,-8.217552,-3.706482,4.286144,0.033445,-0.004887,-0.045509,32.34,64.5708901912437
10092,-8.204989,-3.721437,4.278965,0.035125,-0.00733,-0.042302,32.34,64.5951019630773
10102,-8.197212,-3.716652,4.283751,0.036805,-0.010843,-0.037721,32.32,64.5479128082874
10112,-8.19781,-3.729214,4.277769,0.038637,-0.012981,-0.032834,32.32,64.5931252937856
10122,-8.202596,-3.723232,4.289733,0.041081,-0.016493,-0.028405,32.38,64.5357037655574
10132,-8.200802,-3.726223,4.290929,0.043066,-0.018173,-0.023824,32.38,64.5285235419688
10142,-8.178668,-3.732804,4.290331,0.044593,-0.020159,-0.018326,32.38,64.4885480446971
10152,-8.195418,-3.741776,4.298108,0.046731,-0.02138,-0.014203,32.38,64.4951407677274
10163,-8.192427,-3.742973,4.313661,0.047647,-0.02138,-0.00733,32.34,64.409112669664
10172,-8.193025,-3.749553,4.313661,0.049022,-0.022144,-0.00733,32.34,64.4172389847214
10182,-8.197212,-3.759723,4.320241,0.050549,-0.020922,-0.002138,32.37,64.4031321693344
10192,-8.197212,-3.766303,4.332206,0.052229,-0.019242,-0.001069,32.36,64.3481418268952
10202,-8.212766,-3.755535,4.337589,0.052382,-0.017257,-0.000458,32.36,64.3442880655638
10212,-8.215756,-3.762115,4.342973,0.052076,-0.015577,-0.000764,32.33,64.3300544344009
10222,-8.219346,-3.765106,4.345366,0.051771,-0.013134,-0.003207,32.33,64.3288925894058
10232,-8.23131,-3.766901,4.351946,0.049938,-0.009468,-0.005498,32.37,64.323790525768
10242,-8.213365,-3.762714,4.361517,0.048869,-0.005498,-0.008247,32.37,64.229835413605
10252,-8.228917,-3.772285,4.372883,0.046731,-0.000916,-0.011301,32.36,64.2164118017764
10262,-8.219346,-3.768098,4.374678,0.044899,0.003665,-0.015882,32.36,64.1812762092942
10272,-8.216354,-3.771687,4.386044,0.042608,0.00901,-0.02138,32.38,64.1199000799567
10282,-8.220542,-3.775874,4.379463,0.039706,0.015272,-0.027031,32.38,64.1674720661111
10292,-8.221141,-3.775874,4.38724,0.036652,0.020617,-0.032223,32.37,64.1289347155164
10302,-8.223534,-3.778267,4.390232,0.034056,0.025962,-0.037263,32.37,64.1214874741842
10312,-8.215756,-3.778865,4.391428,0.030543,0.03207,-0.043066,32.38,64.0983961428046
10322,-8.224131,-3.779463,4.386044,0.027794,0.038485,-0.048411,32.38,64.145543217018
10332,-8.225926,-3.79382,4.389633,0.025504,0.044288,-0.052687,32.36,64.1461097395831
10342,-8.213962,-3.775276,4.38066,0.02306,0.050244,-0.0562,32.36,64.1458467047421
10352,-8.212766,-3.784847,4.366901,0.020617,0.054978,-0.060781,32.34,64.2237444223253
10362,-8.21157,-3.784249,4.365107,0.017257,0.064141,-0.062766,32.36,64.2296468907305
10372,-8.210971,-3.771089,4.35733,0.01741,0.06857,-0.063988,32.36,64.2546391631829
10382,-8.20798,-3.779463,4.348955,0.016799,0.072693,-0.06353,32.34,64.2996776045337
10392,-8.206185,-3.77049,4.336991,0.016341,0.075747,-0.062003,32.34,64.3479876314981
10402,-8.205587,-3.777669,4.332804,0.014966,0.078802,-0.059254,32.38,64.3756538812615
10412,-8.20798,-3.777669,4.320241,0.016188,0.080481,-0.055894,32.38,64.4458341241598
10422,-8.200802,-3.774678,4.323233,0.017562,0.081398,-0.053145,32.36,64.4111949712898
10432,-8.199007,-3.771687,4.299304,0.018173,0.08094,-0.048411,32.36,64.527760140573
10442,-8.205587,-3.763312,4.295117,0.019853,0.080023,-0.043371,32.37,64.5555461511931
10452,-8.200802,-3.768696,4.289135,0.02138,0.07926,-0.03879,32.37,64.5813398414448
10462,-8.213365,-3.772285,4.277769,0.023518,0.076511,-0.032834,32.34,64.6719230779415
10472,-8.233105,-3.756134,4.269992,0.025656,0.072388,-0.028405,32.34,64.7396737948123
10482,-8.235497,-3.757928,4.265206,0.027642,0.068417,-0.022144,32.32,64.7715930295253
10492,-8.225328,-3.755535,4.267599,0.029322,0.063225,-0.017257,32.32,64.7341665413361
10502,-8.228318,-3.741776,4.272983,0.031918,0.057727,-0.013134,32.36,64.698965284829
10512,-8.246264,-3.737589,4.261019,0.032834,0.051007,-0.010232,32.36,64.796651644379
10522,-8.255239,-3.739383,4.256832,0.034056,0.044746,-0.006109,32.35,64.8400549162126
10532,-8.249256,-3.737589,4.251448,0.035277,0.02978,-0.003207,32.37,64.852891536544
10542,-8.263614,-3.732804,4.255635,0.035736,0.021686,-0.003971,32.37,64.8582151220425
10552,-8.260024,-3.731009,4.261617,0.036805,0.013897,-0.003818,32.38,64.8174880538972
10562,-8.272586,-3.722634,4.262814,0.037263,0.00672,-0.004887,32.38,64.8307781325612
10572,-8.274979,-3.725625,4.26401,0.036805,-0.000764,-0.006567,32.37,64.8328793439188
10582,-8.270193,-3.729812,4.274778,0.036805,-0.00733,-0.008858,32.37,64.7707795948805
10592,-8.273782,-3.731009,4.275974,0.037415,-0.014355,-0.012675,32.36,64.7737626987896
10602,-8.269596,-3.722634,4.282554,0.036957,-0.020769,-0.016035,32.36,64.7220878016754
10612,-8.268997,-3.725625,4.299902,0.036652,-0.025656,-0.0197,32.38,64.6342043156063
10622,-8.268398,-3.732205,4.307081,0.036194,-0.030238,-0.023518,32.38,64.6024705654661
10632,-8.256434,-3.73041,4.30409,0.03543,-0.033598,-0.027794,32.38,64.5893812034178
10642,-8.246264,-3.738187,4.305884,0.035583,-0.036041,-0.030849,32.38,64.5652628685631
10652,-8.243872,-3.729812,4.313661,0.036499,-0.037568,-0.03375,32.36,64.5112884318819
10662,-8.240283,-3.738786,4.325027,0.036957,-0.03879,-0.036805,32.36,64.4537440286641
10672,-8.245069,-3.738786,4.32742,0.037263,-0.038332,-0.039401,32.38,64.4521483047578
10682,-8.225926,-3.733402,4.331607,0.038179,-0.037415,-0.041386,32.38,64.3820601660915
10692,-8.204391,-3.744768,4.338188,0.038943,-0.035125,-0.041539,32.37,64.3112239076292
10702,-8.2014,-3.74716,4.347161,0.040164,-0.029169,-0.040164,32.37,64.2606553131049
10712,-8.186445,-3.748955,4.354938,0.042302,-0.024893,-0.04047,32.34,64.1885497950988
10722,-8.176873,-3.751946,4.36391,0.043677,-0.019853,-0.038943,32.37,64.1236687055762
10732,-8.177471,-3.760919,4.356134,0.045204,-0.014508,-0.035736,32.37,64.1744822547327
10742,-8.170892,-3.751348,4.367499,0.046578,-0.008552,-0.032223,32.36,64.0909361580476
10752,-8.17448,-3.752544,4.371687,0.047037,-0.001374,-0.029474,32.36,64.0787660911292
10762,-8.151151,-3.756732,4.366901,0.047647,0.006567,-0.025198,32.36,64.0546835336019
10772,-8.161918,-3.761517,4.366303,0.048411,0.013439,-0.021686,32.36,64.0873250797926
10782,-8.160124,-3.761517,4.360321,0.047647,0.020464,-0.016952,32.33,64.1141077345354
10792,-8.168499,-3.76391,4.367499,0.047037,0.028253,-0.013439,32.33,64.0986361579577
10802,-8.170293,-3.762714,4.371687,0.046884,0.035583,-0.009468,32.36,64.0798790008846
10812,-8.173284,-3.766901,4.366303,0.045509,0.04215,-0.00672,32.36,64.118804333574
10822,-8.186445,-3.769892,4.368696,0.043371,0.048564,-0.003971,32.35,64.1394617823351
10832,-8.187043,-3.754937,4.356732,0.041539,0.053909,-0.000764,32.35,64.1868710345512
10842,-8.19781,-3.763312,4.349553,0.039095,0.05849,0.000611,32.36,64.2569283308664
10852,-8.213365,-3.762115,4.353143,0.035888,0.062766,0.000916,32.36,64.2723023819182
10862,-8.221739,-3.761517,4.335197,0.033445,0.065668,0.000611,32.33,64.3829525827552
10872,-8.233105,-3.754937,4.349553,0.02978,0.069333,-0.002138,32.33,64.3278424650177
10882,-8.242078,-3.772883,4.339384,0.022907,0.069944,-0.004429,32.34,64.4186742110733
10892,-8.258827,-3.765705,4.325625,0.0197,0.068722,-0.006872,32.41,64.519536981101
10902,-8.260622,-3.756134,4.312464,0.015424,0.066737,-0.011454,32.41,64.5815677623894
10912,-8.273782,-3.759723,4.313661,0.011912,0.063835,-0.015577,32.37,64.6083290083443
10922,-8.279166,-3.751946,4.316054,0.009316,0.060018,-0.020159,32.37,64.6001433924902
10932,-8.270791,-3.763312,4.310072,0.007025,0.054672,-0.024587,32.38,64.6237782842208
10942,-8.283952,-3.754339,4.302295,0.004429,0.049633,-0.029627,32.38,64.6839837469532
10952,-8.275578,-3.756134,4.293921,0.002596,0.04444,-0.03375,32.34,64.7103516763473
10962,-8.286345,-3.753741,4.284349,0.000916,0.038179,-0.039248,32.34,64.7811300697541
10972,-8.282157,-3.754937,4.286144,0.000916,0.03207,-0.042913,32.4,64.7638106261144
10982,-8.279764,-3.750151,4.282554,-0.000305,0.025045,-0.048564,32.4,64.7722263484863
10992,-8.287541,-3.753741,4.280162,0.000458,0.018631,-0.051618,32.38,64.8053607261338
11002,-8.268398,-3.745964,4.27717,0.001374,0.012828,-0.055436,32.38,64.7706353398392
11012,-8.266603,-3.742374,4.283751,0.003818,0.007178,-0.057879,32.33,64.7290592979971
11022,-8.25165,-3.744768,4.280162,0.00504,0.001985,-0.059865,32.33,64.7167866561372
11032,-8.242676,-3.739383,4.284947,0.007178,-0.002749,-0.059712,32.39,64.6666259021895
11042,-8.242078,-3.733402,4.291527,0.008858,-0.007636,-0.060018,32.39,64.6252210225303
11052,-8.229516,-3.737589,4.299902,0.013744,-0.012828,-0.059254,32.35,64.5580837144498
11062,-8.209177,-3.735196,4.303492,0.016646,-0.015119,-0.057116,32.39,64.4914513530138
11072,-8.213365,-3.739982,4.305884,0.01909,-0.016341,-0.055436,32.39,64.493379619687
11082,-8.212766,-3.729812,4.302894,0.021991,-0.016035,-0.052229,32.37,64.4971113843003
11092,-8.203195,-3.75075,4.314259,0.024282,-0.015119,-0.049022,32.37,64.4382647264671
11102,-8.199007,-3.745964,4.325625,0.026267,-0.014355,-0.045815,32.35,64.365169186656
11112,-8.199007,-3.746562,4.322634,0.0281,-0.012065,-0.042302,32.35,64.3812399492011
11122,-8.196614,-3.742374,4.332804,0.029627,-0.009774,-0.03879,32.38,64.3189840065688
11132,-8.184649,-3.732804,4.328616,0.031001,-0.007178,-0.034514,32.38,64.3036907458304
11142,-8.19123,-3.73041,4.339982,0.032834,-0.002902,-0.030543,32.37,64.2573841899705
11152,-8.196015,-3.735196,4.34417,0.033292,-0.000305,-0.026725,32.37,64.251543834111
11162,-8.188239,-3.732804,4.342375,0.033903,0.004276,-0.023518,32.33,64.2407174635215
11172,-8.19123,-3.736991,4.34058,0.033598,0.007941,-0.020769,32.33,64.2610923002016
11182,-8.206783,-3.736392,4.341777,0.034361,0.01237,-0.017104,32.36,64.2894873437478
11192,-8.193025,-3.736392,4.34417,0.034208,0.016188,-0.014813,32.36,64.2460057924961
11202,-8.196614,-3.748357,4.336991,0.033445,0.019548,-0.013439,32.4,64.3035414737007
11212,-8.209774,-3.753741,4.341777,0.033445,0.022907,-0.011301,32.4,64.3141091192654
11222,-8.204989,-3.762714,4.337589,0.032529,0.029016,-0.008705,32.34,64.3341771188293
11232,-8.2014,-3.757928,4.334,0.032681,0.031307,-0.008094,32.36,64.3396615466859
11242,-8.193623,-3.749553,4.341179,0.031918,0.033445,-0.007025,32.36,64.2764033603547
11252,-8.209774,-3.762115,4.334,0.03207,0.035277,-0.005651,32.39,64.362838248126
11262,-8.22473,-3.768098,4.320241,0.031918,0.036194,-0.006109,32.39,64.4735138960749
11272,-8.221739,-3.768098,4.31725,0.032223,0.036957,-0.005345,32.38,64.4822456855212
11282,-8.215756,-3.772285,4.319643,0.032987,0.036957,-0.004276,32.38,64.4608002518712
11292,-8.209177,-3.769892,4.307081,0.033903,0.036652,-0.004429,32.34,64.5084705400992
11302,-8.213365,-3.781258,4.305884,0.034208,0.035583,-0.004276,32.34,64.5357120276615
11312,-8.23131,-3.782454,4.309474,0.034361,0.034819,-0.003818,32.35,64.558461943267
11322,-8.213365,-3.778267,4.302295,0.03543,0.032376,-0.00336,32.35,64.551178669298
11332,-8.215756,-3.780062,4.296313,0.036194,0.031001,-0.003665,32.37,64.5892755090784
11342,-8.222935,-3.772285,4.293921,0.03711,0.027794,-0.00336,32.37,64.6096819812396
11352,-8.22473,-3.783651,4.298108,0.037568,0.025809,-0.003818,32.39,64.6036863438932
11362,-8.22772,-3.782454,4.301099,0.038179,0.022602,-0.004276,32.39,64.5936766463171
11372,-8.222337,-3.784847,4.301697,0.038179,0.021228,-0.004734,32.34,64.5810461791671
11382,-8.225328,-3.777669,4.308277,0.037568,0.018479,-0.004429,32.34,64.5463883751793
11392,-8.231908,-3.77049,4.322036,0.038179,0.015119,-0.006567,32.38,64.4827749419985
11402,-8.234302,-3.783053,4.319045,0.036652,0.013286,-0.007789,32.36,64.5164109474054
11412,-8.242676,-3.769294,4.319045,0.034667,0.012523,-0.009468,32.36,64.5210255676916
11422,-8.236693,-3.76391,4.335197,0.034056,0.011606,-0.012217,32.38,64.4189626182642
11432,-8.239684,-3.75733,4.329813,0.032529,0.011606,-0.014661,32.38,64.4466536248471
11442,-8.243872,-3.753741,4.336392,0.030696,0.013134,-0.016799,32.39,64.4185068889855
11452,-8.243872,-3.754339,4.339982,0.0281,0.013286,-0.019853,32.39,64.4006466578663
11462,-8.25464,-3.757928,4.351348,0.025504,0.013286,-0.022297,32.32,64.3700419147456
11472,-8.251051,-3.756134,4.342375,0.023518,0.014508,-0.026573,32.32,64.406268489004
11482,-8.248658,-3.745365,4.349553,0.020617,0.016341,-0.029474,32.35,64.3530155563644
11492,-8.240881,-3.744169,4.348357,0.018173,0.017868,-0.033139,32.35,64.3404592008079
11502,-8.255836,-3.733402,4.341777,0.015577,0.020159,-0.036346,32.36,64.3969406109163
11512,-8.244471,-3.727419,4.343571,0.013134,0.021838,-0.039706,32.36,64.3560771250591
11522,-8.243275,-3.73041,4.339982,0.011454,0.023671,-0.041692,32.36,64.3749035342742
11532,-8.243872,-3.725027,4.329813,0.010079,0.025198,-0.044899,32.36,64.4231481398595
11542,-8.252247,-3.726223,4.33041,0.008552,0.026573,-0.046884,32.33,64.440097852862
11552,-8.240881,-3.726821,4.324429,0.007941,0.026725,-0.049175,32.33,64.4460022483012
11562,-8.25165,-3.722036,4.319045,0.007025,0.027336,-0.051771,32.37,64.4930809563479
11572,-8.246863,-3.714259,4.311268,0.007178,0.026573,-0.051618,32.35,64.5146023345496
11582,-8.243872,-3.717848,4.299902,0.008094,0.025198,-0.052382,32.35,64.5702250402971
11592,-8.218747,-3.704688,4.299304,0.00901,0.023518,-0.051618,32.37,64.5035779168813
11602,-8.225926,-3.722634,4.286742,0.011301,0.021686,-0.051465,32.37,64.6029478650626
11612,-8.217552,-3.72383,4.290331,0.012828,0.01909,-0.049938,32.39,64.5668029899328
11622,-8.219944,-3.714857,4.291527,0.014661,0.016493,-0.047953,32.39,64.5568630702274
11632,-8.228917,-3.734,4.278367,0.017257,0.01405,-0.045051,32.38,64.6645302746555
11642,-8.212168,-3.725625,4.271188,0.020311,0.010232,-0.041844,32.38,64.6558077016961
11652,-8.220542,-3.716652,4.284349,0.02306,0.008094,-0.038943,32.39,64.5972136119951
11662,-8.214561,-3.720839,4.282554,0.025351,0.003971,-0.035736,32.39,64.5973539724291
11672,-8.21157,-3.72383,4.280162,0.029016,0.001069,-0.031612,32.39,64.6060896617191
11682,-8.216354,-3.738187,4.285545,0.031154,-0.002138,-0.029169,32.39,64.6035165279156
11692,-8.210373,-3.74058,4.290331,0.032834,-0.006109,-0.025351,32.35,64.567771128545
11702,-8.2014,-3.731009,4.287939,0.035736,-0.007483,-0.022449,32.35,64.5502588974704
11712,-8.202596,-3.733402,4.298108,0.038026,-0.009468,-0.0197,32.34,64.5026964091841
11722,-8.213365,-3.734598,4.296313,0.039095,-0.010996,-0.017104,32.34,64.537400806695
11732,-8.204391,-3.743571,4.316054,0.040775,-0.012523,-0.016035,32.37,64.424299308686
11742,-8.192427,-3.754937,4.326224,0.041386,-0.012523,-0.012675,32.37,64.3564959104369
11752,-8.198408,-3.755535,4.32742,0.040928,-0.010537,-0.012217,32.37,64.364416651365
11762,-8.202596,-3.760919,4.338786,0.041081,-0.009316,-0.012217,32.36,64.3207576765189
11772,-8.203195,-3.762714,4.342973,0.040623,-0.007025,-0.012065,32.36,64.3023755364434
11782,-8.202596,-3.762714,4.356134,0.040012,-0.00336,-0.012523,32.36,64.2332178657352
11792,-8.19781,-3.775874,4.362116,0.038179,0.001069,-0.012828,32.36,64.205278174167
11802,-8.195418,-3.768098,4.355535,0.036805,0.00504,-0.014508,32.36,64.2256709676949
11812,-8.201998,-3.771089,4.378268,0.036041,0.010996,-0.016035,32.36,64.1267133845076
11822,-8.199007,-3.763312,4.369295,0.034056,0.01573,-0.018173,32.42,64.1579842695617
11832,-8.187043,-3.769294,4.375276,0.032223,0.021533,-0.019395,32.42,64.1063315973736
11842,-8.202596,-3.779463,4.383053,0.031154,0.029169,-0.021075,32.36,64.1122141112196
11852,-8.206185,-3.779463,4.376472,0.029474,0.034514,-0.024587,32.36,64.1541282255637
11862,-8.204989,-3.775276,4.376472,0.029016,0.041081,-0.026267,32.34,64.1470669318151
11872,-8.197212,-3.784249,4.365107,0.027489,0.047342,-0.026725,32.34,64.1972611439253
11882,-8.206185,-3.781856,4.362116,0.027031,0.054672,-0.0281,32.35,64.230399507841
11892,-8.199007,-3.792624,4.363312,0.02642,0.060628,-0.028863,32.35,64.2192747302692
11902,-8.208578,-3.781856,4.353741,0.025962,0.065515,-0.029016,32.39,64.278871894663
11912,-8.203793,-3.784847,4.339982,0.025962,0.074526,-0.02978,32.39,64.342056766687
11922,-8.212168,-3.779463,4.335794,0.025656,0.076969,-0.030543,32.37,64.376875760845
11932,-8.219346,-3.776472,4.32742,0.026267,0.078649,-0.030085,32.37,64.4330462685778
11942,-8.222337,-3.767499,4.324429,0.026878,0.079871,-0.029627,32.37,64.4459422848187
11952,-8.222337,-3.771089,4.307081,0.026725,0.079871,-0.029932,32.38,64.539137014156
11962,-8.228318,-3.77049,4.299304,0.027184,0.07926,-0.028405,32.38,64.592037979471
11972,-8.246264,-3.768098,4.292126,0.027794,0.076664,-0.027031,32.37,64.6666254197758
11982,-8.236095,-3.765705,4.280162,0.027336,0.072693,-0.025504,32.37,64.7034078668076
11992,-8.249256,-3.771687,4.279563,0.027947,0.067348,-0.02474,32.38,64.7417914747294
12003,-8.256434,-3.759125,4.263412,0.027336,0.062003,-0.024282,32.38,64.8284938026519
12012,-8.269596,-3.757928,4.271787,0.027184,0.055131,-0.023518,32.34,64.8131123520536
12022,-8.263614,-3.760321,4.271188,0.027031,0.048258,-0.02306,32.34,64.8053814682519
12032,-8.268398,-3.756134,4.256233,0.02642,0.040164,-0.022449,32.37,64.8890643935307
12042,-8.266603,-3.741776,4.255635,0.026267,0.030849,-0.022449,32.37,64.8738084521015
12052,-8.272586,-3.75075,4.24726,0.025809,0.022602,-0.023213,32.36,64.939343212574
12062,-8.2678,-3.74716,4.256233,0.02474,0.012675,-0.023366,32.36,64.8787506464452
12072,-8.278568,-3.743571,4.255635,0.024435,0.003818,-0.023213,32.37,64.9020367491843
12082,-8.269596,-3.725027,4.250251,0.023518,-0.004581,-0.025198,32.37,64.8915757243598
12092,-8.275578,-3.741776,4.265206,0.022449,-0.021686,-0.026878,32.36,64.8441539102608
12102,-8.268398,-3.732804,4.271188,0.022297,-0.028711,-0.027184,32.36,64.7883485685191
12112,-8.266006,-3.726821,4.27059,0.02138,-0.03543,-0.028558,32.36,64.7801407123647
12122,-8.266006,-3.725625,4.271188,0.021686,-0.041386,-0.030543,32.37,64.7758507236246
12132,-8.245069,-3.73041,4.281956,0.022297,-0.046578,-0.032223,32.37,64.6783671551154
12142,-8.243275,-3.726821,4.304688,0.022907,-0.050396,-0.032681,32.37,64.5532381141608
12152,-8.239087,-3.728018,4.301099,0.023976,-0.054062,-0.033445,32.37,64.5636124626566
12162,-8.22473,-3.726821,4.297509,0.025504,-0.055589,-0.034361,32.33,64.548787511852
12172,-8.230712,-3.719643,4.315455,0.026725,-0.055436,-0.034056,32.33,64.4621639618622
12182,-8.21157,-3.720241,4.325625,0.028558,-0.054672,-0.034208,32.35,64.3671097312482
12192,-8.203793,-3.734598,4.334,0.030696,-0.052993,-0.034819,32.35,64.3210179311382
12202,-8.204989,-3.729214,4.348357,0.032987,-0.050091,-0.033903,32.38,64.2441035834152
12212,-8.185846,-3.731009,4.353741,0.034514,-0.045968,-0.033292,32.38,64.174752234226
12222,-8.179267,-3.726821,4.347161,0.036957,-0.041233,-0.032987,32.38,64.1894333176837
12232,-8.17448,-3.734,4.356732,0.038943,-0.034972,-0.032529,32.38,64.136567764909
12242,-8.182258,-3.731607,4.369295,0.041692,-0.027336,-0.031001,32.36,64.0869900746718
12252,-8.1679,-3.741776,4.385446,0.043524,-0.020617,-0.031307,32.36,63.9816160502804
12262,-8.176275,-3.738786,4.389035,0.046426,-0.003665,-0.027642,32.39,63.9791500384901
12272,-8.164909,-3.747759,4.389035,0.047037,0.005651,-0.026725,32.38,63.9625689370158
12282,-8.164311,-3.738187,4.398606,0.048106,0.014661,-0.024435,32.38,63.9018903789424
12292,-8.166704,-3.732804,4.389633,0.048564,0.023671,-0.023366,32.4,63.9479241483822
12302,-8.161918,-3.739383,4.383651,0.048258,0.033292,-0.023366,32.4,63.9746783177081
12313,-8.177471,-3.745964,4.392624,0.047647,0.042608,-0.021686,32.33,63.9709212123109
12322,-8.173882,-3.751348,4.391428,0.046578,0.05116,-0.02138,32.33,63.9745150997363
12332,-8.172686,-3.751946,4.38066,0.045509,0.059407,-0.020769,32.36,64.0278336989595
12342,-8.185846,-3.762115,4.38425,0.042913,0.066432,-0.020617,32.36,64.0499566613316
12352,-8.190034,-3.772883,4.373481,0.04047,0.073457,-0.019548,32.39,64.1260944297868
12362,-8.202596,-3.759125,4.37408,0.038485,0.079871,-0.018631,32.39,64.1371547194366
12372,-8.203793,-3.765705,4.360321,0.036041,0.084605,-0.018479,32.38,64.2174690003095
12382,-8.204391,-3.768098,4.354339,0.03375,0.088423,-0.018784,32.38,64.2520927360952
12392,-8.20798,-3.766303,4.342973,0.031307,0.091477,-0.018631,32.38,64.3168688103657
12402,-8.209774,-3.768098,4.335794,0.029016,0.093462,-0.018326,32.38,64.3597603621352
12412,-8.208578,-3.772285,4.320241,0.02642,0.093462,-0.018479,32.4,64.441622747191
12422,-8.217552,-3.768098,4.308277,0.02474,0.093921,-0.018631,32.4,64.5191944748863
12432,-8.2349,-3.762714,4.298706,0.022755,0.089034,-0.018937,32.37,64.6018703890265
12442,-8.235497,-3.769892,4.28734,0.019853,0.085827,-0.018631,32.34,64.6692290906558
12452,-8.232506,-3.777071,4.274179,0.018784,0.081551,-0.018784,32.34,64.737946133638
12462,-8.246863,-3.772285,4.279563,0.018173,0.076816,-0.020159,32.36,64.7370920942644
12472,-8.242676,-3.772285,4.268795,0.018326,0.070555,-0.020617,32.36,64.7834861485271
12482,-8.249256,-3.762115,4.271787,0.018173,0.064752,-0.020159,32.33,64.7722957565727
12492,-8.249854,-3.769892,4.25743,0.017715,0.058643,-0.021075,32.33,64.8557590529922
12502,-8.253444,-3.753741,4.264608,0.018631,0.051924,-0.021838,32.34,64.8102616197209
12512,-8.273782,-3.774678,4.259823,0.018631,0.044593,-0.022907,32.34,64.9009851857768
12522,-8.266006,-3.766901,4.261019,0.020006,0.037874,-0.023518,32.39,64.869847035625
12532,-8.273185,-3.762115,4.262215,0.020922,0.030696,-0.023976,32.39,64.8746979815146
12542,-8.285149,-3.761517,4.265206,0.02138,0.023518,-0.026573,32.36,64.8850283690121
12552,-8.279166,-3.762115,4.27059,0.022907,0.016799,-0.029627,32.36,64.8446394997969
12562,-8.27139,-3.759125,4.27059,0.022297,0.01069,-0.031307,32.38,64.824464146581
12572,-8.279764,-3.755535,4.280162,0.023518,0.004276,-0.033598,32.38,64.7899656111387
12582,-8.28156,-3.760321,4.28076,0.023366,-0.002291,-0.036805,32.39,64.7956539720271
12592,-8.277372,-3.747759,4.295117,0.024129,-0.007636,-0.041081,32.39,64.6997448399517
12602,-8.269596,-3.75075,4.299902,0.023976,-0.011759,-0.044899,32.39,64.660821995322
12612,-8.261818,-3.746562,4.309474,0.023976,-0.020617,-0.047342,32.32,64.5899497825269
12622,-8.270791,-3.741776,4.302894,0.024282,-0.02474,-0.049938,32.32,64.6390179544595
12632,-8.271988,-3.736392,4.30409,0.023671,-0.027031,-0.052534,32.42,64.63010049097
12642,-8.256434,-3.735795,4.308876,0.023518,-0.028863,-0.053603,32.42,64.5701332564572
12652,-8.259426,-3.732205,4.317849,0.023671,-0.030849,-0.054367,32.38,64.5269418236997
12662,-8.248658,-3.724428,4.32742,0.023518,-0.032681,-0.055589,32.38,64.4456229340702
12672,-8.239087,-3.731009,4.31725,0.022449,-0.033292,-0.055436,32.37,64.4832570345814
12682,-8.22473,-3.722036,4.323831,0.022297,-0.033598,-0.054978,32.37,64.4078870496107
12692,-8.230712,-3.734598,4.324429,0.022602,-0.033445,-0.05452,32.35,64.4310690670212
12702,-8.221141,-3.731607,4.329813,0.022449,-0.032681,-0.054062,32.35,64.3787010829158
12712,-8.194819,-3.734,4.324429,0.022449,-0.031612,-0.050855,32.38,64.3495765107036
12722,-8.193025,-3.732205,4.326224,0.02306,-0.029474,-0.047495,32.38,64.3343932215942
12732,-8.190034,-3.746562,4.328018,0.024129,-0.027642,-0.044135,32.39,64.333170727599
12742,-8.17807,-3.736392,4.329215,0.025351,-0.025198,-0.040317,32.39,64.2894012131954
12752,-8.164909,-3.736392,4.335197,0.026725,-0.022297,-0.034972,32.41,64.2285927196535
12762,-8.172686,-3.74716,4.336991,0.028711,-0.019548,-0.031154,32.41,64.2481555818962
12772,-8.15773,-3.752544,4.329215,0.030696,-0.016646,-0.02642,32.39,64.2600814675858
12782,-8.158329,-3.75733,4.331009,0.035277,-0.009163,-0.015882,32.32,64.2571474052478
12792,-8.152946,-3.744169,4.33041,0.037415,-0.005803,-0.010385,32.32,64.234296957671
12802,-8.160124,-3.750151,4.31725,0.040317,-0.00168,-0.005498,32.38,64.3249892437683
12812,-8.158927,-3.758526,4.329215,0.042455,0.002138,-0.000764,32.38,64.2690364737139
12822,-8.163713,-3.757928,4.332206,0.044899,0.006109,0.003207,32.38,64.2637777868811
12832,-8.164909,-3.760321,4.335197,0.047037,0.01069,0.006261,32.38,64.2535128610918
12842,-8.163115,-3.756732,4.341179,0.0478,0.013897,0.008705,32.36,64.2147712871655
12852,-8.164909,-3.766901,4.34417,0.050396,0.018631,0.011148,32.36,64.2140068941798
12862,-8.184649,-3.756732,4.351946,0.051924,0.023366,0.011606,32.36,64.2079912514754
12872,-8.189436,-3.761517,4.349553,0.052076,0.027489,0.012065,32.36,64.2361401734991
12882,-8.198408,-3.764508,4.355535,0.051924,0.03146,0.011606,32.37,64.2287001988217
12892,-8.206185,-3.765705,4.357928,0.052229,0.03543,0.010385,32.37,64.2351873397895
12902,-8.21157,-3.772285,4.354938,0.051618,0.040164,0.007483,32.37,64.2695344652985
12912,-8.206783,-3.769892,4.365705,0.050244,0.044288,0.005803,32.37,64.2008693760851
12922,-8.215158,-3.757928,4.367499,0.049022,0.048717,0.003512,32.34,64.1981769050541
12932,-8.228917,-3.769892,4.366901,0.047037,0.052534,-0.001222,32.34,64.2446488901947
12942,-8.226524,-3.763312,4.366303,0.044746,0.057116,-0.00504,32.38,64.2355397048568
12952,-8.240881,-3.77049,4.367499,0.041539,0.063988,-0.013897,32.38,64.269118831811
12962,-8.239087,-3.77049,4.378866,0.03543,0.067042,-0.018326,32.33,64.2067864228655
12972,-8.255239,-3.753741,4.369893,0.032529,0.070097,-0.023824,32.34,64.2719483473742
12982,-8.250452,-3.753142,4.371089,0.028711,0.072846,-0.027489,32.34,64.2544305285614
12992,-8.246264,-3.76391,4.35733,0.025809,0.076053,-0.031612,32.35,64.3266501515181
13002,-8.259426,-3.759723,4.352544,0.02306,0.07758,-0.03543,32.35,64.3764607380671
13012,-8.258228,-3.748955,4.348357,0.020006,0.078802,-0.039401,32.37,64.3843021129461
13022,-8.249256,-3.755535,4.338188,0.017104,0.080329,-0.041997,32.37,64.4231644562213
13032,-8.253444,-3.74716,4.334,0.014813,0.081245,-0.043524,32.34,64.4455597390543
13042,-8.250452,-3.750151,4.319045,0.012675,0.08094,-0.045968,32.34,64.5188998963708
13052,-8.240283,-3.751946,4.315455,0.011912,0.079412,-0.046884,32.37,64.516491739009
13062,-8.236095,-3.742973,4.301099,0.010385,0.07758,-0.047037,32.37,64.5720914004426
13072,-8.251051,-3.742374,4.295117,0.009316,0.07422,-0.047953,32.35,64.6357693230253
13082,-8.252846,-3.74058,4.283751,0.009316,0.072388,-0.047495,32.35,64.6966708467839
13092,-8.237292,-3.729812,4.278367,0.009316,0.067653,-0.046273,32.34,64.6789882419394
13102,-8.249256,-3.732804,4.259224,0.010385,0.062919,-0.044746,32.34,64.8077838023094
13112,-8.250452,-3.742973,4.25384,0.011301,0.05681,-0.044135,32.38,64.8485541086693
13122,-8.258228,-3.735196,4.253242,0.012981,0.051313,-0.040775,32.38,64.8610747300559
13132,-8.256434,-3.739982,4.24726,0.01573,0.036194,-0.03879,32.38,64.8928971572671
13142,-8.25165,-3.735795,4.246064,0.018021,0.027794,-0.037721,32.36,64.8843115683387
13152,-8.262416,-3.724428,4.243671,0.019548,0.017868,-0.036652,32.36,64.9091873954779
13162,-8.2678,-3.734,4.243073,0.022449,0.008858,-0.034819,32.33,64.9337417533648
13172,-8.273782,-3.720241,4.245465,0.023976,0.000458,-0.03543,32.33,64.9208648019947
13182,-8.268398,-3.725625,4.249653,0.025351,-0.008094,-0.034972,32.38,64.8926182693977
13192,-8.27139,-3.729812,4.252046,0.027031,-0.016952,-0.034208,32.38,64.8910206102605
13202,-8.260622,-3.723232,4.251448,0.028558,-0.025198,-0.03375,32.36,64.863705123256
13212,-8.255836,-3.726223,4.25743,0.02978,-0.033292,-0.033598,32.36,64.8250841713955
13222,-8.253444,-3.725027,4.265805,0.030696,-0.040928,-0.034667,32.36,64.7751919016574
13233,-8.256434,-3.731607,4.274179,0.031307,-0.047189,-0.035583,32.36,64.7451091451892
13242,-8.26481,-3.731607,4.280162,0.03207,-0.054062,-0.036194,32.36,64.7327991183768
13252,-8.24148,-3.732205,4.290929,0.033292,-0.058185,-0.037263,32.36,64.6257659735247
13262,-8.252846,-3.733402,4.297509,0.03375,-0.062614,-0.038485,32.39,64.6183572553915
13272,-8.237292,-3.736392,4.301697,0.03375,-0.065973,-0.039095,32.39,64.5649964601642
13282,-8.225926,-3.749553,4.326224,0.033445,-0.06689,-0.039095,32.4,64.4263384301205
13292,-8.222935,-3.74058,4.332206,0.033598,-0.066584,-0.039248,32.4,64.3795803106287
13302,-8.200802,-3.744169,4.334598,0.033903,-0.064446,-0.038943,32.41,64.3210303469703
13312,-8.196015,-3.76391,4.348955,0.034667,-0.060323,-0.038485,32.38,64.2565764614262
13322,-8.183454,-3.764508,4.36391,0.03543,-0.056047,-0.03711,32.38,64.1517102910539
13332,-8.166704,-3.758526,4.366901,0.034972,-0.050549,-0.036041,32.35,64.0919975702526
13342,-8.160124,-3.771089,4.376472,0.03543,-0.043219,-0.034208,32.35,64.0408742499019
13352,-8.168499,-3.76391,4.373481,0.036041,-0.03543,-0.031918,32.36,64.0678076549266
13362,-8.143373,-3.752544,4.381856,0.036652,-0.026725,-0.029627,32.36,63.9553315562977
13372,-8.143373,-3.77408,4.38724,0.037263,-0.017562,-0.027184,32.36,63.9503390075191
13382,-8.143971,-3.78066,4.389035,0.037874,-0.006567,-0.023824,32.36,63.949430136271
13392,-8.139186,-3.776472,4.394419,0.038943,0.004123,-0.020769,32.38,63.9063194975311
13402,-8.139186,-3.771089,4.393821,0.039706,0.015272,-0.017868,32.38,63.9036872909801
13412,-8.136793,-3.776472,4.396811,0.040775,0.026114,-0.014661,32.37,63.888523234523
13422,-8.143971,-3.77408,4.389035,0.041386,0.036957,-0.011759,32.37,63.9424577253157
13432,-8.153543,-3.769892,4.389633,0.041997,0.047953,-0.00901,32.37,63.9568173796642
13442,-8.155936,-3.785445,4.384848,0.041233,0.058185,-0.007941,32.37,64.0033396557579
13452,-8.164909,-3.782454,4.394419,0.041997,0.067959,-0.004581,32.36,63.9713794929959
13462,-8.17807,-3.78066,4.381258,0.042302,0.076358,-0.003665,32.36,64.0670975719864
13472,-8.19123,-3.781856,4.369893,0.041233,0.092852,-0.002291,32.39,64.1566273136586
13482,-8.206185,-3.769294,4.36391,0.04047,0.099113,-0.001222,32.39,64.2081298702732
13492,-8.21157,-3.775874,4.356134,0.039859,0.104611,-0.001833,32.39,64.267097571537
13502,-8.218149,-3.771687,4.341777,0.038637,0.108123,-0.003207,32.38,64.3514644577327
13512,-8.23131,-3.776472,4.339384,0.037415,0.10965,-0.00504,32.38,64.3982417600388
13522,-8.240283,-3.776472,4.339384,0.034819,0.110719,-0.008399,32.36,64.4183359253343
13532,-8.256434,-3.772285,4.320839,0.033139,0.109956,-0.010843,32.36,64.5455214993658
13542,-8.2678,-3.777071,4.313661,0.031307,0.108581,-0.013592,32.38,64.6126003831977
13552,-8.270193,-3.766303,4.297509,0.029932,0.105527,-0.016188,32.38,64.690172591594
13562,-8.277969,-3.754339,4.296911,0.026878,0.10064,-0.01909,32.36,64.6984406206438
13572,-8.285149,-3.75075,4.276572,0.025504,0.09499,-0.022907,32.36,64.815598000109
13582,-8.289336,-3.761517,4.272385,0.023213,0.088117,-0.025809,32.38,64.8572109294402
13592,-8.289336,-3.751946,4.262814,0.020922,0.079565,-0.029474,32.38,64.8970442116209
13602,-8.288139,-3.760321,4.256832,0.018784,0.071013,-0.032987,32.37,64.9336595537676
13612,-8.291729,-3.751946,4.254438,0.016952,0.06185,-0.035888,32.37,64.945576459312
13622,-8.286943,-3.748955,4.24726,0.016035,0.051924,-0.038026,32.37,64.9691716561053
13632,-8.289336,-3.741179,4.247859,0.015577,0.041997,-0.039859,32.37,64.9636072094483
13642,-8.285748,-3.741776,4.243671,0.015272,0.021228,-0.043219,32.37,64.97796683622
13652,-8.268398,-3.74058,4.239483,0.014813,0.010996,-0.043524,32.37,64.9602314685804
13662,-8.272586,-3.733402,4.250251,0.015424,0.001374,-0.044288,32.37,64.9065391210449
13672,-8.274381,-3.739982,4.252644,0.017104,-0.007483,-0.044288,32.36,64.9046834695577
13682,-8.259426,-3.736392,4.247859,0.01909,-0.016188,-0.042913,32.36,64.8928168359136
13692,-8.256434,-3.729214,4.255037,0.020006,-0.023671,-0.042455,32.33,64.84180576566
13702,-8.24148,-3.725027,4.259224,0.020769,-0.030238,-0.041386,32.33,64.782681125652
13712,-8.246264,-3.731607,4.277769,0.023366,-0.035888,-0.040623,32.38,64.703900483781
13722,-8.239684,-3.732804,4.27717,0.025351,-0.041386,-0.039248,32.38,64.693543207743
13732,-8.233105,-3.727419,4.286144,0.027947,-0.044746,-0.038026,32.39,64.6269575218691
13742,-8.213365,-3.731607,4.298108,0.02978,-0.046884,-0.036041,32.39,64.5250578430951
13752,-8.225328,-3.728018,4.302295,0.031918,-0.048106,-0.034972,32.34,64.5265917755786
13762,-8.225926,-3.729812,4.301099,0.03375,-0.049175,-0.034056,32.34,64.5359420393664
13772,-8.215158,-3.728018,4.319045,0.036652,-0.047189,-0.032529,32.39,64.4171496441353
13782,-8.210971,-3.726223,4.338188,0.037721,-0.045815,-0.030696,32.39,64.3070213525107
13792,-8.208578,-3.742973,4.33041,0.03879,-0.042761,-0.030085,32.38,64.3589604396042
13802,-8.190632,-3.737589,4.344768,0.039554,-0.039554,-0.029016,32.38,64.2387340769791
13812,-8.18764,-3.733402,4.355535,0.040164,-0.034972,-0.028405,32.37,64.1720511802117
13822,-8.195418,-3.735795,4.36391,0.042302,-0.024587,-0.028253,32.36,64.1490224320439
13832,-8.184649,-3.738187,4.364508,0.042302,-0.018173,-0.027489,32.36,64.1239447162617
13842,-8.193025,-3.735196,4.368098,0.042608,-0.012981,-0.027794,32.4,64.1213893881422
13852,-8.192427,-3.742973,4.365705,0.041844,-0.006567,-0.027794,32.4,64.1404221553888
13862,-8.197212,-3.746562,4.369295,0.041081,0.000153,-0.027184,32.39,64.1365229160968
13872,-8.201998,-3.737589,4.377071,0.039401,0.005345,-0.027642,32.39,64.0980804851662
13882,-8.190034,-3.739982,4.372883,0.039248,0.011912,-0.027489,32.37,64.0949106191981
13892,-8.188837,-3.750151,4.362116,0.039095,0.018479,-0.026878,32.37,64.1582164175424
13902,-8.18764,-3.753741,4.363312,0.038332,0.023518,-0.026114,32.32,64.1530704901225
13912,-8.182856,-3.758526,4.354938,0.037568,0.028405,-0.026114,32.32,64.1903646962815
13922,-8.198408,-3.763312,4.356134,0.036346,0.033445,-0.025656,32.36,64.2243740689628
13932,-8.188239,-3.755535,4.344768,0.035125,0.037874,-0.024893,32.36,64.2519048398652
13942,-8.200802,-3.760321,4.356732,0.035277,0.042455,-0.024129,32.34,64.2236040121289
13952,-8.185248,-3.760321,4.337589,0.034361,0.045968,-0.023366,32.34,64.2871654998957
13962,-8.19123,-3.771687,4.333402,0.033903,0.048564,-0.022602,32.35,64.3340721735039
13972,-8.187043,-3.759723,4.333402,0.033292,0.051313,-0.020464,32.35,64.3122214440836
13982,-8.192427,-3.771089,4.321437,0.033292,0.053756,-0.0197,32.39,64.397936552476
13992,-8.194221,-3.769294,4.329215,0.032987,0.055894,-0.017257,32.39,64.3599426553286
14002,-8.204989,-3.771089,4.316652,0.032223,0.056963,-0.016341,32.36,64.4508701264803
14012,-8.212766,-3.775874,4.315455,0.03207,0.057574,-0.015424,32.36,64.479410414542
14022,-8.206185,-3.776472,4.314259,0.032529,0.056658,-0.014661,32.36,64.4714610781117
14032,-8.217552,-3.777071,4.315455,0.032834,0.056963,-0.013744,32.39,64.49135404442
