t_ms,ax,ay,az,gx,gy,gz,temp,ang_deg
12,-8.3013,-3.593421,3.813561,0.133321,-0.253356,-0.003207,30.96,67.1402284152264
22,-8.298308,-3.571886,3.864408,0.134238,-0.256411,0.025351,30.96,66.8414735900298
32,-8.277969,-3.555735,3.911069,0.131183,-0.255342,0.054062,30.97,66.5336986260093
42,-8.280362,-3.536592,3.974478,0.125075,-0.248775,0.081398,30.97,66.1827200603632
52,-8.271988,-3.516851,4.015156,0.11469,-0.236863,0.108276,30.95,65.9298395219835
62,-8.29472,-3.489932,4.127619,0.101251,-0.22037,0.129503,30.95,65.3602461733685
72,-8.331809,-3.478566,4.176672,0.084452,-0.174097,0.159894,30.97,65.1750360836278
82,-8.367702,-3.445066,4.208377,0.044746,-0.147066,0.167988,30.95,65.0588269424873
92,-8.395817,-3.442075,4.235895,0.02306,-0.118966,0.170584,30.95,64.9760662291732
102,-8.417352,-3.445066,4.26401,0.001069,-0.090408,0.166766,30.98,64.8815703216747
112,-8.456833,-3.440879,4.284947,-0.019853,-0.060934,0.157756,30.98,64.8582128627634
122,-8.475378,-3.436692,4.288536,-0.039859,-0.031918,0.143553,30.96,64.8773927986168
132,-8.499905,-3.434299,4.285545,-0.057727,-0.004887,0.126907,30.96,64.9452168999049
142,-8.520842,-3.430709,4.275974,-0.073457,0.020617,0.10568,30.98,65.0375308643638
152,-8.535797,-3.419343,4.271188,-0.087354,0.044899,0.082161,30.98,65.0850457975722
162,-8.551949,-3.433102,4.256233,-0.098349,0.067653,0.056352,30.97,65.2094285034771
172,-8.560324,-3.431308,4.231109,-0.106901,0.087965,0.029169,30.97,65.3550463342383
182,-8.563314,-3.448057,4.21077,-0.114079,0.106291,0.001527,30.96,65.480672117609
192,-8.566306,-3.456432,4.185047,-0.118508,0.122173,-0.027184,30.96,65.6267447169096
202,-8.578867,-3.470191,4.165306,-0.119577,0.135459,-0.053603,31.03,65.7674092953083
212,-8.548957,-3.489932,4.129414,-0.118813,0.146302,-0.080023,31.03,65.9056572215134
222,-8.560324,-3.494119,4.092923,-0.114079,0.154549,-0.103236,30.98,66.1224226767792
232,-8.544172,-3.519842,4.02413,-0.107818,0.159436,-0.124464,30.98,66.4680899135691
242,-8.495118,-3.550949,3.991827,-0.097586,0.162032,-0.155312,30.97,66.5610793202438
252,-8.484351,-3.568297,3.963711,-0.073151,0.160658,-0.164475,30.98,66.7012380115543
262,-8.462217,-3.586243,3.944568,-0.05849,0.157298,-0.167683,30.98,66.7715722740837
272,-8.430512,-3.608377,3.918247,-0.044135,0.152411,-0.167683,30.98,66.8640955985397
282,-8.4012,-3.628716,3.905685,-0.028711,0.147371,-0.162032,30.98,66.887865382253
292,-8.386844,-3.651447,3.878766,-0.014508,0.142942,-0.152258,30.96,67.0212971475339
302,-8.356933,-3.668795,3.866802,-0.000764,0.136987,-0.137903,30.96,67.038802883548
312,-8.340183,-3.673581,3.859025,0.011759,0.132252,-0.118966,31,67.0499813250865
322,-8.337193,-3.695116,3.858427,0.022297,0.126907,-0.09728,31,67.066633597283
332,-8.322835,-3.71067,3.848257,0.030543,0.120951,-0.074067,30.97,67.1055322902058
342,-8.325827,-3.725027,3.841677,0.038332,0.116217,-0.048869,30.97,67.1599625458416
352,-8.332406,-3.722634,3.824927,0.043371,0.109345,-0.024129,30.98,67.2606475606325
362,-8.333005,-3.728616,3.821338,0.046884,0.102473,0.001069,30.98,67.2864984269725
372,-8.362915,-3.731607,3.82074,0.049786,0.0956,0.025656,30.99,67.3532882005584
382,-8.386245,-3.741776,3.811767,0.049938,0.086896,0.045509,30.99,67.4574760662181
392,-8.400601,-3.737589,3.790829,0.049786,0.076053,0.065668,31,67.5940835876705
402,-8.432905,-3.736991,3.787838,0.048411,0.064752,0.081092,31,67.6741054465128
412,-8.488539,-3.744169,3.786642,0.045662,0.050855,0.092852,31,67.7972555047049
422,-8.507681,-3.728018,3.775874,0.036805,0.019395,0.104153,31,67.8780272904844
432,-8.540583,-3.726223,3.77408,0.03146,0.00168,0.103694,31,67.950655165853
442,-8.572288,-3.697509,3.784847,0.02642,-0.016493,0.097128,31,67.9315993051255
452,-8.583055,-3.705286,3.781856,0.020006,-0.036041,0.087354,31,67.9750273186807
462,-8.61835,-3.688536,3.781856,0.01405,-0.057269,0.073151,30.97,68.0298918805697
472,-8.642278,-3.679563,3.804588,0.010079,-0.078649,0.055741,30.97,67.9498024708466
482,-8.655437,-3.665206,3.812963,0.005192,-0.098044,0.03543,30.96,67.9197420657389
492,-8.656634,-3.653242,3.819543,0.001069,-0.116675,0.012675,30.96,67.8777466369748
502,-8.665009,-3.647858,3.847061,-0.002291,-0.133474,-0.012065,30.96,67.7459123140889
512,-8.663215,-3.626323,3.864408,-0.004887,-0.146608,-0.036805,30.96,67.633989237813
522,-8.649456,-3.615555,3.893721,-0.007636,-0.157909,-0.061392,30.98,67.4447987166238
532,-8.614162,-3.608975,3.902096,-0.009468,-0.166155,-0.083994,30.98,67.3248118085031
542,-8.593822,-3.58744,3.925426,-0.010843,-0.170737,-0.104916,30.96,67.143594199887
552,-8.571091,-3.576073,3.948158,-0.01069,-0.173028,-0.122326,30.96,66.9687485622943
562,-8.547761,-3.576073,3.969693,-0.011606,-0.17318,-0.136834,30.97,66.8082302170389
572,-8.509476,-3.565904,3.993621,-0.009468,-0.170431,-0.147066,30.97,66.5948120760328
582,-8.465208,-3.538985,4.025326,-0.006414,-0.165392,-0.15348,30.99,66.3120538621159
592,-8.385648,-3.53719,4.040281,-0.003971,-0.147982,-0.151189,30.99,66.062073800944
602,-8.3348,-3.53061,4.058227,0.005651,-0.137445,-0.14279,30.95,65.8515700593169
612,-8.315059,-3.522833,4.076771,0.011301,-0.122784,-0.129045,30.98,65.7035406574902
622,-8.278568,-3.521637,4.089932,0.016646,-0.10568,-0.113621,30.98,65.5527525442933
632,-8.26481,-3.512065,4.118646,0.022907,-0.085521,-0.094531,30.98,65.3617794949942
642,-8.242676,-3.51386,4.129414,0.028863,-0.063988,-0.073762,30.98,65.2573353104118
652,-8.229516,-3.508476,4.127021,0.032834,-0.038943,-0.051771,31.04,65.2353688855518
662,-8.215756,-3.521637,4.148556,0.036346,-0.013286,-0.028558,31.04,65.1034595927803
672,-8.222337,-3.503691,4.153342,0.040623,0.013286,-0.006109,30.95,65.0757714648781
682,-8.230712,-3.51386,4.15394,0.04444,0.040775,0.016188,30.95,65.1012379839791
692,-8.231908,-3.510869,4.152145,0.045509,0.068417,0.037263,30.96,65.1105131543519
702,-8.236095,-3.529413,4.158128,0.046884,0.095906,0.055894,30.96,65.1062266700496
712,-8.266603,-3.536592,4.138985,0.048564,0.122173,0.073762,30.99,65.2819603443902
722,-8.285149,-3.543771,4.13061,0.049327,0.145539,0.089186,30.99,65.3739682361974
732,-8.320443,-3.555735,4.130012,0.049175,0.167988,0.101098,31,65.4662865954212
742,-8.340781,-3.568895,4.107878,0.04948,0.187077,0.111177,31,65.6391646506106
752,-8.392226,-3.572484,4.068397,0.047647,0.203876,0.117592,30.97,65.9608009561476
762,-8.475378,-3.595216,4.029513,0.046578,0.217468,0.121715,30.97,66.3616511247105
772,-8.509476,-3.607778,4.010969,0.043982,0.231976,0.118813,31,66.5410172824777
782,-8.538787,-3.625126,3.986442,0.041844,0.233045,0.113621,31,66.7449585733197
792,-8.572886,-3.627519,3.952943,0.039095,0.230907,0.104305,31,66.9916404412722
802,-8.610572,-3.645465,3.923033,0.03711,0.222508,0.091783,30.98,67.2392979551498
812,-8.635697,-3.645465,3.886542,0.034056,0.210596,0.078496,30.98,67.4798479374735
822,-8.660224,-3.662813,3.870989,0.031001,0.193797,0.062766,30.95,67.6241296934438
832,-8.682358,-3.658626,3.841079,0.028711,0.173638,0.046273,30.95,67.820101190452
842,-8.676972,-3.664608,3.82074,0.025809,0.150426,0.028711,30.98,67.9206532058231
852,-8.672188,-3.665206,3.79741,0.023213,0.126144,0.010385,30.98,68.0338129123655
862,-8.679964,-3.676572,3.784847,0.020159,0.099418,-0.008094,30.99,68.1239841744985
872,-8.681759,-3.686741,3.759723,0.017868,0.071471,-0.02642,30.99,68.2673670653362
882,-8.675179,-3.674777,3.752544,0.015424,0.043677,-0.043677,31,68.2825988643477
892,-8.65484,-3.672983,3.747759,0.012675,0.016035,-0.060018,31,68.2670727821735
902,-8.635098,-3.675375,3.756134,0.010537,-0.011454,-0.0759,30.98,68.1868074809174
912,-8.606385,-3.672983,3.754937,0.007178,-0.037415,-0.088728,30.98,68.1353677010385
922,-8.58126,-3.667001,3.77049,0.005192,-0.06185,-0.100182,30.96,67.9992320359571
932,-8.52443,-3.663411,3.781258,0.00336,-0.084299,-0.109192,30.96,67.8272045512581
942,-8.487941,-3.64726,3.806981,-0.000458,-0.118966,-0.121104,30.96,67.6042628054071
952,-8.451449,-3.644269,3.839284,-0.001833,-0.129656,-0.121868,30.96,67.3567030452934
962,-8.415558,-3.633501,3.850052,-0.001985,-0.136223,-0.121104,30.96,67.2168515548156
972,-8.405388,-3.62393,3.866802,-0.002596,-0.138666,-0.11637,31,67.0984871641579
982,-8.365308,-3.625725,3.897908,-0.002596,-0.136376,-0.109803,31,66.8517867065208
992,-8.359925,-3.616153,3.921836,-0.001374,-0.131489,-0.100945,30.98,66.7048132130553
1002,-8.33121,-3.611368,3.934398,0.001374,-0.122784,-0.091019,30.98,66.5733225184384
1012,-8.325229,-3.592823,3.948158,0.004429,-0.11301,-0.081398,30.97,66.4705738517252
1022,-8.326425,-3.586841,3.966104,0.007941,-0.101251,-0.070097,30.97,66.3723702527103
1032,-8.318647,-3.584448,3.985844,0.013439,-0.088728,-0.059101,30.94,66.2488903702792
1042,-8.325827,-3.579065,3.991827,0.0197,-0.076511,-0.049175,30.94,66.2276152961045
1052,-8.346764,-3.570091,4.012764,0.026573,-0.062614,-0.037721,30.98,66.153556528101
1062,-8.34138,-3.558726,4.011567,0.03375,-0.048869,-0.028405,30.98,66.1378878296933
1072,-8.376076,-3.53719,4.013362,0.042302,-0.036652,-0.020617,31.02,66.1832838213119
1082,-8.38445,-3.541378,4.014558,0.05116,-0.02474,-0.013286,31.02,66.1987135516377
1092,-8.393424,-3.542574,4.019942,0.059559,-0.012981,-0.007941,30.99,66.190646981182
1102,-8.423933,-3.512065,4.024727,0.068264,-0.002902,-0.003512,30.99,66.2033725122424
1112,-8.432905,-3.512664,4.006782,0.076816,0.015424,0.002291,30.98,66.3174086624707
1122,-8.443673,-3.51386,4.009174,0.091477,0.022602,0.002902,30.97,66.3288095987403
1132,-8.456833,-3.499503,4.004987,0.098197,0.028405,0.00336,30.97,66.3661196370468
1142,-8.46102,-3.515655,4.008576,0.102167,0.032834,0.003971,30.96,66.3703749955939
1152,-8.475977,-3.510869,3.992425,0.105985,0.036652,0.003971,30.96,66.4826097997294
1162,-8.486743,-3.503691,4.009772,0.107512,0.039095,0.001527,31,66.4080898545643
1172,-8.498708,-3.52044,4.006183,0.107512,0.040317,0,31,66.4667696577741
1182,-8.509476,-3.514458,4.00379,0.105222,0.040928,-0.002596,30.96,66.4967546090614
1192,-8.498708,-3.515056,4.000201,0.101862,0.041539,-0.003665,30.96,66.4934048909745
1202,-8.511868,-3.532404,4.002594,0.095753,0.040623,-0.00733,31.02,66.523646552777
1212,-8.499306,-3.518646,4.002594,0.088575,0.040317,-0.009774,31.02,66.4852574681352
1222,-8.504689,-3.533601,4.012166,0.079718,0.040164,-0.012217,30.95,66.4595493860645
1232,-8.502296,-3.528815,4.015156,0.069639,0.039401,-0.014966,30.95,66.4346930451057
1242,-8.510672,-3.541976,3.999603,0.060018,0.039095,-0.018021,31.02,66.5451245697656
1252,-8.504689,-3.559324,4.018147,0.047953,0.039401,-0.020159,31.02,66.4508377401794
1262,-8.500502,-3.558726,4.027719,0.035888,0.040623,-0.022755,31,66.3915304308469
1272,-8.489736,-3.577868,4.042076,0.023518,0.041692,-0.026114,31,66.3108781158809
1282,-8.479566,-3.595216,4.045067,0.011912,0.048564,-0.031612,31.01,66.2892980339845
1292,-8.480762,-3.604189,4.05404,-0.010232,0.054062,-0.034819,30.96,66.2530841433927
1302,-8.476574,-3.596412,4.057629,-0.020311,0.061697,-0.038332,30.96,66.2185692938121
1312,-8.469995,-3.612564,4.069593,-0.030849,0.069486,-0.042608,30.98,66.1568777491446
1322,-8.469995,-3.633501,4.067201,-0.038332,0.07926,-0.047342,30.98,66.1882520349005
1332,-8.465807,-3.640081,4.072584,-0.046426,0.088728,-0.053298,30.99,66.1573718104191
1342,-8.459227,-3.658028,4.066004,-0.051771,0.099113,-0.05849,30.99,66.1940504896736
1352,-8.46461,-3.664608,4.061816,-0.056352,0.110872,-0.064904,30.98,66.233165573088
1362,-8.462217,-3.667599,4.042674,-0.059407,0.122631,-0.07025,30.98,66.3305337915111
1372,-8.455637,-3.668197,4.031906,-0.060323,0.134696,-0.074831,30.97,66.3734422158985
1382,-8.441879,-3.681358,4.012166,-0.059407,0.145691,-0.079718,30.97,66.4597530470655
1392,-8.443673,-3.689733,3.995416,-0.056963,0.155923,-0.083536,30.99,66.5587355335291
1402,-8.43111,-3.692126,3.956532,-0.052076,0.165392,-0.085827,30.99,66.7387570093055
1412,-8.443673,-3.705884,3.929015,-0.045509,0.172417,-0.085827,30.94,66.9217107359848
1422,-8.429914,-3.712464,3.896114,-0.036194,0.175929,-0.085521,30.94,67.072773279891
1432,-8.435897,-3.722036,3.860221,-0.025198,0.176387,-0.082467,30.99,67.2831013699523
1442,-8.440084,-3.719643,3.780062,-0.011454,0.172722,-0.076664,30.99,67.7144777156573
1452,-8.446067,-3.73041,3.742374,0.002443,0.164017,-0.060781,30.98,67.9364479547611
1462,-8.44427,-3.72383,3.705884,0.036041,0.133169,-0.050091,30.97,68.1219709865241
1472,-8.44427,-3.725027,3.67059,0.054062,0.111177,-0.037415,30.97,68.3119404629769
1482,-8.453244,-3.706482,3.654438,0.071929,0.086437,-0.024129,30.97,68.4001605411567
1492,-8.460423,-3.709473,3.64068,0.090713,0.057269,-0.007483,30.97,68.4904907953197
1502,-8.455637,-3.699902,3.621537,0.108581,0.027947,0.008552,31,68.5759856776473
1513,-8.458628,-3.689135,3.628117,0.124617,-0.003207,0.024587,31,68.5372793835059
1522,-8.465807,-3.689733,3.626921,0.13943,-0.035583,0.040317,30.98,68.5581171797969
1532,-8.483753,-3.680161,3.633501,0.153022,-0.068264,0.055283,30.98,68.5494460275229
1542,-8.493324,-3.657429,3.663411,0.164475,-0.099724,0.067959,30.97,68.3885964276499
1552,-8.517851,-3.643671,3.679563,0.172875,-0.13042,0.078343,30.97,68.3385116071982
1562,-8.528618,-3.622734,3.716652,0.179136,-0.157756,0.087048,30.96,68.1442819405337
1572,-8.539386,-3.611966,3.760919,0.18158,-0.182649,0.092393,30.96,67.9211878547368
1582,-8.545966,-3.589832,3.802794,0.181885,-0.205098,0.09331,30.97,67.6938316896391
1592,-8.557931,-3.5671,3.859025,0.176845,-0.223729,0.089492,30.97,67.4019252456905
1602,-8.582456,-3.550351,3.912265,0.16921,-0.237932,0.082161,30.95,67.1579349494077
1612,-8.579466,-3.534199,3.968496,0.159436,-0.247095,0.072235,30.95,66.8440493341869
1622,-8.565707,-3.505485,4.082754,0.14676,-0.25076,0.058338,30.97,66.1963735332854
1632,-8.557931,-3.489334,4.122834,0.113621,-0.241444,0.02306,30.97,65.9583486050045
1642,-8.544172,-3.474977,4.168896,0.09499,-0.229838,0.003054,30.99,65.6783624691013
1652,-8.523234,-3.461218,4.210171,0.074678,-0.214566,-0.017715,30.97,65.4080239567982
1662,-8.512466,-3.452245,4.238885,0.05452,-0.194408,-0.039401,30.97,65.2286848332687
1672,-8.492128,-3.443272,4.278965,0.034208,-0.168752,-0.059101,31.01,64.9697684475761
1682,-8.472386,-3.442075,4.297509,0.014508,-0.141873,-0.078496,31.01,64.8295249619069
1692,-8.453843,-3.438486,4.311268,-0.003665,-0.111636,-0.096059,30.98,64.7141018738135
1702,-8.420941,-3.436692,4.310072,-0.020311,-0.078649,-0.110567,30.98,64.644522374115
1712,-8.397612,-3.443272,4.311268,-0.034972,-0.044899,-0.124006,30.96,64.591717596434
1722,-8.370691,-3.441477,4.307679,-0.047342,-0.010079,-0.133779,30.96,64.5474972109644
1732,-8.335398,-3.448057,4.281956,-0.05681,0.024587,-0.138514,30.91,64.6064989821221
1742,-8.32463,-3.454039,4.274778,-0.063377,0.059254,-0.140194,30.91,64.6248809255561
1752,-8.295319,-3.461218,4.251448,-0.065821,0.091019,-0.138666,31,64.6863291993428
1762,-8.288737,-3.475575,4.212564,-0.065668,0.120799,-0.133169,31,64.8879116384556
1772,-8.28156,-3.488137,4.175476,-0.063072,0.148746,-0.124464,30.97,65.0778010853409
1782,-8.272586,-3.497709,4.144967,-0.05681,0.173486,-0.114079,30.97,65.2269626296309
1792,-8.276175,-3.518047,4.070191,-0.047953,0.193492,-0.099571,30.98,65.6483993343814
1802,-8.293524,-3.545565,4.037888,-0.038637,0.222966,-0.067653,30.98,65.882977558437
1812,-8.321041,-3.553342,3.990032,-0.014355,0.231365,-0.050091,30.99,66.2031976112243
1822,-8.324032,-3.555735,3.96072,-0.002138,0.234878,-0.03375,31,66.3673621154411
1832,-8.365308,-3.586841,3.935595,0.011301,0.234267,-0.018021,31,66.6165995310677
1842,-8.388638,-3.601198,3.898506,0.024129,0.22938,-0.004123,31,66.8751772662837
1852,-8.410771,-3.609573,3.887738,0.035583,0.22037,0.008399,31,66.9857338571479
1862,-8.451449,-3.628716,3.859623,0.045815,0.207236,0.019242,30.95,67.2352824219683
1872,-8.467602,-3.624528,3.842275,0.05681,0.191354,0.027336,30.95,67.356434932037
1882,-8.493923,-3.64068,3.826123,0.064752,0.172111,0.031918,31,67.5092141171367
1892,-8.515458,-3.650849,3.822534,0.072235,0.151647,0.035583,31,67.5802159007609
1902,-8.530412,-3.661019,3.811767,0.079107,0.129809,0.037721,31.01,67.6757015828677
1912,-8.55434,-3.668795,3.814758,0.083994,0.107665,0.03711,31.01,67.7141510978672
1922,-8.551949,-3.684349,3.81715,0.087965,0.086132,0.036194,30.99,67.7100692207367
1932,-8.548359,-3.696313,3.815954,0.091324,0.064141,0.033598,30.99,67.7194889062383
1942,-8.565707,-3.699902,3.827918,0.092852,0.043524,0.027947,30.97,67.6939619825366
1952,-8.563912,-3.705884,3.835695,0.094073,0.024129,0.021686,30.97,67.6546663253317
1962,-8.560324,-3.712464,3.863212,0.094073,0.005803,0.014508,30.99,67.5088113067415
1972,-8.568698,-3.709473,3.875176,0.093004,-0.009621,-0.001985,30.99,67.4602426201661
1982,-8.559127,-3.707679,3.896114,0.087048,-0.037415,-0.011301,30.97,67.330000311724
1992,-8.551949,-3.709473,3.912265,0.082314,-0.047189,-0.021838,30.96,67.2327085857989
2002,-8.540583,-3.687938,3.931407,0.077733,-0.054978,-0.03146,30.96,67.090894528023
2012,-8.527422,-3.705884,3.949354,0.071471,-0.060934,-0.041539,30.97,66.9862183449581
2022,-8.532208,-3.686741,3.976273,0.063683,-0.064141,-0.051771,30.97,66.8386613893033
2032,-8.517851,-3.675375,3.991228,0.056352,-0.065821,-0.062308,30.99,66.7211884439285
2042,-8.493324,-3.669992,4.004987,0.048258,-0.064294,-0.072693,30.99,66.5939950381733
2052,-8.486743,-3.664608,4.021138,0.039401,-0.060323,-0.081092,30.98,66.4912917961687
2062,-8.486743,-3.647858,4.03071,0.030849,-0.053756,-0.089034,30.98,66.4263641881342
2072,-8.472985,-3.641876,4.037888,0.022755,-0.047189,-0.097128,30.95,66.3547782826428
2082,-8.451449,-3.643072,4.042076,0.015272,-0.038943,-0.105069,30.95,66.2887684966576
2092,-8.439486,-3.622734,4.043272,0.008094,-0.029474,-0.110567,31,66.2388318927496
2102,-8.437093,-3.606582,4.036692,0.004123,-0.020464,-0.115301,31,66.2535402392425
2112,-8.428718,-3.619742,4.030112,-0.000764,-0.011148,-0.118508,31,66.2821900808376
2122,-8.411968,-3.601796,4.01396,-0.002902,-0.002443,-0.119424,31,66.3151652157326
2132,-8.41137,-3.588037,4.006183,-0.002902,0.004123,-0.11805,31,66.3423044277288
2142,-8.395817,-3.583252,3.987041,-0.001374,0.010537,-0.115606,31,66.4058021642009
2152,-8.395219,-3.566502,3.970889,0.005803,0.019242,-0.107207,30.98,66.474655546507
2162,-8.385049,-3.550949,3.958327,0.01405,0.022144,-0.099113,30.97,66.5055659850019
2172,-8.369495,-3.556931,3.946961,0.020617,0.022755,-0.089186,30.97,66.5382018289059
2182,-8.383254,-3.540779,3.935595,0.030391,0.023518,-0.078649,30.98,66.6131039292474
2192,-8.379665,-3.541976,3.922434,0.040012,0.022907,-0.067653,30.98,66.6764453208359
2202,-8.38146,-3.546163,3.917649,0.05116,0.021228,-0.054672,30.95,66.709373149123
2212,-8.378469,-3.534797,3.932006,0.061392,0.019548,-0.040012,30.95,66.6166946204071
2222,-8.376674,-3.535994,3.926024,0.071777,0.01741,-0.026114,30.93,66.6457309899783
2232,-8.394022,-3.534797,3.926024,0.081703,0.015882,-0.011759,30.93,66.6812732786703
2242,-8.392825,-3.522235,3.948158,0.090103,0.014203,0.001985,30.99,66.5502392632779
2252,-8.387442,-3.521038,3.94397,0.097891,0.013744,0.013744,30.99,66.5599625162222
2262,-8.397612,-3.518646,3.970889,0.103694,0.01237,0.025809,30.97,66.4369006592148
2272,-8.420342,-3.52702,3.986442,0.108581,0.012523,0.037263,30.97,66.4105470730698
2282,-8.426325,-3.533002,3.994817,0.111788,0.013897,0.046273,30.98,66.384452397404
2292,-8.420941,-3.53061,4.006782,0.113468,0.017257,0.052993,30.98,66.3079019526638
2302,-8.443074,-3.52044,4.021138,0.113316,0.021686,0.058796,30.97,66.2705325349484
2312,-8.441879,-3.537788,4.056432,0.111177,0.027489,0.063072,30.97,66.0984965083634
2322,-8.468199,-3.538985,4.061218,0.106443,0.041386,0.064294,30.97,66.130745199429
2332,-8.479566,-3.549752,4.067799,0.096059,0.050244,0.062614,30.95,66.1302122915451
2342,-8.485548,-3.559922,4.073781,0.088728,0.058338,0.057879,30.95,66.1208342633113
2352,-8.495118,-3.550949,4.085146,0.081092,0.067501,0.052993,31,66.0740677504663
2362,-8.493923,-3.576672,4.081557,0.072846,0.0759,0.045357,31,66.1131168131999
2372,-8.513663,-3.577868,4.065406,0.063835,0.083383,0.038332,30.96,66.2398777324925
2382,-8.514859,-3.577868,4.060022,0.055741,0.090561,0.031154,30.96,66.2703849785859
2392,-8.499905,-3.605386,4.053442,0.048717,0.096364,0.021686,30.96,66.2975837165418
2402,-8.523234,-3.601198,4.046861,0.040317,0.100945,0.011759,30.96,66.3770421927894
2412,-8.519646,-3.621537,4.027719,0.032834,0.104763,0.001985,30.96,66.4871108308574
2422,-8.515458,-3.625725,4.023531,0.025656,0.106443,-0.008094,30.96,66.5038981674965
2432,-8.514261,-3.634698,3.994817,0.020311,0.106443,-0.017562,31,66.6590161722695
2442,-8.518449,-3.641876,3.980461,0.014813,0.106138,-0.026878,31,66.748934550888
2452,-8.52443,-3.64068,3.970889,0.010079,0.103542,-0.035277,31,66.8101858262452
2462,-8.511271,-3.654438,3.941577,0.008247,0.100029,-0.043371,31,66.948570313653
2472,-8.522038,-3.646662,3.934398,0.00733,0.096059,-0.05116,30.98,67.0013784278618
2482,-8.515458,-3.644867,3.902096,0.005956,0.089034,-0.058796,30.98,67.1558324192962
2492,-8.517851,-3.653242,3.884748,0.005803,0.081245,-0.072235,30.98,67.2591516271885
2502,-8.517851,-3.654438,3.871587,0.00901,0.062308,-0.076664,30.98,67.3294261788194
2512,-8.511271,-3.655036,3.865605,0.011912,0.050244,-0.082467,30.98,67.3481507947795
2522,-8.508279,-3.648456,3.848855,0.016188,0.038485,-0.085674,30.97,67.424728061566
2532,-8.508279,-3.652644,3.839284,0.020006,0.025198,-0.088117,30.97,67.4788683371088
2542,-8.498708,-3.646064,3.835097,0.026267,0.011606,-0.090408,30.95,67.4760351592521
2552,-8.489137,-3.637091,3.842873,0.031001,-0.001985,-0.092393,30.95,67.4078340519654
2562,-8.489137,-3.6341,3.835695,0.037874,-0.014813,-0.091783,30.96,67.443215882557
2572,-8.476574,-3.632903,3.835097,0.043524,-0.028863,-0.093157,30.96,67.41993470572
2582,-8.476574,-3.626921,3.849453,0.049633,-0.040623,-0.092546,30.95,67.3387344431348
2592,-8.465208,-3.610171,3.85723,0.055589,-0.052382,-0.091019,30.95,67.2598474662026
2602,-8.469995,-3.605984,3.870391,0.061239,-0.06185,-0.088881,30.95,67.1963327835833
2612,-8.467003,-3.600002,3.884149,0.066432,-0.070555,-0.086896,30.95,67.1122413484766
2622,-8.445468,-3.594618,3.902096,0.071319,-0.077885,-0.084605,30.97,66.9682735918279
2632,-8.439486,-3.584448,3.912265,0.076205,-0.083536,-0.079718,30.97,66.8931596618617
2642,-8.43111,-3.579663,3.9338,0.080329,-0.087506,-0.077427,30.99,66.7577049788366
2652,-8.420342,-3.566502,3.948158,0.08323,-0.088728,-0.072388,30.99,66.6476484008294
2662,-8.409575,-3.552145,3.979862,0.086743,-0.089339,-0.067653,30.98,66.4448185457171
2672,-8.389835,-3.544369,3.994817,0.091019,-0.082772,-0.055589,30.93,66.317009053574
2682,-8.386844,-3.55394,4.008576,0.092546,-0.076664,-0.048717,30.93,66.2467197782143
2692,-8.382057,-3.53719,4.043272,0.093921,-0.068417,-0.041692,31.04,66.0386154188853
2702,-8.366504,-3.533601,4.04387,0.09499,-0.059254,-0.033598,31.04,65.9986625659045
2712,-8.372486,-3.534199,4.058227,0.095448,-0.048717,-0.026114,30.98,65.9366081405637
2722,-8.378469,-3.532404,4.068995,0.095295,-0.037263,-0.018173,30.98,65.8913484534943
2732,-8.377273,-3.533601,4.082156,0.094073,-0.024587,-0.012217,30.93,65.8207913443399
2742,-8.375478,-3.531806,4.088736,0.093615,-0.010996,-0.004734,30.93,65.7807475001266
2752,-8.376076,-3.524628,4.088138,0.091935,0.003054,0.001069,30.98,65.7786104185752
2762,-8.386245,-3.52403,4.107878,0.089339,0.016799,0.005651,30.98,65.6968005250171
2772,-8.411968,-3.512664,4.115057,0.086896,0.031612,0.008705,31,65.7049031905742
2782,-8.406584,-3.521038,4.112664,0.082925,0.046273,0.010843,31,65.7133077444482
2792,-8.43111,-3.522833,4.115057,0.077885,0.059559,0.011606,30.95,65.7556723571986
2802,-8.444869,-3.516253,4.112065,0.073151,0.07254,0.01069,30.95,65.795104211607
2812,-8.448458,-3.532404,4.105485,0.067806,0.084758,0.007789,30.93,65.8516808698116
2822,-8.478967,-3.52044,4.110271,0.06017,0.095906,0.00336,30.93,65.8817080869284
2832,-8.496913,-3.535994,4.091727,0.052687,0.105985,-0.002596,31,66.0303884116883
2842,-8.506484,-3.543771,4.083352,0.044746,0.121409,-0.017715,31,66.1011985150866
2852,-8.514859,-3.552145,4.067201,0.030238,0.127365,-0.02642,30.98,66.2103219600944
2862,-8.523234,-3.557529,4.052245,0.022755,0.1321,-0.035583,30.96,66.3105287868578
2872,-8.531011,-3.567699,4.040879,0.016035,0.134543,-0.044899,30.96,66.3949370565306
2882,-8.519047,-3.577868,4.025924,0.008858,0.13607,-0.055131,30.99,66.4566687427053
2892,-8.516654,-3.581457,4.010371,0.003207,0.136681,-0.063225,30.99,66.5359264916211
2902,-8.511271,-3.585645,3.980461,-0.002443,0.135612,-0.070708,30.97,66.6846678853057
2912,-8.501699,-3.607778,3.976871,-0.005803,0.133474,-0.077122,30.97,66.7030094388739
2922,-8.499306,-3.613162,3.961318,-0.008705,0.130114,-0.082467,30.97,66.784235351037
2932,-8.472985,-3.621537,3.943372,-0.009927,0.125991,-0.086132,30.97,66.8313554499511
2942,-8.470592,-3.638287,3.938586,-0.010537,0.122937,-0.087812,30.96,66.8663905277014
2952,-8.469396,-3.646064,3.912863,-0.010079,0.11805,-0.087048,30.96,67.0061302587383
2962,-8.456833,-3.666403,3.908676,-0.007941,0.112857,-0.084605,30.98,67.0204383574725
2972,-8.4347,-3.665206,3.892524,-0.004123,0.106596,-0.081551,30.98,67.0592103203755
2982,-8.432905,-3.680759,3.882355,0.001833,0.100945,-0.074526,30.98,67.1231445959252
2992,-8.417951,-3.676572,3.872185,0.007941,0.093768,-0.067195,30.98,67.1426349935868
3002,-8.422735,-3.692126,3.854837,0.013744,0.085979,-0.059559,30.98,67.2581848956925
3012,-8.429914,-3.683152,3.838686,0.021686,0.071013,-0.039706,30.98,67.3504206575088
3022,-8.423334,-3.699304,3.835097,0.039095,0.062614,-0.028405,31,67.3704648927461
3032,-8.420941,-3.692126,3.82074,0.048869,0.053603,-0.017868,30.99,67.4354813783678
3042,-8.425727,-3.687938,3.814159,0.059254,0.043371,-0.007483,30.99,67.4764208142631
3052,-8.436494,-3.693322,3.821936,0.07025,0.032987,0.002138,30.98,67.4616045649939
3062,-8.447861,-3.683152,3.809972,0.080481,0.021228,0.011759,30.98,67.5390661182614
3072,-8.458031,-3.684947,3.814159,0.090713,0.008552,0.018631,30.98,67.538873933901
3082,-8.472386,-3.681358,3.817749,0.100945,-0.004887,0.024893,30.98,67.5455479585676
3092,-8.486146,-3.669992,3.817749,0.110567,-0.018784,0.030543,30.99,67.5632781682817
3102,-8.511271,-3.671786,3.834498,0.120951,-0.031765,0.033445,30.99,67.5266865058866
3112,-8.511868,-3.665804,3.839882,0.12874,-0.045357,0.035125,30.95,67.4942985123794
3122,-8.515458,-3.64726,3.846462,0.135307,-0.059712,0.034514,30.95,67.450786629652
3132,-8.535797,-3.631108,3.870391,0.140957,-0.072998,0.032834,30.98,67.3518387535117
3142,-8.537591,-3.61376,3.89073,0.143553,-0.08659,0.027947,30.98,67.2336247153762
3152,-8.542377,-3.616153,3.901497,0.145691,-0.096975,0.020769,30.98,67.1888643884238
3162,-8.540583,-3.601198,3.930809,0.14508,-0.106749,0.013439,30.98,67.018609742202
3172,-8.545368,-3.579663,3.976871,0.142026,-0.114537,0.004123,30.96,66.7688977784469
3182,-8.538787,-3.555136,4.001398,0.137292,-0.120493,-0.018326,30.96,66.6059436993022
3192,-8.522038,-3.537788,4.027719,0.121409,-0.125991,-0.028711,30.97,66.4184720499138
3202,-8.520842,-3.533601,4.057629,0.111941,-0.123853,-0.039554,31,66.2564561716206
3212,-8.499306,-3.517449,4.072584,0.10064,-0.119577,-0.050855,31,66.1186830943288
3222,-8.484949,-3.501298,4.1007,0.088117,-0.11301,-0.061087,30.98,65.9273160998541
3232,-8.478369,-3.499503,4.115655,0.074526,-0.103542,-0.072082,30.98,65.8337653211365
3242,-8.453244,-3.489334,4.131807,0.061087,-0.092241,-0.080787,30.95,65.6862743086172
3253,-8.431709,-3.483351,4.150351,0.047037,-0.077733,-0.087659,30.95,65.53744199748
3262,-8.417352,-3.480361,4.158128,0.034361,-0.060628,-0.09331,31.02,65.4627875785237
3272,-8.408379,-3.476173,4.165306,0.02306,-0.042761,-0.097891,31.02,65.4018777557732
3282,-8.386844,-3.474977,4.164708,0.010385,-0.024435,-0.101709,31,65.3563916893812
3292,-8.38445,-3.479164,4.177869,0.000305,-0.005498,-0.104305,31,65.2863512901101
3302,-8.359925,-3.476173,4.168896,-0.008094,0.015119,-0.105374,31,65.2760181561104
3312,-8.35813,-3.477968,4.155735,-0.014966,0.035277,-0.103847,31,65.3424512953141
3322,-8.350353,-3.487539,4.157529,-0.020464,0.056352,-0.102167,31,65.3246810942022
3332,-8.35813,-3.483351,4.139583,-0.023366,0.076053,-0.098807,31,65.4318944369537
3342,-8.34796,-3.500101,4.122235,-0.024282,0.094073,-0.094684,30.97,65.5157783311933
3352,-8.352745,-3.509673,4.088736,-0.023213,0.112094,-0.088423,30.97,65.7108982532549
3362,-8.341978,-3.515056,4.068397,-0.016188,0.142484,-0.074678,30.96,65.7993150391654
3372,-8.365907,-3.530011,4.038486,-0.010232,0.154243,-0.06521,30.96,66.0224557507053
3382,-8.380861,-3.538387,4.019942,-0.002596,0.164017,-0.056505,30.96,66.1599435032101
3392,-8.377273,-3.550351,4.002594,0.006109,0.171653,-0.046884,30.97,66.2545680700364
3402,-8.397612,-3.557529,3.978666,0.014661,0.176998,-0.036041,30.97,66.4306044502211
3412,-8.397612,-3.574877,3.952345,0.024587,0.178831,-0.026267,30.99,66.5852039919956
3422,-8.420941,-3.588037,3.932604,0.035277,0.177151,-0.016646,30.99,66.7502261105828
3432,-8.438289,-3.595216,3.904488,0.045204,0.174097,-0.006567,30.94,66.9412955403533
3442,-8.442476,-3.612564,3.89073,0.054825,0.167988,0.002443,30.94,67.0380137819512
3452,-8.451449,-3.620341,3.869194,0.064446,0.158672,0.010232,30.96,67.1772540268805
3462,-8.467003,-3.631706,3.86381,0.073457,0.147677,0.017868,30.96,67.2474765515995
3472,-8.46102,-3.638885,3.854837,0.082314,0.13439,0.025351,31.01,67.2890480584068
3482,-8.487941,-3.643671,3.848855,0.088728,0.120951,0.03146,31.01,67.3794980585146
3492,-8.495118,-3.654438,3.835695,0.094684,0.104916,0.036041,30.98,67.4728889373454
3502,-8.498708,-3.65384,3.839882,0.099724,0.088423,0.040164,30.98,67.4574753516036
3512,-8.511271,-3.663411,3.843472,0.103236,0.071777,0.042302,30.98,67.4720882327705
3522,-8.516056,-3.665206,3.846462,0.105069,0.054214,0.043524,30.98,67.4674873901183
3532,-8.538787,-3.689135,3.85723,0.105069,0.02138,0.040928,31,67.4770673562892
3542,-8.53819,-3.678965,3.876373,0.102778,0.005192,0.035736,30.98,67.3665113107109
3552,-8.535198,-3.669394,3.885346,0.099266,-0.008094,0.029474,30.98,67.3050880043299
3562,-8.553743,-3.671786,3.904488,0.093921,-0.021075,0.021991,31.01,67.2442321061671
3572,-8.542974,-3.677768,3.911667,0.089339,-0.033445,0.011454,31.01,67.1900981972673
3582,-8.550752,-3.675375,3.927818,0.083383,-0.042608,0.001527,31,67.1192893766985
3592,-8.549556,-3.667599,3.955934,0.077122,-0.050549,-0.010843,31,66.9632917332296
3602,-8.543573,-3.659822,3.970889,0.069791,-0.056352,-0.024893,30.97,66.8662790814049
3612,-8.532208,-3.651447,3.979862,0.061697,-0.060323,-0.037874,30.97,66.7888228743691
3622,-8.532805,-3.643671,4.00379,0.054367,-0.062919,-0.051618,30.99,66.658530584221
3632,-8.538787,-3.643072,4.021737,0.047495,-0.06353,-0.066126,30.99,66.5770282097367
3642,-8.517851,-3.639483,4.034897,0.039706,-0.062308,-0.080176,30.99,66.4619671775286
3652,-8.526823,-3.628716,4.046263,0.032681,-0.059101,-0.091935,30.99,66.4120414328814
3662,-8.502296,-3.619742,4.045665,0.026725,-0.053603,-0.103389,30.96,66.3558736329166
3672,-8.490931,-3.610171,4.052843,0.021991,-0.047495,-0.114385,30.96,66.286098493811
3682,-8.492128,-3.601198,4.05404,0.017257,-0.040623,-0.124158,30.94,66.2743657333185
3692,-8.467003,-3.597609,4.058825,0.014508,-0.031765,-0.131183,30.94,66.1931650891072
3702,-8.431709,-3.580261,4.046861,0.012828,-0.022755,-0.138972,30.99,66.1651055419543
3712,-8.426325,-3.572484,4.03729,0.012981,-0.00504,-0.140346,30.97,66.1967474444508
3722,-8.416754,-3.577868,4.031308,0.014966,0.004123,-0.138056,30.97,66.2126072883942
3732,-8.401799,-3.561118,4.027121,0.018021,0.012828,-0.13271,30.99,66.187556828394
3742,-8.403594,-3.556333,4.01396,0.022907,0.020159,-0.127976,30.99,66.2562647472719
3752,-8.407183,-3.544369,4.000201,0.028253,0.025809,-0.118813,30.95,66.325575125679
3762,-8.395817,-3.543172,3.992425,0.034667,0.031307,-0.109498,30.95,66.3412951119869
3772,-8.380861,-3.539583,3.975077,0.041844,0.035736,-0.098502,30.97,66.3978550331005
3782,-8.383254,-3.542574,3.970291,0.048717,0.038943,-0.085674,30.97,66.4309437227311
3792,-8.380861,-3.538985,3.961916,0.055589,0.041081,-0.071929,30.93,66.4669544907755
3802,-8.370691,-3.53061,3.951746,0.062461,0.041539,-0.058643,30.93,66.4917234766472
3812,-8.380861,-3.533002,3.944568,0.070708,0.042302,-0.044288,30.96,66.5535111305978
3822,-8.377273,-3.529413,3.939782,0.07758,0.040775,-0.030238,30.96,66.5680883978595
3832,-8.367103,-3.527619,3.944568,0.083994,0.038943,-0.015882,30.99,66.5195026114953
3842,-8.375478,-3.531208,3.92722,0.089492,0.036805,-0.003207,30.99,66.6325822821009
3852,-8.383853,-3.523431,3.936193,0.094379,0.034819,0.008858,30.94,66.5957387236362
3862,-8.394022,-3.525824,3.943372,0.098044,0.032529,0.020464,30.94,66.5813237385682
3872,-8.393424,-3.530011,3.958327,0.100487,0.030085,0.031154,30.95,66.504588051282
3882,-8.388638,-3.541976,3.969095,0.102167,0.027947,0.050091,31,66.448169215909
3892,-8.404789,-3.535396,3.979264,0.100945,0.028405,0.056047,31,66.4228520543432
3902,-8.415558,-3.545565,3.994219,0.098655,0.029016,0.060628,31,66.3759540186064
3912,-8.422735,-3.546163,4.013362,0.094531,0.030696,0.063683,31,66.2910246993661
3922,-8.435298,-3.546762,4.012166,0.090866,0.033903,0.06521,30.94,66.3245400347676
3932,-8.446067,-3.552145,4.034299,0.086132,0.038026,0.064904,30.94,66.2361421212886
3942,-8.462217,-3.558127,4.0337,0.079718,0.043219,0.063683,30.95,66.2788939519442
3952,-8.455039,-3.56411,4.048058,0.073304,0.048869,0.059559,30.95,66.1939262302726
3962,-8.477173,-3.56411,4.058227,0.066279,0.054214,0.052534,30.98,66.1878298885643
3972,-8.487941,-3.572484,4.061816,0.059865,0.060781,0.045051,30.98,66.1994131053556
3982,-8.516056,-3.582056,4.065406,0.052687,0.067653,0.036499,30.95,66.2486352248445
3992,-8.514859,-3.588037,4.058825,0.045509,0.074678,0.027031,30.95,66.285616925939
4002,-8.523833,-3.593421,4.06062,0.038637,0.080176,0.014813,30.94,66.2999282934328
4012,-8.527422,-3.602395,4.065406,0.031918,0.085521,0.001833,30.94,66.2905732127621
4022,-8.547761,-3.595216,4.054638,0.025656,0.090561,-0.010996,30.97,66.3827038051103
4032,-8.546564,-3.602993,4.045067,0.0197,0.093615,-0.023213,30.97,66.436703177058
4042,-8.559127,-3.620939,4.012166,0.014966,0.096059,-0.036957,30.95,66.6493863376081
4052,-8.558528,-3.635894,4.002594,0.01069,0.096059,-0.06185,30.95,66.7109796663731
4062,-8.560921,-3.635894,3.989433,0.004581,0.094684,-0.073457,31,66.7843479289788
4072,-8.546564,-3.635296,3.966104,0.004734,0.09163,-0.083536,30.96,66.8759131481426
4082,-8.544769,-3.644269,3.945765,0.004429,0.085979,-0.093462,30.96,66.9862571797827
4092,-8.534002,-3.64726,3.934398,0.004123,0.079871,-0.100029,30.97,67.0263299258358
4102,-8.526226,-3.639483,3.915854,0.005956,0.071777,-0.104916,30.97,67.1008547979294
4112,-8.522635,-3.64068,3.900899,0.00901,0.062614,-0.108734,30.95,67.1730745454693
4122,-8.510075,-3.649653,3.889533,0.01237,0.052229,-0.111177,30.95,67.2150964803446
4132,-8.487342,-3.646064,3.871587,0.016188,0.041081,-0.111177,30.95,67.2603298323162
4142,-8.475977,-3.653242,3.864408,0.021228,0.029322,-0.10965,30.95,67.2814151567554
4152,-8.469396,-3.638287,3.857828,0.026878,0.017868,-0.106138,30.95,67.28974035557
4162,-8.46102,-3.649653,3.844668,0.032376,0.004887,-0.101098,30.95,67.3523152777444
4172,-8.44128,-3.638287,3.849453,0.038943,-0.007636,-0.0956,30.99,67.2768317091153
4182,-8.429317,-3.636492,3.842873,0.045051,-0.020464,-0.089034,30.99,67.2857631291299
4192,-8.42812,-3.629314,3.839882,0.052382,-0.032223,-0.081551,30.95,67.2928910017964
4202,-8.425129,-3.628716,3.847659,0.058948,-0.043371,-0.072846,30.95,67.2449356021367
4212,-8.426325,-3.623332,3.870989,0.066737,-0.053451,-0.063683,30.98,67.1188278937153
4222,-8.413164,-3.609573,3.872783,0.073457,-0.063225,-0.045815,30.98,67.0700294010482
4232,-8.4012,-3.592823,3.89073,0.085979,-0.078343,-0.03711,30.97,66.9351241566506
4242,-8.407183,-3.579663,3.908078,0.091019,-0.084452,-0.030696,30.99,66.8438674428951
4252,-8.417352,-3.575475,3.936193,0.094684,-0.088575,-0.023518,30.99,66.7125765696186
4262,-8.411968,-3.568297,3.945765,0.098197,-0.090255,-0.018021,30.97,66.6443011634348
4272,-8.404191,-3.567699,3.972086,0.100487,-0.090713,-0.012675,30.97,66.4883831193293
4282,-8.405987,-3.547958,4.003192,0.101251,-0.089797,-0.008247,30.96,66.3104993654342
4292,-8.420342,-3.546163,4.031906,0.100487,-0.086437,-0.005803,30.96,66.1885253181583
4302,-8.416155,-3.538985,4.04746,0.098655,-0.080481,-0.004429,30.98,66.0914986292918
4312,-8.65484,-3.472584,3.915256,0.096669,-0.073762,-0.005651,30.98,67.2252055320904
4322,-8.656036,-3.448057,3.955934,0.12202,-0.084299,-0.047647,30.99,66.9953930611766
4332,-8.377871,-3.534797,4.132405,0.136987,-0.085521,-0.076053,30.99,65.5602146674329
4342,-8.373683,-3.521038,4.158726,0.129962,-0.067653,-0.070708,30.97,65.4009586739074
4352,-8.383853,-3.521637,4.172484,0.121715,-0.0478,-0.068417,30.97,65.3522244713336
4362,-8.389236,-3.526422,4.191627,0.113316,-0.027184,-0.065515,30.96,65.2689836187136
4372,-8.386844,-3.528217,4.206582,0.104916,-0.004887,-0.062308,30.96,65.1877351053914
4382,-8.388638,-3.524628,4.216154,0.09499,0.018173,-0.062003,31,65.1387252520146
4392,-8.404789,-3.531208,4.202394,0.085979,0.039859,-0.06185,31,65.2518311370841
4402,-8.418548,-3.543771,4.203591,0.069028,0.083536,-0.064294,30.99,65.2875097793441
4412,-8.413164,-3.552743,4.181458,0.06185,0.104153,-0.06689,30.95,65.3986819738218
4422,-8.416754,-3.555136,4.166502,0.054978,0.122784,-0.06857,30.95,65.4863364999594
4432,-8.407183,-3.557529,4.138985,0.050091,0.13943,-0.071624,30.96,65.6107538310499
4442,-8.429317,-3.570091,4.122834,0.045204,0.153785,-0.073609,30.96,65.7542746533819
4452,-8.423334,-3.588636,4.098905,0.041997,0.166003,-0.075747,31.01,65.882981254424
4462,-8.4347,-3.592225,4.061816,0.04047,0.175318,-0.076053,31.01,66.1041071842215
4472,-8.429317,-3.605984,4.032505,0.040012,0.18158,-0.0759,30.98,66.258452508763
4482,-8.425129,-3.613162,4.010969,0.040164,0.186314,-0.075289,30.98,66.3689716676202
4492,-8.4347,-3.619742,3.987041,0.041539,0.187994,-0.072693,30.98,66.5206234696263
4502,-8.431709,-3.625725,3.955934,0.043219,0.185856,-0.070555,30.98,66.6833045104553
4512,-8.427522,-3.637091,3.933203,0.046731,0.181732,-0.067501,30.96,66.8045535164167
4522,-8.427522,-3.634698,3.905087,0.051618,0.175624,-0.062003,30.96,66.9508636353857
4532,-8.411968,-3.652046,3.885944,0.056963,0.167072,-0.055283,30.98,67.0355615460455
4542,-8.417951,-3.644867,3.865007,0.062614,0.157603,-0.047495,30.98,67.1524375684483
4552,-8.421539,-3.656831,3.848257,0.068417,0.145997,-0.040012,30.98,67.2592698377135
4562,-8.426325,-3.669394,3.829713,0.074526,0.133016,-0.031154,30.98,67.3785943126142
4572,-8.428718,-3.675375,3.825525,0.088117,0.104,-0.011454,30.98,67.4109759999716
4582,-8.419745,-3.664608,3.833302,0.094684,0.088575,-0.003665,30.96,67.3419259262027
4592,-8.435897,-3.669394,3.828516,0.101556,0.072846,0.005956,30.96,67.4043596013053
4602,-8.440681,-3.67418,3.824927,0.107665,0.05681,0.013897,30.93,67.4373087359905
4612,-8.450851,-3.661617,3.844069,0.113774,0.041539,0.019853,30.93,67.3453497394303
4622,-8.459825,-3.66042,3.855436,0.118508,0.027947,0.02642,30.99,67.3023350659918
4632,-8.457432,-3.650849,3.859025,0.122784,0.014355,0.030238,30.99,67.2700726370016
4642,-8.469396,-3.65384,3.885944,0.128434,0.002902,0.032223,30.96,67.1548633207901
4652,-8.488539,-3.648456,3.89731,0.131489,-0.007483,0.033903,30.96,67.1292943419279
4662,-8.495118,-3.633501,3.920042,0.133779,-0.017562,0.033139,30.97,67.0100682716191
4672,-8.505288,-3.631706,3.94397,0.134696,-0.026114,0.029932,30.97,66.9037835619631
4682,-8.514859,-3.625126,3.961318,0.136376,-0.032376,0.025351,30.97,66.8268537206267
4692,-8.532208,-3.611368,3.970291,0.135307,-0.036805,0.020159,30.97,66.8036605146338
4702,-8.819345,-3.500101,3.836891,0.138208,-0.044899,0.00672,30.96,67.9829242720082
4712,-8.502895,-3.588636,4.019942,0.156076,-0.067501,-0.034514,30.96,66.4635371499215
4722,-8.508279,-3.57727,4.035496,0.156382,-0.06857,-0.045357,30.98,66.3836762412678
4732,-8.489736,-3.564708,4.083352,0.151647,-0.065515,-0.052534,30.98,66.0842089216421
4742,-8.492725,-3.561118,4.084548,0.147982,-0.050549,-0.065973,30.96,66.0811430260379
4752,-8.498111,-3.552145,4.104887,0.135307,-0.041844,-0.073762,30.96,65.978966107114
4762,-8.492725,-3.541976,4.115057,0.129503,-0.031612,-0.082161,30.96,65.9055989446046
4772,-8.499905,-3.532404,4.133003,0.122784,-0.02138,-0.08995,31,65.8194093117435
4782,-8.53819,-3.506682,4.057629,0.117744,-0.010232,-0.098502,31,66.2696506100779
4792,-8.517851,-3.494119,4.091129,0.117592,-0.00168,-0.117592,30.98,66.0412603720541
4802,-8.467602,-3.528815,4.127619,0.115454,0.009927,-0.13042,30.98,65.7745871028358
4812,-8.456833,-3.522833,4.118048,0.107665,0.021533,-0.137292,30.99,65.7957227742245
4822,-8.452048,-3.518646,4.119244,0.099571,0.033445,-0.142942,30.99,65.7753946883754
4832,-8.446664,-3.516851,4.103093,0.092393,0.043982,-0.147371,30.96,65.8462828889375
4842,-8.434101,-3.512065,4.092325,0.084758,0.054367,-0.150578,30.96,65.871047155213
4852,-8.429914,-3.51386,4.084548,0.078802,0.064141,-0.15348,30.98,65.9042615252357
4862,-8.422735,-3.509074,4.068397,0.073915,0.071624,-0.154091,30.98,65.9689915468484
4872,-8.417951,-3.507878,4.051049,0.069639,0.078343,-0.153785,30.98,66.0485641494051
4882,-8.405388,-3.517449,4.026522,0.065821,0.084452,-0.152869,30.98,66.159029255267
4892,-8.394022,-3.523431,4.02413,0.062308,0.089492,-0.149967,30.99,66.1526134822071
4902,-8.388638,-3.518047,3.987041,0.060476,0.092852,-0.145233,30.99,66.3318706415043
4912,-8.374281,-3.545565,3.975675,0.059559,0.096364,-0.132252,30.96,66.3860688768911
4922,-8.370691,-3.542574,3.969095,0.060628,0.097891,-0.123853,30.95,66.4105491512851
4932,-8.368897,-3.555136,3.948158,0.062156,0.098349,-0.114537,30.95,66.5289733753264
4942,-8.361719,-3.556931,3.94397,0.065668,0.098349,-0.102473,31.02,66.537592435269
4952,-8.368897,-3.56052,3.94397,0.068722,0.097433,-0.08995,31.02,66.5560253127111
4962,-8.366504,-3.57069,3.939184,0.072693,0.095295,-0.077122,30.95,66.5855098007208
4972,-8.365907,-3.571886,3.93739,0.077733,0.093921,-0.064294,30.95,66.5948432248214
4982,-8.367103,-3.578466,3.932604,0.082925,0.091783,-0.051007,30.99,66.628688967653
4992,-8.382057,-3.57727,3.939782,0.087201,0.089644,-0.036652,30.99,66.6210693647028
5002,-8.391629,-3.589832,3.931407,0.092699,0.087659,-0.023518,30.94,66.69681937541
5012,-8.389835,-3.607778,3.942175,0.097433,0.083689,-0.011759,30.94,66.6522171427377
5022,-8.398808,-3.611966,3.945765,0.102625,0.081703,0.000153,31.02,66.6558219543247
5032,-8.402397,-3.622734,3.940979,0.108734,0.080329,0.012065,31.02,66.6983102253971
5042,-8.41137,-3.63051,3.94397,0.11301,0.078038,0.020769,31.02,66.7082508673428
5052,-8.414959,-3.631108,3.949354,0.117439,0.074984,0.028253,31.02,66.6878777598614
5062,-8.437692,-3.626921,3.952345,0.122173,0.073457,0.035277,30.97,66.7157299817024
5072,-8.458031,-3.636492,3.969693,0.126144,0.071166,0.040164,30.97,66.6754149117801
5082,-8.468199,-3.647858,3.976871,0.129198,0.069639,0.042608,30.95,66.6690562119353
5092,-8.499306,-3.641278,3.981657,0.133169,0.067195,0.042302,30.95,66.7026124717472
5102,-8.493923,-3.643072,3.996612,0.133016,0.065668,0.039401,31,66.6149112689801
5112,-8.501101,-3.658028,3.987639,0.133016,0.064141,0.034819,30.97,66.6899433387059
5122,-8.519047,-3.649653,3.993621,0.132405,0.063225,0.028405,30.97,66.6883769612559
5132,-8.511868,-3.646662,4.001996,0.131336,0.062919,0.020159,30.97,66.6272138117528
5142,-8.528618,-3.643072,4.005585,0.128129,0.061392,0.010079,30.97,66.6400017835359
5152,-8.515458,-3.650251,4.012166,0.124769,0.059865,-0.000305,30.93,66.5848469914017
5162,-8.517252,-3.641876,4.008576,0.121104,0.057727,-0.01237,30.93,66.5998324964453
5172,-8.530412,-3.648456,4.010969,0.116828,0.056658,-0.023976,30.96,66.6204480404256
5182,-8.537591,-3.637091,4.004389,0.110872,0.054062,-0.036194,30.96,66.6595025426551
5192,-8.523234,-3.643072,4.002594,0.106138,0.051771,-0.049786,31,66.6444437135727
5202,-8.525029,-3.628117,4.005585,0.10064,0.049938,-0.060628,31,66.6193696660222
5212,-8.532805,-3.632903,3.992425,0.095448,0.046884,-0.072998,30.95,66.7082488947451
5222,-8.526823,-3.618546,3.988835,0.089492,0.043677,-0.084147,30.95,66.7019984151269
5232,-8.517252,-3.621537,3.987041,0.083536,0.039554,-0.093768,30.96,66.6941870043705
5242,-8.52144,-3.61376,3.983452,0.078191,0.035888,-0.103236,30.96,66.7147623506562
5254,-8.504689,-3.600002,3.97388,0.06857,0.027031,-0.117133,30.99,66.7180305837581
5262,-8.489736,-3.584448,3.961318,0.06857,0.021838,-0.122478,30.99,66.7391730827809
5272,-8.490333,-3.6006,3.958327,0.06185,0.016493,-0.126144,30.95,66.7702920039796
5282,-8.483753,-3.580261,3.954738,0.059559,0.011759,-0.127824,30.96,66.7576129844861
5292,-8.477173,-3.567699,3.948756,0.057574,0.006872,-0.127976,30.96,66.7643593381498
5302,-8.472386,-3.565904,3.946362,0.057727,0.001222,-0.12706,30.98,66.7654158729023
5312,-8.455637,-3.56052,3.937988,0.059254,-0.003818,-0.124006,30.98,66.7698975227706
5322,-8.44427,-3.553342,3.945167,0.060781,-0.007636,-0.120188,30.98,66.7019587539625
5332,-8.436494,-3.555136,3.944568,0.063835,-0.010843,-0.114537,30.98,66.690412189285
5342,-8.422735,-3.554538,3.951149,0.067501,-0.012828,-0.108429,30.95,66.6262528406585
5352,-8.410771,-3.543771,3.952943,0.071013,-0.014661,-0.101098,30.95,66.5820113203162
5362,-8.403594,-3.533601,3.963113,0.076205,-0.015424,-0.092393,30.97,66.504029616111
5372,-8.399406,-3.531806,3.970889,0.080481,-0.014508,-0.083841,30.97,66.452449757081
5382,-8.385049,-3.536592,3.965506,0.084605,-0.012675,-0.075136,30.98,66.4547048533877
5392,-8.388638,-3.527619,3.988835,0.090408,-0.009163,-0.065515,30.98,66.3309752550718
5402,-8.386245,-3.512664,3.987041,0.09499,-0.004887,-0.056658,30.96,66.3219369245759
5412,-8.377871,-3.517449,4.002594,0.098807,-0.000611,-0.048411,30.96,66.2261335318984
5422,-8.38804,-3.510271,4.022335,0.10232,0.005498,-0.039401,30.94,66.1373691438086
5432,-8.39821,-3.515655,4.021737,0.104611,0.012065,-0.024282,30.94,66.167205657494
5442,-8.4012,-3.517449,4.043272,0.108581,0.025656,-0.017868,31,66.0619610419166
5452,-8.411968,-3.512065,4.049852,0.10965,0.032987,-0.011454,30.98,66.0457300038349
5462,-8.413763,-3.523431,4.044468,0.108429,0.041233,-0.006872,30.98,66.0880658562547
5472,-8.419147,-3.519842,4.045067,0.106749,0.048869,-0.002749,30.96,66.093255310739
5482,-8.422137,-3.52044,4.051647,0.104458,0.054825,0.001222,30.96,66.0656944273161
5492,-8.422137,-3.518646,4.043272,0.101556,0.061392,0.002443,30.95,66.1080173185242
5502,-8.436494,-3.534797,4.048656,0.098044,0.06857,0.003971,30.95,66.125007897569
5512,-8.4347,-3.544369,4.045067,0.092852,0.074831,0.003818,30.95,66.1485559820907
5522,-8.456833,-3.548556,4.046861,0.087965,0.079107,0.002596,30.95,66.1900893021478
5532,-8.457432,-3.549752,4.03729,0.082009,0.083383,0.001833,30.99,66.242495749436
5542,-8.469995,-3.565306,4.044468,0.076358,0.088423,-0.000458,30.99,66.2454868298331
5552,-8.470592,-3.568297,4.027719,0.071166,0.090713,-0.002902,31.01,66.3369479642805
5562,-8.482555,-3.576073,4.014558,0.065821,0.09163,-0.00672,31.01,66.4378777884426
5572,-8.480165,-3.585645,4.013362,0.060628,0.09331,-0.010537,30.98,66.447600816129
5582,-8.493923,-3.592225,4.00379,0.056352,0.093157,-0.016188,30.98,66.5322976350545
5592,-8.492128,-3.595216,3.993023,0.05284,0.091019,-0.020617,31,66.5875013413329
5602,-8.490333,-3.617948,3.965506,0.048258,0.088423,-0.026725,31,66.7479318108299
5612,-8.484351,-3.616751,3.954139,0.043982,0.081245,-0.036499,30.95,66.7940997577921
5622,-8.496315,-3.64068,3.951149,0.042608,0.075747,-0.041692,30.96,66.8555909344069
5632,-8.482555,-3.628716,3.934997,0.042761,0.07025,-0.045204,30.96,66.9014572092592
5642,-8.486743,-3.641876,3.942175,0.042913,0.063835,-0.050396,30.96,66.8840023759188
5652,-8.491529,-3.644269,3.938586,0.043677,0.057574,-0.054367,30.96,66.9147926020442
5662,-8.495717,-3.64068,3.940979,0.044746,0.051465,-0.057879,31,66.9076829472989
5672,-8.498708,-3.643072,3.92722,0.046578,0.043982,-0.06185,31,66.9881247114322
5682,-8.492725,-3.655036,3.924827,0.048869,0.036957,-0.063835,31,66.9989589347928
5692,-8.477771,-3.652046,3.9338,0.052382,0.029322,-0.066584,31,66.9185124018883
5702,-8.472386,-3.65384,3.926024,0.055589,0.022907,-0.066584,30.99,66.9499005631515
5712,-8.479566,-3.64726,3.926622,0.059254,0.016799,-0.067195,30.99,66.9556842191111
5722,-8.478369,-3.647858,3.943372,0.062919,0.011301,-0.067042,30.96,66.8657678327026
5732,-8.480165,-3.641278,3.951746,0.066584,0.005345,-0.067348,30.96,66.8196930223523
5742,-8.474779,-3.639483,3.947559,0.069944,0,-0.066279,30.96,66.8289571047961
5752,-8.470592,-3.637689,3.952345,0.074526,-0.003818,-0.064752,30.96,66.7935847329215
5762,-8.469396,-3.64068,3.955336,0.076816,-0.00733,-0.06353,30.98,66.7780677337986
5772,-8.461619,-3.612564,3.962514,0.079565,-0.010537,-0.062919,30.98,66.6992488072304
5782,-8.457432,-3.612564,3.978068,0.082772,-0.013592,-0.060018,30.99,66.6088546883946
5792,-8.458628,-3.596412,3.981657,0.087965,-0.014355,-0.058643,30.97,66.5781315591909
5802,-8.450851,-3.602395,3.987041,0.090255,-0.013286,-0.057116,30.97,66.5389230037734
5812,-8.456235,-3.588037,4.002594,0.090713,-0.012217,-0.055589,31,66.4558285461205
5822,-8.462217,-3.585645,4.010371,0.091324,-0.01069,-0.05452,31,66.4255297626453
5832,-8.442476,-3.574279,4.016353,0.090713,-0.008094,-0.054214,30.98,66.3423796002119
5842,-8.451449,-3.575475,4.025924,0.090713,-0.004123,-0.053298,30.98,66.312283630893
5852,-8.450851,-3.563511,4.03071,0.090103,0,-0.053451,30.98,66.27525588128
5862,-8.452645,-3.558726,4.030112,0.087659,0.003818,-0.052687,30.98,66.277915989951
5872,-8.447262,-3.559922,4.046263,0.085674,0.008094,-0.052993,30.95,66.1830219652499
5882,-8.437093,-3.550949,4.041477,0.082161,0.012828,-0.054214,30.95,66.17837000577
5892,-8.435897,-3.543771,4.039683,0.078649,0.018937,-0.053451,30.97,66.1787833198325
5902,-8.432307,-3.540779,4.048058,0.075136,0.024435,-0.053451,30.97,66.1245529460839
5912,-8.432307,-3.535396,4.052245,0.071624,0.030696,-0.053298,30.99,66.0977892657967
5922,-8.42812,-3.52702,4.04387,0.066279,0.035888,-0.053451,30.99,66.1252051986808
5932,-8.435897,-3.532404,4.052245,0.063072,0.041997,-0.051924,31,66.1027901339135
5942,-8.425129,-3.532404,4.036692,0.058948,0.047037,-0.052382,31,66.1612833345961
5952,-8.428718,-3.528217,4.034299,0.055741,0.052229,-0.04948,30.98,66.1777627985437
5962,-8.422735,-3.540181,4.029513,0.049327,0.060781,-0.048717,30.99,66.2008228695794
5972,-8.435298,-3.535994,4.024727,0.046578,0.065668,-0.045815,30.99,66.2489835294582
5982,-8.443673,-3.541976,4.024727,0.044135,0.069791,-0.043524,30.96,66.2721403442541
5992,-8.438888,-3.546762,4.016951,0.04215,0.073304,-0.041233,30.96,66.3070396211818
6002,-8.432307,-3.546163,4.007978,0.040623,0.075442,-0.040317,30.99,66.3396576563541
6012,-8.448458,-3.555735,4.00379,0.038943,0.077885,-0.036499,30.99,66.4043858495227
6022,-8.441879,-3.56052,4.006183,0.037721,0.079565,-0.034361,30.98,66.382176549355
6032,-8.447861,-3.561118,3.987041,0.037415,0.080481,-0.031612,30.98,66.4958831895892
6042,-8.455637,-3.565306,3.985246,0.036957,0.080787,-0.029016,30.98,66.5253915596575
6052,-8.455637,-3.567699,3.973282,0.037263,0.080023,-0.02642,30.98,66.5903852003934
6062,-8.463414,-3.584448,3.961318,0.037415,0.079871,-0.023518,31.02,66.6843634494454
6072,-8.452645,-3.585046,3.960122,0.037721,0.078191,-0.020922,31.02,66.6686990430078
6082,-8.46461,-3.6006,3.952345,0.038332,0.075595,-0.017868,30.99,66.7483093138158
6092,-8.463414,-3.58744,3.945167,0.038179,0.071013,-0.015424,30.99,66.7719643191742
6102,-8.467602,-3.6006,3.935595,0.038943,0.067348,-0.01237,30.99,66.8426403423986
6112,-8.464012,-3.601796,3.911667,0.040775,0.062156,-0.009927,30.99,66.9623546758561
6123,-8.46461,-3.608377,3.91406,0.041997,0.055741,-0.003971,30.98,66.9567527263539
6132,-8.468199,-3.614957,3.914658,0.045357,0.040623,-0.001374,30.98,66.9667885434813
6142,-8.460423,-3.612564,3.909274,0.047037,0.032529,0.000458,30.98,66.9770433698066
6152,-8.46102,-3.619742,3.894319,0.04948,0.023366,0.003054,30.97,67.0635176524569
6162,-8.461619,-3.622734,3.899703,0.052534,0.012828,0.005956,30.97,67.0389582456997
6172,-8.464012,-3.613162,3.891328,0.054825,0.003512,0.008247,31,67.0796827690638
6182,-8.462217,-3.629912,3.900301,0.05849,-0.005803,0.010843,31,67.04335167915
6192,-8.453843,-3.617948,3.904488,0.061697,-0.015424,0.013286,30.99,66.993481614923
6202,-8.462815,-3.622135,3.908676,0.064752,-0.024587,0.01405,30.99,66.9935545273995
6212,-8.478967,-3.627519,3.921238,0.067806,-0.032529,0.014203,30.97,66.9653606570621
6222,-8.468798,-3.620341,3.926024,0.071166,-0.039859,0.013439,30.97,66.9128991530609
6232,-8.472985,-3.616153,3.942773,0.074526,-0.046731,0.012217,30.98,66.8297469138944
6242,-8.473583,-3.619144,3.954738,0.077122,-0.051313,0.010843,30.98,66.770768562053
6252,-8.459227,-3.616751,3.965506,0.079565,-0.055436,0.008552,30.99,66.6822779694135
6262,-8.475977,-3.603591,3.985246,0.080787,-0.057574,0.003971,30.99,66.6019376127807
6272,-8.469995,-3.602395,3.998407,0.081245,-0.057574,-0.000611,31,66.5194315361339
6282,-8.480165,-3.602395,4.013362,0.081856,-0.0562,-0.006567,31,66.4624909713838
6292,-8.475378,-3.592225,4.061218,0.081245,-0.052687,-0.012828,30.95,66.193584273929
6302,-8.478967,-3.579663,4.070191,0.077733,-0.042302,-0.029322,30.95,66.1431929661401
6312,-8.485548,-3.579065,4.080959,0.075289,-0.034819,-0.038026,31.01,66.1005917688322
6322,-8.483154,-3.577868,4.100101,0.07086,-0.025809,-0.046578,31,65.9949490235884
6332,-8.484351,-3.566502,4.106084,0.066737,-0.016188,-0.055131,31,65.9562259825077
6342,-8.493324,-3.563511,4.115057,0.06185,-0.006567,-0.065668,30.99,65.9261493390746
6352,-8.483753,-3.55394,4.118646,0.055894,0.004734,-0.075136,30.99,65.8784686009578
6362,-8.486743,-3.556333,4.134199,0.049633,0.015882,-0.082925,30.93,65.8063931443823
6372,-8.480165,-3.551547,4.11745,0.04444,0.027184,-0.090255,30.93,65.8748357535375
6382,-8.483154,-3.540779,4.118048,0.03711,0.038485,-0.098044,30.99,65.8684857250517
6392,-8.474181,-3.55394,4.115057,0.030085,0.049022,-0.103389,30.99,65.8765786735343
6402,-8.471789,-3.544369,4.105485,0.024282,0.059407,-0.109039,30.95,65.9125936141394
6412,-8.459825,-3.555136,4.092923,0.018784,0.06918,-0.113468,30.95,65.9620002066649
6422,-8.457432,-3.539583,4.080959,0.013134,0.07758,-0.115148,31,66.0052615754506
6432,-8.447262,-3.549752,4.068995,0.009468,0.085063,-0.116523,31,66.0550700074032
6442,-8.450851,-3.551547,4.046861,0.006109,0.090713,-0.116217,30.98,66.1800309509375
6452,-8.44427,-3.556333,4.027719,0.001833,0.095753,-0.116981,30.98,66.2705427707459
6462,-8.443074,-3.54736,4.001398,-0.000305,0.09896,-0.113926,30.98,66.3981135565723
6472,-8.419745,-3.556931,3.97388,-0.002138,0.101251,-0.106291,30.98,66.502143191924
6482,-8.421539,-3.558127,3.958327,-0.002749,0.100487,-0.099418,30.99,66.5890303038176
6492,-8.405987,-3.562913,3.945765,-0.002443,0.097891,-0.092546,30.95,66.6269259139387
6502,-8.409575,-3.569493,3.934398,-0.000611,0.094073,-0.084299,30.95,66.7004481270067
6512,-8.470592,-3.538387,3.81057,0.002749,0.090103,-0.074678,30.97,67.4567627948108
6522,-8.425129,-3.551547,3.854837,0.019395,0.089339,-0.075442,30.97,67.139148532189
6532,-8.383853,-3.585046,3.896114,0.029169,0.085521,-0.069944,30.98,66.8634716419847
6542,-8.385049,-3.585645,3.892524,0.03146,0.078343,-0.057879,30.98,66.8855791201795
6552,-8.385648,-3.576073,3.890131,0.036041,0.071929,-0.044135,31.01,66.8910211135833
6562,-8.38445,-3.589234,3.878766,0.039859,0.065057,-0.031001,31.01,66.9606843632875
6572,-8.377871,-3.595216,3.888337,0.043982,0.057269,-0.018173,30.96,66.9014197070162
6582,-8.397013,-3.604189,3.875774,0.048258,0.049175,-0.004429,30.96,67.0159740693043
6592,-8.39821,-3.603591,3.891328,0.053145,0.040775,0.007941,30.96,66.9353213248028
6602,-8.400003,-3.61077,3.878167,0.057421,0.032376,0.018937,30.96,67.0153042980308
6612,-8.419745,-3.610171,3.888337,0.061087,0.024282,0.029169,30.97,67.0016534086459
6622,-8.411968,-3.60718,3.887738,0.065821,0.017257,0.039095,30.97,66.9860866775455
6633,-8.426923,-3.614359,3.917649,0.069333,0.009774,0.047037,30.97,66.865126306412
6642,-8.449656,-3.627519,3.9338,0.071929,0.002749,0.06017,30.97,66.8387438891718
6652,-8.467003,-3.62393,3.942773,0.079565,-0.009468,0.063988,30.98,66.8242467398746
6662,-8.467602,-3.621537,3.956532,0.082467,-0.015272,0.066279,30.97,66.7510661528941
6672,-8.478967,-3.624528,3.970889,0.083689,-0.019242,0.067042,30.97,66.7019746557491
6682,-8.496315,-3.632903,3.982255,0.084299,-0.022449,0.06521,31.02,66.6858707101797
6692,-8.499905,-3.628716,3.995416,0.085368,-0.025045,0.062919,31.02,66.6208236272729
6702,-8.506484,-3.634698,3.998407,0.085216,-0.026878,0.05849,30.97,66.6241652333445
6712,-8.508877,-3.629314,4.013362,0.08491,-0.027489,0.05284,30.97,66.5463607364643
6722,-8.510672,-3.628716,4.026522,0.08262,-0.028558,0.045357,30.99,66.4810086937697
6732,-8.514261,-3.64068,4.034897,0.080787,-0.027336,0.037415,30.99,66.4555549764385
6742,-8.520243,-3.624528,4.040281,0.077733,-0.025351,0.028863,30.95,66.4256715032318
6752,-8.519047,-3.619144,4.048656,0.074831,-0.023671,0.01909,30.95,66.3748637814735
6762,-8.522635,-3.620341,4.055834,0.071624,-0.021228,0.008552,31.01,66.3461541104945
6772,-8.522635,-3.614957,4.05404,0.066737,-0.018173,-0.002291,31.01,66.350685305582
6782,-8.513064,-3.608975,4.061218,0.06185,-0.015577,-0.012523,30.98,66.288013577327
6792,-8.522038,-3.619742,4.062415,0.056658,-0.012523,-0.023366,30.98,66.3102128353776
6802,-8.510672,-3.598805,4.054638,0.050549,-0.009468,-0.03375,30.98,66.3081375268994
6812,-8.505288,-3.601796,4.048656,0.043982,-0.006414,-0.043982,30.98,66.3306008467267
6822,-8.783454,-3.467798,3.717848,0.050855,-0.001222,-0.075442,31.02,68.5101966045831
6832,-8.4347,-3.611368,4.041477,0.079565,0.003054,-0.115912,30.95,66.2277793126215
6842,-8.466404,-3.584448,4.050451,0.075442,0.005956,-0.119882,30.95,66.2237589418594
6852,-8.42453,-3.585046,4.037888,0.069944,0.010232,-0.12202,30.99,66.2011459944023
6862,-8.452048,-3.579663,4.037888,0.065363,0.013134,-0.12202,30.99,66.2546976172353
6872,-8.431709,-3.57069,4.026522,0.060934,0.015577,-0.123395,31,66.263021806201
6882,-8.427522,-3.556333,4.022335,0.05681,0.017562,-0.121868,31,66.2631943212634
6892,-8.417352,-3.574279,4.015755,0.054978,0.018784,-0.11973,30.97,66.2922761094479
6902,-8.422735,-3.566502,4.011567,0.05284,0.020311,-0.118966,30.97,66.318701625062
6912,-8.423334,-3.561717,4.00738,0.051007,0.021686,-0.116217,31.01,66.3376784063621
6922,-8.408379,-3.562315,4.00738,0.049786,0.023366,-0.113468,31.01,66.3064586791808
6932,-8.404789,-3.549752,4.012764,0.050396,0.025198,-0.110261,30.93,66.2591741044094
6942,-8.39821,-3.556333,4.012764,0.050244,0.026267,-0.106291,30.93,66.2510804069188
6952,-8.406584,-3.549752,4.007978,0.050702,0.028253,-0.101862,31,66.288186305525
6962,-8.394022,-3.531806,4.016951,0.052534,0.030543,-0.096364,31,66.1979623746446
6972,-8.39462,-3.540181,4.013362,0.054367,0.033903,-0.091477,30.97,66.2256926806854
6982,-8.390432,-3.530011,4.022335,0.0562,0.038485,-0.085521,30.97,66.1602955038667
6992,-8.389236,-3.533002,4.021138,0.058338,0.0478,-0.070555,30.99,66.1667343816707
7002,-8.386245,-3.535396,4.022933,0.061392,0.052687,-0.063988,30.94,66.1530296894037
7012,-8.394022,-3.543172,4.039085,0.063835,0.058948,-0.054825,30.94,66.0917795488847
7022,-8.393424,-3.542574,4.035496,0.064446,0.06521,-0.048258,30.91,66.1088203728814
7032,-8.392226,-3.53719,4.041477,0.066126,0.071777,-0.041386,30.91,66.0699300603833
7042,-8.39821,-3.538985,4.039683,0.067501,0.078191,-0.033903,30.97,66.0938359369335
7052,-8.39462,-3.550949,4.046861,0.067195,0.084299,-0.025656,30.97,66.0592686746097
7062,-8.403594,-3.556333,4.045665,0.067195,0.08995,-0.018937,31,66.0896804037689
7072,-8.412566,-3.555136,4.036692,0.066584,0.096211,-0.012675,31,66.1548830215723
7082,-8.418548,-3.562913,4.0337,0.066432,0.101862,-0.007636,31,66.1903696738405
7092,-8.429914,-3.556931,4.024727,0.064752,0.106443,-0.002596,31,66.2562646012756
7102,-8.44128,-3.571886,4.021138,0.062156,0.111025,0.001374,30.95,66.312618124037
7112,-8.453244,-3.592823,4.020541,0.060934,0.113621,0.005956,30.95,66.3597950673036
7122,-8.455039,-3.586841,4.013362,0.058185,0.116064,0.008399,30.98,66.3958174233923
7132,-8.443673,-3.59043,3.996612,0.054825,0.116217,0.009621,30.98,66.4629226663511
7142,-8.467602,-3.594618,3.987041,0.052076,0.116828,0.010843,30.99,66.5670672843759
7152,-8.47119,-3.6006,3.954738,0.049175,0.114537,0.011148,30.99,66.7494064079486
7162,-8.479566,-3.611368,3.951149,0.046426,0.110567,0.010232,30.97,66.7951400858634
7172,-8.485548,-3.61376,3.925426,0.042302,0.097586,0.009468,30.98,66.9447867789775
7182,-8.491529,-3.621537,3.911667,0.039859,0.089186,0.008094,30.98,67.0362719577787
7192,-8.49452,-3.626921,3.908078,0.038485,0.078649,0.005956,31.03,67.0659923174769
7202,-8.496913,-3.635894,3.882953,0.036805,0.067653,0.004123,31.03,67.2109976396413
7212,-8.496913,-3.631706,3.883551,0.035888,0.055283,0.002443,31,67.2042000705809
7222,-8.49452,-3.641278,3.876373,0.035125,0.040775,0.000916,31,67.2455013645726
7232,-8.510075,-3.638885,3.874578,0.035125,0.024893,-0.000611,30.96,67.2844564306455
7242,-8.511271,-3.631108,3.869792,0.036346,0.009316,-0.002291,30.96,67.3053633228274
7255,-8.505887,-3.649653,3.866802,0.036805,-0.005956,-0.004276,30.97,67.3262868193831
7262,-8.514859,-3.637689,3.869792,0.03711,-0.020922,-0.005651,30.97,67.318323966809
7272,-8.505288,-3.637689,3.87398,0.037874,-0.036652,-0.007483,31,67.27686029581
7282,-8.510075,-3.629912,3.882953,0.039248,-0.050855,-0.008399,31,67.2325708030383
7292,-8.497512,-3.627519,3.893721,0.040317,-0.064141,-0.010079,30.98,67.1482008592139
7302,-8.497512,-3.622135,3.908676,0.043066,-0.076664,-0.011454,30.98,67.0647918444189
7312,-8.496913,-3.619144,3.920042,0.04383,-0.087659,-0.012981,30.97,67.0011797788605
7322,-8.493324,-3.607778,3.942175,0.045357,-0.097128,-0.013897,30.97,66.8675566725365
7332,-8.487941,-3.589832,3.972684,0.04612,-0.103389,-0.016035,30.96,66.6805537349638
7342,-8.483154,-3.604787,3.999005,0.048411,-0.10965,-0.020617,30.96,66.5459455873945
7352,-8.473583,-3.588037,4.029513,0.049327,-0.10965,-0.021991,30.96,66.3514649657888
7362,-8.465807,-3.582654,4.043272,0.049938,-0.106901,-0.023213,30.95,66.2583678430048
7372,-8.455039,-3.575475,4.057629,0.048869,-0.101098,-0.025962,30.95,66.1541238234573
7382,-8.460423,-3.567699,4.071986,0.048106,-0.093768,-0.028863,30.96,66.0836802055057
7392,-8.446067,-3.562913,4.093522,0.047342,-0.084299,-0.031612,30.96,65.9364160218139
7402,-8.456235,-3.555735,4.110271,0.045662,-0.073151,-0.034972,31,65.864549402144
7412,-8.44128,-3.550351,4.124628,0.04383,-0.06017,-0.037415,31,65.7527809132921
7422,-8.438888,-3.540181,4.134798,0.041081,-0.046884,-0.041692,31,65.6854784942434
7432,-8.431709,-3.550351,4.142574,0.037874,-0.031765,-0.044135,31,65.6387603901157
7442,-8.429317,-3.538985,4.144369,0.034667,-0.016799,-0.047342,30.96,65.6138622952859
7452,-8.435897,-3.531208,4.149154,0.031612,-0.002443,-0.050549,30.96,65.5962097038663
7462,-8.43111,-3.510869,4.141976,0.028405,0.013439,-0.052687,30.98,65.6046310428265
7472,-8.675179,-3.41396,3.851248,0.027489,0.028711,-0.057879,30.98,67.5543969760977
7482,-8.44427,-3.508476,4.106084,0.059407,0.046884,-0.09499,30.97,65.8179905228407
7492,-8.388638,-3.526422,4.131208,0.06521,0.063072,-0.104,30.97,65.5822894936808
7502,-8.407781,-3.535396,4.107878,0.05849,0.07758,-0.101098,30.98,65.7539841474152
7512,-8.395817,-3.540779,4.09711,0.052534,0.100945,-0.096364,30.98,65.7892431713747
7522,-8.417951,-3.540181,4.079165,0.040317,0.110719,-0.091783,31,65.9303779663766
7532,-8.395219,-3.546762,4.055236,0.03543,0.118661,-0.089034,30.98,66.0127887178373
7542,-8.411968,-3.535994,4.040281,0.030238,0.123547,-0.085979,30.98,66.1175010437008
7552,-8.41137,-3.556931,4.011567,0.025962,0.126449,-0.083536,30.98,66.2859492108789
7562,-8.426325,-3.544369,4.001996,0.020769,0.126296,-0.080023,30.98,66.3568085990296
7572,-8.428718,-3.565306,3.978068,0.017868,0.125686,-0.074984,30.95,66.5064769929867
7582,-8.4347,-3.568895,3.962514,0.01573,0.122478,-0.070708,30.95,66.6041890825168
7592,-8.423933,-3.589234,3.941577,0.01405,0.118202,-0.066584,30.99,66.710152065394
7602,-8.432905,-3.592225,3.9338,0.012217,0.111483,-0.06353,30.99,66.7725932094889
7612,-8.437093,-3.579663,3.923033,0.011606,0.103236,-0.05849,30.96,66.8270535627794
7622,-8.42812,-3.601198,3.898506,0.01237,0.094684,-0.052687,30.96,66.9571736249086
7632,-8.439486,-3.608975,3.899703,0.013439,0.085674,-0.046426,30.96,66.981221781438
7642,-8.420342,-3.609573,3.888935,0.015424,0.074984,-0.039095,30.96,66.9991886000709
7652,-8.431709,-3.608377,3.888935,0.017868,0.064141,-0.032376,30.98,67.0216129745917
7662,-8.42812,-3.611966,3.88056,0.021075,0.054672,-0.024435,30.98,67.0617448408999
7672,-8.422735,-3.620341,3.893721,0.02474,0.043982,-0.016952,30.96,66.988336103129
7682,-8.420941,-3.63051,3.909274,0.027336,0.034056,0,30.96,66.9113893533231
7692,-8.429317,-3.63051,3.908676,0.034972,0.01741,0.007789,30.98,66.931874745109
7702,-8.425727,-3.626323,3.917051,0.038332,0.009927,0.014813,30.98,66.87646423777
7712,-8.438888,-3.638885,3.932006,0.042761,0.004734,0.02306,30.98,66.8360258288639
7722,-8.422735,-3.640081,3.941577,0.045815,-0.000611,0.02978,30.99,66.7531403504835
7732,-8.432307,-3.636492,3.943372,0.049175,-0.003818,0.036194,30.99,66.7603516759165
7742,-8.453244,-3.620939,3.955336,0.051007,-0.007483,0.041233,30.97,66.7270030451682
7752,-8.446067,-3.631108,3.965506,0.053298,-0.009163,0.045968,30.97,66.6676950834639
7762,-8.455039,-3.63051,3.97388,0.055589,-0.011148,0.048258,30.98,66.6418692394495
7772,-8.455637,-3.625725,3.986442,0.057116,-0.01237,0.049938,30.98,66.5729394240694
7782,-8.465208,-3.633501,3.986442,0.058338,-0.012217,0.050396,30.99,66.5998583495712
7792,-8.458628,-3.624528,3.995416,0.059865,-0.011912,0.050549,30.99,66.5310843278033
7802,-8.471789,-3.629314,4.013362,0.059559,-0.010996,0.048717,31.01,66.4689972501323
7812,-8.477771,-3.619144,4.016353,0.060018,-0.011301,0.046273,31.01,66.4567864442371
7822,-8.480762,-3.614359,4.010969,0.058796,-0.010996,0.041844,30.98,66.4869051243787
7832,-8.495118,-3.61376,4.012166,0.057727,-0.009316,0.037568,30.98,66.5101196165089
7842,-8.498708,-3.608975,4.018745,0.057116,-0.00901,0.032987,30.92,66.4790367139172
7852,-8.510672,-3.598805,4.027719,0.054367,-0.008247,0.025351,30.92,66.4482529742077
7862,-8.511868,-3.592225,4.022933,0.050091,-0.007178,0.012523,30.95,66.4698846925319
7872,-8.510075,-3.58385,4.030112,0.046731,-0.00733,0.004581,30.98,66.421315651327
7882,-8.508279,-3.582056,4.022933,0.042455,-0.007636,-0.002749,30.98,66.4534002158257
7892,-8.516654,-3.574877,4.025326,0.038485,-0.00733,-0.010385,30.96,66.4521443109435
7902,-8.504092,-3.570091,4.024727,0.034361,-0.009163,-0.018631,30.96,66.4247091787157
7912,-8.513064,-3.567699,4.021737,0.030238,-0.009316,-0.026114,30.98,66.457028718667
7922,-8.510672,-3.56411,4.0337,0.024893,-0.010385,-0.034056,30.98,66.3864623317342
7932,-8.502296,-3.55394,4.025326,0.020769,-0.010843,-0.040623,30.99,66.4035857639722
7942,-8.501699,-3.561717,4.027719,0.01573,-0.011912,-0.046884,30.99,66.3966845295032
7952,-8.502895,-3.549154,4.022933,0.01069,-0.012065,-0.05284,31.01,66.4131357556376
7962,-8.492128,-3.554538,4.02413,0.006414,-0.011759,-0.057116,31.01,66.3889494981121
7972,-8.486743,-3.543172,4.017549,0.001833,-0.011759,-0.06185,31.02,66.4019908588062
7982,-8.657831,-3.368496,3.755535,0.011606,-0.006261,-0.075747,31.02,67.988781522568
7992,-8.430512,-3.541378,4.037888,0.035583,0.00672,-0.098655,30.95,66.174556566618
8002,-8.456833,-3.528815,4.038486,0.032529,0.009621,-0.099113,30.95,66.2163278517494
8012,-8.42453,-3.539583,4.028915,0.027642,0.013134,-0.100029,31,66.2072567965006
8022,-8.426325,-3.544966,4.030112,0.023671,0.017715,-0.096517,31,66.2096308079598
8032,-8.419745,-3.528815,4.043272,0.015272,0.026114,-0.093768,30.96,66.1120120127261
8042,-8.419147,-3.535396,4.025924,0.012828,0.030238,-0.091935,30.97,66.2077186619104
8052,-8.417352,-3.535396,4.022933,0.009621,0.034667,-0.089034,30.97,66.2196017050345
8062,-8.417352,-3.543771,4.024727,0.007178,0.039248,-0.084452,30.98,66.217692170258
8072,-8.412566,-3.550351,4.016951,0.004581,0.043066,-0.080481,30.98,66.2542667929312
8082,-8.41436,-3.543771,4.018147,0.003207,0.04612,-0.077122,30.97,66.2458899730677
8092,-8.413164,-3.555735,4.0008,0.002596,0.049633,-0.072693,30.97,66.3453343751295
8102,-8.440681,-3.555136,3.999005,0.001222,0.052382,-0.067042,30.98,66.4125432886271
8112,-8.425129,-3.561717,3.996014,0.001374,0.05452,-0.062003,30.98,66.4012431423794
8122,-8.41436,-3.558127,3.99721,0.00168,0.056047,-0.055436,31.02,66.3689151108499
8132,-8.410173,-3.56052,3.976273,0.00168,0.056658,-0.049938,31.02,66.4725069128082
8142,-8.429914,-3.562315,3.97747,0.002749,0.056505,-0.043677,30.98,66.5094814382622
8152,-8.419147,-3.571886,3.971487,0.004123,0.055283,-0.036041,30.98,66.5268508278913
8162,-8.423933,-3.577868,3.970889,0.004734,0.054214,-0.029474,30.97,66.5454258725493
8172,-8.421539,-3.576672,3.951149,0.007483,0.051313,-0.022144,30.97,66.6434221292179
8182,-8.425727,-3.586243,3.940381,0.00901,0.048717,-0.014355,30.96,66.7175536097422
8192,-8.403594,-3.597609,3.933203,0.011759,0.045204,-0.006109,30.96,66.7193455759264
8202,-8.425727,-3.613162,3.933203,0.013592,0.036499,0.008705,30.98,66.7794317613995
8212,-8.427522,-3.605984,3.930212,0.018326,0.03207,0.015882,30.96,66.7925579902933
8222,-8.431709,-3.618546,3.932604,0.020464,0.026725,0.023976,30.96,66.7998351077103
8232,-8.425129,-3.629912,3.925426,0.022449,0.021686,0.030543,30.98,66.8342008408622
8242,-8.430512,-3.61735,3.924229,0.025198,0.015577,0.036346,30.98,66.8404824352987
8252,-8.449057,-3.62393,3.93739,0.027489,0.009774,0.040928,30.98,66.815405250907
8262,-8.440681,-3.631108,3.930809,0.030238,0.004276,0.046273,30.98,66.8391110680535
8272,-8.454441,-3.632903,3.940381,0.03207,-0.001833,0.049175,30.98,66.8187931020058
8282,-8.457432,-3.643671,3.938586,0.033903,-0.007636,0.051771,30.98,66.844002729907
8292,-8.452645,-3.645465,3.946961,0.035277,-0.013134,0.053451,30.97,66.7916612286114
8302,-8.465208,-3.636492,3.94397,0.036041,-0.018326,0.053909,30.97,66.8253824514857
8312,-8.470592,-3.631108,3.957729,0.037721,-0.02306,0.053298,30.98,66.759476153662
8322,-8.47119,-3.638885,3.972684,0.036957,-0.026878,0.050244,30.98,66.6891943639656
8332,-8.478967,-3.634698,3.979264,0.036805,-0.030849,0.047342,31.02,66.6671347840265
8342,-8.475378,-3.632903,3.982255,0.036957,-0.034208,0.044899,31.02,66.642417922588
8352,-8.484351,-3.624528,3.999603,0.035125,-0.037415,0.039554,30.99,66.5628652679927
8362,-8.483154,-3.623332,4.009174,0.032987,-0.039859,0.034056,30.99,66.5092839763667
8372,-8.490931,-3.616751,4.024727,0.030849,-0.041844,0.022907,30.92,66.4384825869047
8382,-8.499905,-3.602395,4.025924,0.024435,-0.042302,0.015424,31,66.4382565872295
8392,-8.498708,-3.592823,4.041477,0.020769,-0.041692,0.008399,31,66.3461777443776
8402,-8.517252,-3.602993,4.042674,0.016188,-0.040012,0.001069,30.94,66.3878754901332
8412,-8.504689,-3.600002,4.055236,0.012675,-0.037874,-0.005651,30.94,66.2935143476081
8422,-8.493923,-3.589234,4.064807,0.008399,-0.035277,-0.012828,30.99,66.2114346435523
8432,-8.497512,-3.586841,4.059424,0.003207,-0.032987,-0.019853,30.99,66.2448873461606
8442,-8.49452,-3.57727,4.070191,-0.002291,-0.029169,-0.027489,30.99,66.1740151036271
8452,-8.490333,-3.577868,4.073183,-0.007483,-0.024587,-0.033598,30.99,66.1501156554028
8462,-8.48136,-3.575475,4.071388,-0.012523,-0.020159,-0.039859,30.93,66.1382892405623
8472,-8.482555,-3.561717,4.073183,-0.01573,-0.014661,-0.043982,30.93,66.1191875784407
8482,-8.614162,-3.467798,3.812963,-0.01909,-0.009621,-0.050549,30.99,67.6762079441028
8492,-8.550752,-3.475575,3.951149,0.01405,0.012065,-0.079718,30.99,66.8256087880155
8502,-8.427522,-3.553342,4.074379,0.029169,0.025656,-0.096211,30.96,65.9878915110864
8512,-8.446664,-3.53719,4.073183,0.023518,0.032681,-0.094379,30.96,66.0206343539888
8522,-8.421539,-3.546163,4.071986,0.018937,0.041081,-0.093615,30.99,65.9810641669537
8532,-8.429914,-3.538387,4.064807,0.014966,0.049327,-0.091477,30.99,66.0295864853944
8542,-8.412566,-3.530011,4.04387,0.01069,0.055741,-0.088117,30.96,66.0945554984235
8552,-8.4347,-3.528815,4.03729,0.005345,0.068417,-0.082161,30.96,66.1753889656529
8562,-8.41137,-3.531806,4.028915,0.002443,0.072235,-0.078649,30.95,66.1721543920966
8572,-8.425129,-3.531806,4.010969,0.000611,0.075595,-0.074678,30.99,66.2958633361627
8582,-8.410771,-3.538985,4.003192,-0.000611,0.078649,-0.070708,30.99,66.3126337806761
8592,-8.420342,-3.540779,4.000201,-0.001527,0.081092,-0.066126,30.98,66.3503413002882
8602,-8.415558,-3.549752,3.975675,-0.001374,0.082009,-0.060476,30.98,66.4774257642722
8612,-8.432905,-3.553342,3.975077,-0.000916,0.081551,-0.055131,30.95,66.5204075747099
8622,-8.422137,-3.555136,3.963711,0,0.080481,-0.049327,30.95,66.5592196724711
8632,-8.426325,-3.561118,3.949354,0.001222,0.078191,-0.042455,30.95,66.6491120547244
8642,-8.425129,-3.554538,3.939782,0.00336,0.074678,-0.036346,30.95,66.6913306439867
8652,-8.42812,-3.576672,3.931407,0.004887,0.070708,-0.029474,30.99,66.7614512372312
8662,-8.431709,-3.571288,3.929613,0.007483,0.065515,-0.021991,30.99,66.773658619077
8672,-8.430512,-3.573082,3.923631,0.010232,0.060018,-0.014966,31,66.8043638152575
8683,-8.438888,-3.580859,3.916452,0.012675,0.053603,-0.007178,31,66.8666202999146
8692,-8.418548,-3.588636,3.918247,0.014966,0.047495,0.000916,30.97,66.8216790447276
8702,-8.429317,-3.579663,3.914658,0.017868,0.040623,0.008858,30.97,66.8551427774888
8712,-8.456833,-3.603591,3.91406,0.0197,0.033292,0.015882,30.95,66.9364814460196
8722,-8.452645,-3.608975,3.911069,0.021533,0.018021,0.0281,30.95,66.9483574091858
8732,-8.452645,-3.608377,3.916452,0.022755,0.010537,0.033598,30.99,66.919422956296
8742,-8.461619,-3.605386,3.922434,0.023213,0.002291,0.038332,30.98,66.9037962818253
8752,-8.451449,-3.611966,3.936193,0.022449,-0.005345,0.042455,30.98,66.8160480415092
8762,-8.472985,-3.611966,3.928416,0.022449,-0.012675,0.045051,30.96,66.9015710914665
8772,-8.479566,-3.622734,3.931407,0.021533,-0.020006,0.046884,30.96,66.9088960047246
8782,-8.484351,-3.617948,3.945765,0.020006,-0.028558,0.047037,30.98,66.8391128922886
8792,-8.486146,-3.615555,3.946961,0.017715,-0.035583,0.045815,30.98,66.8344347853455
8802,-8.486743,-3.614957,3.954139,0.015882,-0.04215,0.044593,30.97,66.7974678606223
8812,-8.490931,-3.622734,3.966702,0.012981,-0.049938,0.043371,30.97,66.7471299017773
8822,-8.489137,-3.624528,3.965506,0.010232,-0.056047,0.040623,30.98,66.7512674073586
8832,-8.49452,-3.608975,3.973282,0.008094,-0.06185,0.037263,30.98,66.7079586003205
8842,-8.487342,-3.611966,3.97747,0.005345,-0.06689,0.033445,31.02,66.6737586259498
8852,-8.492725,-3.627519,3.982853,0.00168,-0.07086,0.029627,31.02,66.6705284748411
8862,-8.489736,-3.608377,3.987041,0,-0.073762,0.024587,30.97,66.6254534408126
8872,-8.484351,-3.614359,3.997808,-0.002443,-0.07758,0.020617,30.97,66.5632063444795
8882,-8.480165,-3.608975,4.010371,-0.005498,-0.078802,0.016646,30.95,66.4839840046141
8892,-8.473583,-3.598207,4.016353,-0.006109,-0.079107,0.00901,30.95,66.4293173483456
8902,-8.468798,-3.592823,4.018745,-0.009927,-0.078343,0.003971,30.96,66.4019507948419
8912,-8.462815,-3.594618,4.025924,-0.01069,-0.077122,-0.000458,30.98,66.3534159804734
8922,-8.446664,-3.585046,4.042674,-0.011606,-0.073609,-0.003512,30.98,66.2230943811301
8932,-8.442476,-3.573681,4.057629,-0.012217,-0.069791,-0.007025,31,66.1257767496971
8942,-8.444869,-3.574877,4.053442,-0.012217,-0.064752,-0.009927,31,66.1538315184971
8952,-8.438888,-3.575475,4.074977,-0.013134,-0.059254,-0.012981,31.02,66.0291370204825
8962,-8.433504,-3.574877,4.069593,-0.013134,-0.051924,-0.015272,31.02,66.0452047457948
8972,-8.426325,-3.574877,4.077968,-0.013286,-0.043982,-0.016188,30.96,65.9860993339024
8982,-8.432307,-3.561717,4.078567,-0.01405,-0.036194,-0.018021,30.96,65.9838518812163
8992,-8.423334,-3.558127,4.091129,-0.015119,-0.028405,-0.020311,30.94,65.8957292351639
9002,-8.572288,-3.468396,3.894917,-0.013592,-0.018326,-0.02306,30.94,67.1595749232075
9012,-8.512466,-3.491727,4.006183,0.014355,-0.004276,-0.048411,30.94,66.4708210611362
9022,-8.39462,-3.556931,4.110271,0.026267,0.008094,-0.060476,30.94,65.732659661428
9032,-8.422735,-3.538985,4.105485,0.02306,0.01909,-0.058948,30.96,65.8021164850726
9042,-8.405987,-3.552145,4.108477,0.020311,0.031612,-0.055741,30.96,65.7622662039956
9052,-8.414959,-3.542574,4.109075,0.016646,0.043371,-0.053603,31,65.7698283175728
9062,-8.412566,-3.55394,4.100101,0.012828,0.054672,-0.051313,31,65.8218611919481
9072,-8.418548,-3.54736,4.097709,0.004276,0.073151,-0.048411,31,65.8412714711994
9082,-8.426923,-3.559922,4.083352,0.000764,0.082161,-0.047189,31.01,65.9456836027958
9092,-8.443673,-3.555735,4.075575,-0.00336,0.089492,-0.046273,31.01,66.0184164673617
9102,-8.444869,-3.551547,4.039683,-0.008399,0.095142,-0.047342,30.98,66.2048634353712
9112,-8.487941,-3.53719,3.940979,-0.004276,0.106596,-0.050855,30.98,66.8010992892231
9122,-8.440681,-3.565306,4.028915,0.002443,0.120493,-0.054978,30.99,66.2646905618256
9132,-8.470592,-3.561717,4.03071,-0.002443,0.122784,-0.054672,30.99,66.3154553019846
9142,-8.465807,-3.574279,4.00379,-0.006109,0.123853,-0.05452,31,66.4574440854326
9152,-8.472985,-3.554538,3.988237,-0.010385,0.122478,-0.054214,31,66.5366235437324
9162,-8.466404,-3.574279,3.975675,-0.013744,0.120188,-0.052993,30.98,66.6061874073958
9172,-8.474181,-3.573082,3.970889,-0.01741,0.115606,-0.051465,30.98,66.6465272958394
9182,-8.474779,-3.586841,3.943372,-0.020464,0.109498,-0.049938,30.99,66.8044964678542
9192,-8.46102,-3.575475,3.921836,-0.022755,0.103084,-0.047647,30.99,66.8794181593636
9202,-8.465807,-3.594618,3.914658,-0.024435,0.094531,-0.044746,31,66.9439843677324
9212,-8.46461,-3.602395,3.90389,-0.025809,0.084758,-0.040775,31,67.0051480340851
9222,-8.451449,-3.604189,3.893123,-0.026114,0.074526,-0.035125,30.93,67.0364763466358
9232,-8.455637,-3.604787,3.867399,-0.025962,0.062614,-0.029627,30.93,67.1817207216279
9242,-8.44427,-3.614359,3.867399,-0.024893,0.038637,-0.015577,30.99,67.1667985201365
9256,-8.448458,-3.613162,3.853641,-0.021533,0.026573,-0.008247,30.97,67.2472523428808
9262,-8.436494,-3.614957,3.85065,-0.01909,0.013744,-0.000764,30.97,67.2402161907595
9272,-8.448458,-3.606582,3.863212,-0.016341,0.000305,0.007636,31,67.1907570645412
9282,-8.442476,-3.629912,3.857828,-0.012675,-0.012065,0.015882,31,67.2275088318686
9292,-8.440681,-3.620939,3.860819,-0.009316,-0.024435,0.024435,30.99,67.2000954795253
9302,-8.426923,-3.621537,3.865007,-0.005956,-0.035277,0.033598,30.99,67.1501966229154
9312,-8.442476,-3.623332,3.873382,-0.001374,-0.046731,0.04047,31,67.1393161756364
9322,-8.436494,-3.627519,3.88056,0.002749,-0.056352,0.047953,31,67.0927221662486
9332,-8.440084,-3.632903,3.906283,0.00672,-0.064752,0.054978,30.97,66.9688722286055
9342,-8.435897,-3.619742,3.909872,0.010232,-0.072693,0.061392,30.97,66.9295887098616
9352,-8.447262,-3.617948,3.936193,0.013592,-0.078954,0.06521,30.94,66.8126715268286
9362,-8.445468,-3.61376,3.942773,0.017562,-0.083078,0.06857,30.94,66.7705628324322
9372,-8.450253,-3.608975,3.955336,0.020617,-0.086437,0.072388,30.97,66.7101328051754
9382,-8.464012,-3.616153,3.976871,0.023213,-0.08827,0.073304,30.97,66.6320589480988
9392,-8.473583,-3.611966,3.987041,0.024587,-0.089492,0.073762,30.98,66.5949767294253
9402,-8.470592,-3.616751,4.01396,0.026725,-0.088881,0.073457,30.98,66.4521170614338
9412,-8.472985,-3.59402,4.037888,0.026878,-0.087659,0.066584,30.98,66.3118099256336
9422,-8.483154,-3.59402,4.03729,0.026267,-0.083078,0.062919,31.03,66.3363546604484
9432,-8.485548,-3.595216,4.053442,0.02474,-0.079718,0.05681,31.03,66.2582634045838
9442,-8.488539,-3.58744,4.067201,0.021991,-0.075136,0.049938,30.98,66.1859938781148
9452,-8.486146,-3.578466,4.071986,0.019395,-0.071166,0.043371,30.98,66.1480028679403
9462,-8.490333,-3.576672,4.070191,0.016035,-0.065057,0.03543,30.99,66.164614490012
9472,-8.496315,-3.571886,4.082156,0.011148,-0.060628,0.027489,30.99,66.1108063120775
9482,-8.496315,-3.5671,4.076173,0.006567,-0.055436,0.018937,30.97,66.1376442480908
9492,-8.496913,-3.572484,4.096512,0.001069,-0.050855,0.009316,30.97,66.0380468320356
9502,-8.551949,-3.542574,3.998407,-0.003818,-0.045815,0.002138,31.01,66.6380966039005
9512,-8.66142,-3.461218,3.872185,0.013286,-0.032529,-0.022297,31.01,67.4546454712123
9522,-8.455637,-3.56411,4.096512,0.030238,-0.020006,-0.048564,31.01,65.9424316401103
9532,-8.477771,-3.533002,4.09711,0.022755,-0.013744,-0.052687,31.01,65.9588039425516
9542,-8.44427,-3.553342,4.08754,0.015577,-0.006872,-0.057116,30.99,65.9551014531005
9552,-8.462815,-3.544369,4.088736,0.007483,-0.000916,-0.06017,30.99,65.9805397747578
9562,-8.452645,-3.533601,4.088736,0.000153,0.004429,-0.064294,30.97,65.9490680326387
9572,-8.455637,-3.538387,4.074977,-0.00672,0.009774,-0.065668,30.97,66.0315583645135
9582,-8.431709,-3.544966,4.068397,-0.013134,0.014966,-0.071471,30.98,66.0205841721215
9592,-8.438888,-3.546163,4.067799,-0.025045,0.024435,-0.072693,30.98,66.0401724527141
9603,-8.421539,-3.533601,4.057031,-0.029627,0.030238,-0.074067,30.98,66.0480224072823
9612,-8.439486,-3.540181,4.058227,-0.034056,0.034667,-0.074984,30.97,66.0861328152301
9622,-8.419147,-3.549752,4.063612,-0.038026,0.039401,-0.075442,30.97,66.0229993165694
9632,-8.420941,-3.536592,4.051647,-0.040775,0.043524,-0.074678,30.99,66.0776486929475
9642,-8.416754,-3.549154,4.032505,-0.042302,0.048258,-0.073762,30.99,66.180411683621
9652,-8.410771,-3.549154,4.03729,-0.044135,0.05284,-0.071471,30.97,66.1425062509251
9662,-8.413164,-3.551547,4.021737,-0.044135,0.056658,-0.069791,30.97,66.2314614725966
9672,-8.407781,-3.559324,4.012166,-0.044899,0.060323,-0.06689,30.99,66.277315783164
9682,-8.41137,-3.553342,4.026522,-0.043677,0.064599,-0.062766,30.99,66.2041108429945
9692,-8.416155,-3.57069,4.006183,-0.042302,0.068111,-0.059865,31,66.3368048045405
9702,-8.414959,-3.568297,4.006183,-0.040775,0.071624,-0.054062,31,66.3321144556394
9712,-8.4012,-3.567699,3.997808,-0.038943,0.074373,-0.048411,30.96,66.3464451927679
9722,-8.404789,-3.578466,3.990032,-0.037568,0.076969,-0.040928,30.96,66.4047177261308
9732,-8.408977,-3.575475,3.974478,-0.035125,0.079107,-0.033903,30.98,66.4928501886373
9742,-8.408379,-3.591029,3.9673,-0.031918,0.080787,-0.025656,30.98,66.5434098800128
9752,-8.429317,-3.604787,3.949354,-0.029627,0.080176,-0.018021,30.98,66.6942455761929
9762,-8.425129,-3.599404,3.939782,-0.024282,0.077885,0.000764,30.98,66.7311885524884
9772,-8.421539,-3.605984,3.92722,-0.022755,0.074067,0.009316,31.01,66.7959060423424
9782,-8.438888,-3.616153,3.92722,-0.018784,0.069944,0.01741,30.96,66.8410110331412
9792,-8.437692,-3.6006,3.908078,-0.015577,0.064294,0.026267,30.96,66.9258324158666
9802,-8.444869,-3.614957,3.911069,-0.014661,0.057574,0.033598,30.96,66.93757484598
9812,-8.44427,-3.61735,3.901497,-0.012828,0.049633,0.041386,30.96,66.989013337597
9822,-8.453244,-3.612564,3.896712,-0.011148,0.040775,0.048717,30.95,67.02857101429
9832,-8.46102,-3.624528,3.887738,-0.009468,0.031001,0.054825,30.95,67.1024796148565
9842,-8.462217,-3.629314,3.891926,-0.008094,0.020159,0.060323,30.95,67.0870253951323
9852,-8.47119,-3.624528,3.881158,-0.00672,0.008552,0.063835,30.95,67.1580622910257
9862,-8.472985,-3.632305,3.888337,-0.005956,-0.00336,0.067195,30.99,67.1306493806975
9872,-8.491529,-3.632903,3.895515,-0.006109,-0.01573,0.069028,30.99,67.1312355426323
9882,-8.488539,-3.6341,3.88714,-0.005803,-0.027794,0.07025,30.98,67.1703044269714
9892,-8.490333,-3.629912,3.903292,-0.006567,-0.040012,0.07086,30.98,67.0852260392296
9902,-8.508279,-3.633501,3.908676,-0.007636,-0.051924,0.069639,31.01,67.0967236844998
9912,-8.507681,-3.624528,3.911069,-0.008094,-0.06353,0.069028,31.01,67.0751050137012
9922,-8.505887,-3.629912,3.85723,-0.009927,-0.074067,0.066279,30.99,67.3596713048584
9932,-8.59801,-3.614957,3.890131,-0.010996,-0.107818,0.039248,30.99,67.3599128797918
9942,-8.487941,-3.619144,3.957131,0.006261,-0.123089,0.023518,30.94,66.7879429526408
9952,-8.478369,-3.607778,3.965506,0.003971,-0.128129,0.021838,31,66.714126607742
9962,-8.466404,-3.609573,3.996014,0.001833,-0.131031,0.019853,31,66.5308460296825
9972,-8.469995,-3.604189,4.00379,-0.000764,-0.132558,0.01741,31.01,66.4928473599472
9982,-8.468798,-3.598805,4.023531,-0.001833,-0.132863,0.015272,31.01,66.3822690326619
9992,-8.574679,-3.548556,3.962514,-0.002902,-0.132252,0.010079,30.98,66.8776342560856
10002,-8.445468,-3.585046,4.051049,0.003054,-0.136376,-0.004429,30.98,66.1767751804102
10012,-8.44427,-3.583252,4.063612,0.002749,-0.132252,-0.00901,30.99,66.1069826753684
10022,-8.446067,-3.58385,4.082156,0.000305,-0.125686,-0.01237,30.99,66.0146085444776
10032,-8.455039,-3.55394,4.062415,-0.000611,-0.115912,-0.015119,30.99,66.1098015128042
10042,-8.438289,-3.563511,4.074977,0.001985,-0.104916,-0.022297,30.99,66.0170341077546
10052,-8.426325,-3.568895,4.131807,0.002291,-0.093004,-0.027947,30.97,65.700037945117
10062,-8.429317,-3.557529,4.124628,-0.000305,-0.079871,-0.03207,30.97,65.73346769532
10072,-8.452645,-3.547958,4.113262,0.000611,-0.06353,-0.035277,31,65.8342434332481
10082,-8.410173,-3.555735,4.143771,0.001527,-0.047189,-0.041539,31,65.5906955795921
10092,-8.426325,-3.55394,4.139583,-0.000916,-0.031765,-0.04383,30.96,65.6459124734436
10102,-8.408977,-3.540779,4.158726,-0.001374,-0.014203,-0.051924,30.96,65.4965484656912
10112,-8.416155,-3.533002,4.131208,-0.006567,0.019548,-0.05452,30.98,65.6482881751039
10122,-8.417951,-3.534797,4.130012,-0.007789,0.036957,-0.058032,30.98,65.6600606573268
10132,-8.418548,-3.549154,4.138985,-0.009927,0.052534,-0.058032,30.98,65.6277632797841
10142,-8.419147,-3.543172,4.12044,-0.012981,0.067348,-0.059101,30.96,65.7201729421859
10152,-8.408379,-3.549154,4.106084,-0.01573,0.08094,-0.059101,30.96,65.7772026130225
10162,-8.411968,-3.546762,4.082156,-0.018784,0.094073,-0.059101,30.96,65.9078143636381
10172,-8.416155,-3.533601,4.050451,-0.01741,0.109803,-0.057574,30.96,66.0709606496142
10182,-8.416155,-3.55394,4.071388,-0.016035,0.124617,-0.055894,30.99,65.9796714252326
10192,-8.41436,-3.56411,4.06062,-0.019242,0.131336,-0.053145,30.99,66.0414102884711
10202,-8.421539,-3.558726,4.038486,-0.022144,0.136987,-0.04948,30.98,66.1678697813432
10212,-8.412566,-3.565904,4.018745,-0.02474,0.140041,-0.047189,30.98,66.2588446429204
10222,-8.41137,-3.564708,3.999005,-0.026878,0.141721,-0.041844,30.97,66.3590341412201
10232,-8.419147,-3.573681,3.978068,-0.027489,0.140652,-0.036652,30.97,66.4937787009649
10242,-8.43111,-3.571288,3.963113,-0.028405,0.138666,-0.030543,30.95,66.5956207997214
10252,-8.432307,-3.580261,3.943372,-0.029322,0.13439,-0.023976,30.95,66.7102064128171
10262,-8.4347,-3.582056,3.931407,-0.028405,0.129351,-0.018021,30.96,66.7799525776519
10272,-8.44128,-3.598805,3.89731,-0.028405,0.122937,-0.011454,30.96,66.9886123737212
10282,-8.437692,-3.602993,3.884149,-0.02642,0.104611,0.002443,30.97,67.0545520997621
10292,-8.440681,-3.595216,3.875176,-0.024893,0.093921,0.008705,30.98,67.1014131646852
10302,-8.442476,-3.602993,3.872185,-0.023518,0.082467,0.014966,30.98,67.1277797940724
10312,-8.458031,-3.603591,3.863212,-0.021838,0.07025,0.021686,30.99,67.20775653623
10322,-8.462217,-3.608377,3.863212,-0.020159,0.056505,0.027489,30.99,67.2204974190452
10332,-8.467003,-3.612564,3.858427,-0.018784,0.043219,0.033445,31.02,67.2592574245733
10342,-8.467602,-3.603591,3.862614,-0.016188,0.030391,0.038485,31.02,67.2305056072587
10352,-8.465807,-3.60718,3.854239,-0.015119,0.016952,0.043524,30.96,67.2743087655681
10362,-8.469396,-3.602993,3.864408,-0.013592,0.004429,0.047953,30.96,67.2241579341233
10372,-8.466404,-3.614359,3.876373,-0.01237,-0.008399,0.051771,30.97,67.1646589147137
10382,-8.475977,-3.604787,3.881757,-0.010996,-0.020922,0.055894,30.97,67.1474596965479
10392,-8.477173,-3.605386,3.890131,-0.010232,-0.032376,0.057879,30.97,67.1062157177166
10402,-8.481958,-3.611966,3.902694,-0.010079,-0.042455,0.059101,30.97,67.0555180389459
10412,-8.488539,-3.61376,3.90389,-0.009927,-0.052229,0.060476,30.96,67.0642863635466
10422,-8.489137,-3.613162,3.924827,-0.009774,-0.060934,0.061697,30.96,66.9548022712529
10432,-8.495118,-3.605984,3.933203,-0.009316,-0.068264,0.061087,30.99,66.9168105779672
10442,-8.492128,-3.595216,3.954738,-0.01069,-0.075136,0.058948,30.99,66.7881158442532
10452,-8.499905,-3.591627,3.961318,-0.010843,-0.085827,0.055589,30.99,66.7665749648699
10462,-8.514261,-3.591029,3.978666,-0.013286,-0.089644,0.052534,30.96,66.704979841217
10472,-8.509476,-3.59043,3.985844,-0.014355,-0.092852,0.047953,30.96,66.656973046701
10482,-8.507681,-3.577868,3.999603,-0.01573,-0.095448,0.043219,30.99,66.5702750513463
10492,-8.502895,-3.585645,4.0008,-0.01741,-0.097738,0.038485,30.99,66.560864341492
10502,-8.671589,-3.588636,3.852444,-0.018631,-0.098502,0.03207,30.98,67.6819691179425
10512,-8.531011,-3.559324,3.993023,0.002138,-0.101098,0.002749,30.98,66.6371051281271
10522,-8.471789,-3.565306,4.039683,0.008094,-0.100335,-0.011301,30.99,66.2742812551552
10532,-8.479566,-3.564708,4.051049,0.005345,-0.097586,-0.014203,30.99,66.2308757143385
10542,-8.480762,-3.566502,4.04746,0.001374,-0.094073,-0.017104,30.96,66.2537298865381
10552,-8.458031,-3.562315,4.050451,-0.00168,-0.089644,-0.018784,30.96,66.1861712082077
10562,-8.460423,-3.557529,4.063612,-0.005651,-0.085521,-0.020464,31.01,66.1182434536688
10572,-8.460423,-3.557529,4.051049,-0.009468,-0.078954,-0.024587,31.01,66.1838498870161
10582,-8.485548,-3.523431,3.948158,-0.005956,-0.066432,-0.030085,31.03,66.7463804563233
10592,-8.447262,-3.555735,4.078567,0.001833,-0.049327,-0.037874,31.03,66.0104815253437
10602,-8.452645,-3.555136,4.082156,-0.002138,-0.042913,-0.040012,30.97,66.0027402487711
10612,-8.441879,-3.549752,4.067201,-0.006109,-0.036805,-0.042608,30.97,66.0529290590316
10622,-8.443074,-3.558726,4.071986,-0.009927,-0.030696,-0.046578,30.97,66.0385701669033
10632,-8.447262,-3.537788,4.018147,-0.017257,-0.018326,-0.048258,30.98,66.3105494792786
10642,-8.437692,-3.548556,4.057031,-0.013897,-0.005192,-0.052382,30.98,66.0960758406571
10652,-8.428718,-3.558726,4.064209,-0.014966,0.003054,-0.053451,30.98,66.0484993351935
10662,-8.436494,-3.549752,4.058227,-0.017868,0.008552,-0.053756,30.98,66.0883334178177
10672,-8.411968,-3.562315,4.060022,-0.020769,0.013897,-0.053909,30.99,66.0377867887902
10682,-8.429317,-3.562315,4.048656,-0.023366,0.019395,-0.053145,30.99,66.134411832924
10692,-8.420941,-3.571288,4.052843,-0.025198,0.02474,-0.051771,30.95,66.102716666281
10702,-8.409575,-3.571288,4.054638,-0.027794,0.030543,-0.050091,30.95,66.0690148247398
10712,-8.418548,-3.572484,4.042674,-0.029016,0.035888,-0.047342,30.96,66.1519623691272
10722,-8.407183,-3.568297,4.040879,-0.030238,0.041233,-0.045051,30.96,66.1333203418566
10732,-8.423334,-3.568297,4.042674,-0.031765,0.045357,-0.042913,30.94,66.1583826651146
10742,-8.420941,-3.573082,4.036094,-0.033445,0.050244,-0.039706,30.94,66.192094511364
10752,-8.408977,-3.580859,4.022335,-0.034208,0.05452,-0.036652,30.95,66.2458672999867
10762,-8.405388,-3.578466,4.023531,-0.034667,0.058796,-0.031765,30.95,66.2297818959148
10772,-8.427522,-3.584448,3.978068,-0.035583,0.062156,-0.027336,30.99,66.5210569638035
10782,-8.421539,-3.588037,3.978666,-0.031765,0.069944,-0.02642,30.99,66.5085334573472
10792,-8.426923,-3.594618,3.999005,-0.028405,0.077122,-0.02306,30.99,66.4188305821265
10802,-8.432307,-3.598805,3.988237,-0.030543,0.079871,-0.014661,30.99,66.4905055960329
10812,-8.423933,-3.59043,3.978068,-0.03207,0.07926,-0.009621,30.99,66.5188648772291
10822,-8.438888,-3.6006,3.973282,-0.033139,0.078802,-0.003512,31,66.5845393281806
10832,-8.44128,-3.592225,3.962514,-0.033139,0.076511,0.001069,31,66.6387275701337
10842,-8.455039,-3.605386,3.936193,-0.033139,0.073151,0.00504,30.97,66.8176684210524
10852,-8.469396,-3.606582,3.912265,-0.031612,0.069333,0.007636,30.97,66.9745095429581
10862,-8.449656,-3.611368,3.938586,-0.027336,0.064904,0.00901,30.95,66.7991911898684
10872,-8.448458,-3.625126,3.915256,-0.027031,0.059254,0.01405,30.95,66.9318930287526
10882,-8.449057,-3.612564,3.914658,-0.02642,0.052687,0.020159,30.93,66.9251696319652
10892,-8.457432,-3.610171,3.911667,-0.026267,0.045051,0.025351,30.93,66.9561406574025
10902,-8.460423,-3.619144,3.895515,-0.025504,0.036652,0.030849,30.98,67.0554501189702
10912,-8.477173,-3.622734,3.869792,-0.021533,0.027642,0.033292,30.98,67.2287578797276
10922,-8.450851,-3.616153,3.89073,-0.017104,0.018021,0.034819,30.96,67.0584179467787
10932,-8.46102,-3.619144,3.884748,-0.014355,0.008858,0.03879,30.96,67.1135501558838
10942,-8.48136,-3.631706,3.882953,-0.010385,-0.001985,0.041692,30.97,67.1756438113534
10952,-8.445468,-3.611966,3.89731,-0.007178,-0.012675,0.043371,30.97,67.0088594374829
10962,-8.467003,-3.619742,3.897908,-0.004123,-0.022907,0.048258,30.95,67.0568627131349
10972,-8.466404,-3.613162,3.909274,0.001527,-0.043677,0.050244,30.95,66.9898946828368
10982,-8.509476,-3.606582,3.893123,0.008705,-0.053298,0.050855,30.98,67.1575930965211
10992,-8.501699,-3.604787,3.911069,0.014966,-0.067195,0.047189,30.96,67.0456682212414
11002,-8.470592,-3.606582,3.926622,0.018479,-0.077733,0.045509,30.96,66.901334209538
11012,-8.449656,-3.605386,3.946961,0.021075,-0.084452,0.045509,30.98,66.7497772323274
11022,-8.459227,-3.604189,3.957729,0.022755,-0.090103,0.046731,30.98,66.711982337947
11032,-8.515458,-3.588636,3.948756,0.022602,-0.094531,0.045815,30.94,66.8620037269229
11042,-8.513663,-3.585645,3.978666,0.027336,-0.105069,0.038026,30.94,66.6990279412
11052,-8.465807,-3.577868,4.015755,0.028405,-0.111941,0.031154,30.96,66.3979693689484
11062,-8.475378,-3.584448,4.038486,0.026878,-0.111025,0.029474,30.96,66.3051838765672
11072,-8.544769,-3.568297,4.025924,0.02642,-0.114079,0.023976,30.97,66.5020649545764
11082,-8.462217,-3.582056,4.055236,0.027184,-0.118508,0.014355,30.97,66.1877680541078
11092,-8.504689,-3.556931,4.056432,0.022907,-0.116828,0.009316,31,66.2490783401404
11102,-8.469396,-3.572484,4.074977,0.021991,-0.115301,0.000458,31,66.0914950097694
11112,-8.473583,-3.571288,4.091727,0.018631,-0.109803,-0.005192,30.96,66.0121524092894
11122,-8.490333,-3.543172,4.088736,0.014813,-0.101709,-0.011912,30.96,66.0382838094283
11132,-8.458628,-3.549752,4.106084,0.011148,-0.092852,-0.019242,30.97,65.8860738273042
11142,-8.447262,-3.554538,4.129414,0.006872,-0.067653,-0.032834,30.97,65.7446153135766
11152,-8.459825,-3.543172,4.125825,-0.002291,-0.053756,-0.038332,30.97,65.7800705381574
11162,-8.444869,-3.541378,4.131208,-0.006109,-0.038943,-0.044899,30.95,65.7181764381779
11172,-8.443673,-3.546762,4.149753,-0.010996,-0.023671,-0.050244,30.95,65.6241459270565
11182,-8.434101,-3.538985,4.127021,-0.016952,-0.009316,-0.055589,30.94,65.7144796808729
11192,-8.440084,-3.545565,4.125226,-0.021228,0.00672,-0.060018,30.94,65.742740049603
11202,-8.419745,-3.554538,4.133601,-0.025656,0.021991,-0.065057,30.96,65.663309131727
11212,-8.427522,-3.547958,4.122834,-0.03146,0.035888,-0.068111,30.96,65.7301993811106
11222,-8.430512,-3.54736,4.127619,-0.036194,0.048258,-0.070097,30.98,65.7112160364323
11232,-8.423933,-3.553342,4.104887,-0.040928,0.059712,-0.071471,30.98,65.8208763212415
11242,-8.414959,-3.54736,4.088736,-0.045204,0.071166,-0.072998,31.02,65.8804027254045
11252,-8.409575,-3.542574,4.082754,-0.047953,0.082161,-0.073457,31.02,65.8957212921875
11262,-8.407781,-3.568297,4.072584,-0.050244,0.091324,-0.073304,30.95,65.9684813114586
11272,-8.413164,-3.554538,4.056432,-0.052076,0.098502,-0.069944,30.95,66.0521056006148
11282,-8.393424,-3.56411,4.038486,-0.054214,0.103236,-0.067195,30.96,66.1126495649641
11292,-8.402995,-3.578466,4.02413,-0.054825,0.108887,-0.061697,30.96,66.2215402096831
11302,-8.4012,-3.576073,3.986442,-0.05452,0.112094,-0.055741,30.99,66.4138782109528
11312,-8.402397,-3.588037,3.969095,-0.05452,0.114079,-0.041997,30.99,66.5186526431067
11322,-8.392825,-3.59043,3.964907,-0.051465,0.114385,-0.034056,31.01,66.5227335708169
11332,-8.413164,-3.609573,3.918845,-0.047647,0.113774,-0.025045,30.97,66.8259491443186
11342,-8.404789,-3.6006,3.9338,-0.041692,0.113163,-0.018631,30.97,66.7213668599431
11352,-8.404789,-3.599404,3.921836,-0.037568,0.111025,-0.009774,30.98,66.7835880593317
11362,-8.400003,-3.603591,3.906881,-0.034972,0.10568,0.000916,30.98,66.8565609975593
11372,-8.43111,-3.608975,3.878167,-0.029474,0.100029,0.010537,30.96,67.0779485676932
11382,-8.406584,-3.616751,3.881757,-0.024587,0.092546,0.018021,30.96,67.015179900587
11392,-8.408379,-3.618546,3.876971,-0.0197,0.083841,0.026267,30.96,67.0458817368291
11402,-8.447262,-3.619742,3.858427,-0.014813,0.07422,0.034667,30.96,67.225194108207
11412,-8.446664,-3.626323,3.866203,-0.009927,0.063072,0.041539,30.98,67.1885473125422
11422,-8.462815,-3.623332,3.872185,-0.005345,0.051007,0.04612,30.98,67.1873084039275
11432,-8.454441,-3.617948,3.869194,-0.000916,0.038485,0.051313,30.98,67.1812828441609
11442,-8.469396,-3.625126,3.86381,0.003054,0.025962,0.05849,30.98,67.2466072484378
11452,-8.487941,-3.621537,3.860819,0.006872,0.011759,0.060628,31,67.2970583304366
11462,-8.479566,-3.63051,3.875774,0.009927,-0.00168,0.063683,31,67.2088265714572
11472,-8.490931,-3.62393,3.876373,0.012217,-0.015272,0.067501,30.98,67.2230980525599
11482,-8.539386,-3.620939,3.891328,0.013744,-0.028253,0.068417,30.98,67.2403000121178
11492,-8.492128,-3.612564,3.91406,0.018479,-0.058032,0.062919,30.92,67.0170659124178
11502,-8.505288,-3.613162,3.921836,0.018479,-0.069333,0.06353,31.01,67.0037187040607
11512,-8.548359,-3.611966,3.914658,0.01741,-0.080481,0.060476,31.01,67.1284061040611
11522,-8.519646,-3.609573,3.942773,0.017868,-0.092393,0.054214,30.97,66.9202228618448
11532,-8.508279,-3.60718,3.961916,0.016952,-0.102167,0.049633,30.97,66.7944056933713
11542,-8.523234,-3.595814,3.967898,0.013897,-0.109192,0.045051,30.98,66.7840733324152
11552,-8.516056,-3.588636,3.985844,0.011759,-0.116828,0.037874,30.98,66.669077527573
11562,-8.514261,-3.586243,4.001398,0.010232,-0.121257,0.031154,30.96,66.5819771575548
11572,-8.514261,-3.567699,4.015156,0.008247,-0.124311,0.023671,30.96,66.4938764754195
11582,-8.496913,-3.571886,4.0337,0.005498,-0.125838,0.015577,30.96,66.3643835171162
11592,-8.505288,-3.559922,4.043272,0.001374,-0.126296,0.008247,30.96,66.3215412695982
11602,-8.492725,-3.566502,4.048656,-0.000916,-0.124006,0.000458,30.97,66.2727856225469
11612,-8.480165,-3.565904,4.071388,-0.003818,-0.118813,-0.008247,30.97,66.1271950015797
11622,-8.474181,-3.550351,4.073183,-0.006872,-0.112246,-0.015119,30.99,66.0912190166237
11632,-8.465807,-3.548556,4.086941,-0.008094,-0.103236,-0.022755,30.99,66.0000493153671
11642,-8.461619,-3.558726,4.079165,-0.009774,-0.092393,-0.029016,30.99,66.0407436757464
11652,-8.450851,-3.544966,4.100101,-0.011148,-0.080176,-0.033903,30.99,65.896200871669
11662,-8.4347,-3.540779,4.075575,-0.013592,-0.05284,-0.04444,30.98,65.9857025318308
11672,-8.412566,-3.557529,4.109075,-0.014508,-0.037263,-0.047953,31.02,65.7783012833979
11682,-8.418548,-3.552145,4.08395,-0.017257,-0.023671,-0.048869,31.02,65.9174955229757
11692,-8.403594,-3.545565,4.096512,-0.015577,-0.006567,-0.051771,30.98,65.8135788044593
11702,-8.42453,-3.549752,4.098905,-0.01741,0.00672,-0.053603,30.98,65.8501071790973
11712,-8.421539,-3.547958,4.064807,-0.017868,0.019395,-0.053451,30.98,66.0202536546077
11722,-8.416754,-3.562913,4.101298,-0.016493,0.033292,-0.054672,30.98,65.832838226221
11732,-8.412566,-3.557529,4.079165,-0.018173,0.044746,-0.054062,30.95,65.9345341900805
11742,-8.419745,-3.558127,4.062415,-0.01741,0.056047,-0.053145,30.95,66.0381275064325
11753,-8.415558,-3.554538,4.071986,-0.017562,0.066584,-0.052076,30.94,65.9758025132567
11762,-8.410173,-3.565306,4.055236,-0.018326,0.073915,-0.049786,30.94,66.0617280112241
11772,-8.410771,-3.568297,4.045665,-0.018631,0.082009,-0.0478,31,66.1158865754781
11782,-8.418548,-3.56411,4.045067,-0.019242,0.089492,-0.044135,31,66.1318454240014
11792,-8.420342,-3.575475,4.025924,-0.01909,0.094531,-0.03879,30.93,66.2463217413417
11802,-8.420342,-3.5671,4.016951,-0.019548,0.098655,-0.036194,30.93,66.2858779333288
11812,-8.427522,-3.572484,4.016951,-0.020006,0.101862,-0.032376,30.93,66.3059598745278
11822,-8.422735,-3.582056,3.99063,-0.020617,0.103084,-0.027642,30.93,66.4427301546174
11832,-8.443673,-3.577868,3.974478,-0.020617,0.104305,-0.019395,30.95,66.5680155521413
11842,-8.441879,-3.582056,3.9673,-0.021991,0.102625,-0.015119,30.96,66.6057436816526
11852,-8.447861,-3.591627,3.955934,-0.02306,0.100029,-0.010537,30.96,66.6865847090268
11862,-8.455637,-3.592225,3.94397,-0.025198,0.096364,-0.00672,30.99,66.7663119563863
11872,-8.452048,-3.583252,3.942175,-0.026573,0.090255,-0.002138,30.99,66.7603667256264
11882,-8.454441,-3.597609,3.927818,-0.027642,0.08323,0.001527,30.98,66.8536913244281
11892,-8.458628,-3.597609,3.921836,-0.029169,0.076511,0.005345,30.98,66.8939097756389
11902,-8.46102,-3.603591,3.918247,-0.030696,0.068875,0.010843,30.97,66.9230504343411
11912,-8.455039,-3.597011,3.913461,-0.031612,0.060628,0.015882,30.97,66.9301402736643
11922,-8.477173,-3.601796,3.886542,-0.03146,0.050855,0.017715,30.98,67.122033584936
11932,-8.48136,-3.616153,3.887738,-0.028558,0.04047,0.018784,30.98,67.1368166077403
11942,-8.463414,-3.611966,3.900899,-0.027947,0.031154,0.021838,30.97,67.0268713080563
11952,-8.457432,-3.596412,3.898506,-0.027794,0.021228,0.025809,30.97,67.0135329082586
11962,-8.481958,-3.601796,3.891926,-0.028253,0.011148,0.028863,30.97,67.1034283252637
11972,-8.473583,-3.608975,3.876971,-0.026573,0.000458,0.029627,30.97,67.1714940537028
11982,-8.479566,-3.601796,3.888935,-0.023366,-0.010537,0.031765,30.95,67.1143072864067
11992,-8.477771,-3.598805,3.890131,-0.021533,-0.020922,0.033903,30.95,67.1017051147471
12002,-8.484351,-3.602395,3.899703,-0.018326,-0.031001,0.034819,30.96,67.0678423823002
12012,-8.473583,-3.601198,3.911069,-0.011148,-0.050091,0.035736,30.96,66.9847239193549
12022,-8.456235,-3.598805,3.915854,-0.008705,-0.060018,0.036499,30.96,66.9215648605027
12032,-8.518449,-3.605984,3.902096,-0.00672,-0.069333,0.036041,30.96,67.1281883794965
12042,-8.464012,-3.596412,3.930809,-0.001069,-0.078038,0.034361,30.96,66.8567151208183
12052,-8.483753,-3.600002,3.939782,0.001222,-0.083994,0.034819,30.97,66.8535267288862
12062,-8.468798,-3.59043,3.94397,0.004887,-0.091935,0.032376,30.97,66.792088284528
12072,-8.492725,-3.580859,3.955934,0.00733,-0.097586,0.030849,30.95,66.7704945354382
12082,-8.476574,-3.578466,3.972086,0.010079,-0.103236,0.026573,30.95,66.6499842995694
12092,-8.477173,-3.580859,3.988237,0.01237,-0.105832,0.023671,30.99,66.5686319147999
12102,-8.487941,-3.578466,3.991827,0.013744,-0.109803,0.019853,30.99,66.570236070953
12112,-8.471789,-3.583252,4.018745,0.014813,-0.11301,0.015119,31.01,66.399713626474
12122,-8.489137,-3.578466,4.026522,0.014661,-0.114079,0.011148,31.01,66.3913161513303
12132,-8.467602,-3.565306,4.046861,0.014813,-0.115912,0.006109,31.02,66.2279163975553
12142,-8.489736,-3.555136,4.057031,0.011759,-0.116675,0.001985,31.02,66.212719394157
12152,-8.453843,-3.555136,4.068995,0.010079,-0.114995,-0.003054,30.99,66.0739668900338
12162,-8.451449,-3.564708,4.067799,0.007941,-0.109039,-0.005192,30.99,66.0837038920561
12172,-8.456833,-3.56052,4.095914,0.005956,-0.100793,-0.009621,30.94,65.9448675793574
12182,-8.451449,-3.561118,4.092325,0.004734,-0.078496,-0.014813,30.94,65.9525662267276
12192,-8.44128,-3.5671,4.1007,0.001222,-0.066126,-0.018937,31.02,65.8925392673663
12202,-8.44128,-3.558726,4.113262,-0.001527,-0.053298,-0.02306,30.99,65.8195267882517
12212,-8.437093,-3.558726,4.112065,-0.004887,-0.040928,-0.02642,30.99,65.8167395160759
12222,-8.44128,-3.559922,4.116851,-0.008247,-0.027031,-0.02978,30.95,65.8019350851396
12232,-8.428718,-3.5671,4.115057,-0.012065,-0.014966,-0.034056,30.95,65.7907340595918
12242,-8.429317,-3.553342,4.09711,-0.016035,-0.00168,-0.03711,30.98,65.8730469903394
12252,-8.430512,-3.561118,4.11386,-0.019395,0.01237,-0.041081,30.98,65.7953823587736
12262,-8.417352,-3.574279,4.113262,-0.023518,0.024129,-0.041997,30.97,65.7821341072762
12273,-8.420342,-3.558127,4.089932,-0.0281,0.036194,-0.042913,30.97,65.8955406183084
12282,-8.412566,-3.562913,4.096512,-0.029474,0.049175,-0.046273,30.96,65.8487906649698
12292,-8.420342,-3.580859,4.085745,-0.032834,0.060323,-0.047953,30.96,65.9381101400465
12302,-8.422137,-3.565306,4.069593,-0.036499,0.071013,-0.049175,30.95,66.0122055140155
12312,-8.417951,-3.566502,4.078567,-0.038179,0.080329,-0.049022,30.95,65.9573962602109
12322,-8.408379,-3.579065,4.065406,-0.040928,0.089492,-0.048869,30.97,66.0171462979631
12332,-8.408379,-3.574279,4.045665,-0.043219,0.096364,-0.046273,30.97,66.1162036369529
12342,-8.412566,-3.580859,4.003192,-0.044135,0.104305,-0.045357,30.98,66.3540841470771
12352,-8.413164,-3.580261,4.004987,-0.042913,0.113926,-0.041539,30.98,66.3453736218624
12362,-8.411968,-3.582056,4.008576,-0.041386,0.1237,-0.037721,30.97,66.3255908318888
12372,-8.416754,-3.595216,3.979264,-0.042913,0.125991,-0.033139,31,66.5017593284055
12382,-8.435298,-3.589234,3.96072,-0.042302,0.127824,-0.027947,31,66.6329895675364
12392,-8.426325,-3.595814,3.968496,-0.039248,0.12874,-0.023976,30.98,66.5791076329669
12402,-8.421539,-3.602993,3.9338,-0.036957,0.128129,-0.018021,30.98,66.7584818211099
12412,-8.436494,-3.6006,3.917051,-0.034972,0.127213,-0.012675,30.96,66.8759302336874
12422,-8.432905,-3.61077,3.922434,-0.03146,0.124311,-0.007789,30.96,66.8490729910829
12432,-8.453843,-3.610171,3.900301,-0.0281,0.118966,-0.002902,31.02,67.0087393606549
12442,-8.446067,-3.610171,3.911069,-0.025198,0.110567,0.000458,31.02,66.9358194561615
12452,-8.44427,-3.606582,3.904488,-0.021838,0.102167,0.007178,30.96,66.9636989977355
12462,-8.470592,-3.614359,3.879962,-0.021075,0.092699,0.015424,30.96,67.1542651137878
12472,-8.489736,-3.616751,3.863212,-0.016646,0.08094,0.018937,30.97,67.2839157754458
12482,-8.451449,-3.615555,3.87398,-0.012523,0.06857,0.023824,30.97,67.1477203666236
12492,-8.490931,-3.601796,3.836293,-0.009621,0.055741,0.030849,30.96,67.4158158005294
12502,-8.472985,-3.611368,3.845864,-0.005345,0.040623,0.032834,30.96,67.336936913639
12512,-8.487941,-3.606582,3.848855,-0.002138,0.02642,0.038332,30.98,67.3473737941957
12522,-8.476574,-3.615555,3.854837,0.001985,0.010843,0.041233,30.98,67.3003695076915
12532,-8.495717,-3.614957,3.844069,0.007789,-0.019548,0.048258,31.02,67.395697661697
12542,-8.495717,-3.602395,3.864408,0.011606,-0.035125,0.049327,30.97,67.2773521180613
12552,-8.508279,-3.597609,3.861418,0.013744,-0.050855,0.052534,30.97,67.314579730315
12562,-8.499905,-3.596412,3.875774,0.016035,-0.064752,0.052229,30.99,67.2207122178839
12572,-8.496315,-3.605386,3.891926,0.016341,-0.078191,0.052993,30.99,67.1359614446837
12582,-8.516654,-3.599404,3.889533,0.016493,-0.090103,0.053451,31.01,67.1849449416103
12592,-8.520243,-3.595814,3.895515,0.018631,-0.103542,0.050396,31.01,67.1576896942221
12602,-8.497512,-3.592823,3.928416,0.018784,-0.115454,0.047953,30.99,66.9354103700628
12612,-8.525627,-3.573681,3.929613,0.017562,-0.125075,0.047342,30.99,66.9704362522683
12622,-8.496315,-3.569493,3.958327,0.01741,-0.135459,0.040317,30.96,66.7554536203789
12632,-8.493324,-3.571886,3.983452,0.016188,-0.142026,0.036041,30.96,66.6195621105118
12642,-8.525627,-3.566502,3.976871,0.012828,-0.146608,0.034361,30.96,66.7165771868747
12652,-8.489137,-3.573681,4.002594,0.011759,-0.153174,0.026267,30.96,66.5121593599009
12662,-8.495717,-3.565904,4.015755,0.00901,-0.155312,0.021533,30.97,66.4502846908888
12672,-8.496913,-3.561118,4.034897,0.006109,-0.155923,0.015882,30.97,66.3486184495016
12682,-8.469396,-3.558127,4.057629,0.003971,-0.155771,0.008247,30.96,66.1690970599259
12692,-8.443673,-3.550351,4.084548,0.000458,-0.150578,0.003818,30.96,65.9667308300528
12702,-8.468199,-3.54736,4.083352,-0.003818,-0.133627,-0.008094,30.93,66.0227892568597
12712,-8.427522,-3.549154,4.116253,-0.004123,-0.121409,-0.01405,30.96,65.7655668525153
12722,-8.435897,-3.533002,4.110869,-0.00733,-0.108429,-0.01909,30.96,65.7970617654666
12732,-8.416754,-3.54736,4.136592,-0.008858,-0.092546,-0.025351,30.97,65.6346775198811
12742,-8.42453,-3.550949,4.134199,-0.011759,-0.0759,-0.029627,30.97,65.6672900912793
12752,-8.431709,-3.537788,4.138985,-0.013134,-0.056963,-0.035125,30.93,65.6459613268181
12762,-8.416754,-3.541378,4.149154,-0.014813,-0.039706,-0.040164,30.93,65.5638370618143
12772,-8.417951,-3.550351,4.151547,-0.018173,-0.02138,-0.045509,30.98,65.5622311466507
12782,-8.416155,-3.536592,4.148556,-0.020769,-0.002596,-0.048717,30.98,65.5612577555749
12792,-8.423334,-3.541378,4.142574,-0.022907,0.015577,-0.053909,30.98,65.612378072189
12802,-8.423933,-3.552743,4.139583,-0.025809,0.032223,-0.057421,30.98,65.6396285693568
12812,-8.413763,-3.556333,4.131208,-0.028253,0.050702,-0.059712,30.98,65.6644368985487
12822,-8.410173,-3.555136,4.136592,-0.030543,0.067042,-0.062156,30.98,65.6275108739106
12832,-8.405987,-3.559324,4.116253,-0.03375,0.081245,-0.064294,30.97,65.7282651589321
12842,-8.412566,-3.555136,4.092325,-0.035277,0.09499,-0.065668,30.97,65.8635655994475
12852,-8.421539,-3.561118,4.08395,-0.037415,0.107512,-0.065363,30.98,65.9320796784918
12862,-8.41436,-3.568297,4.058227,-0.038943,0.11805,-0.065363,30.98,66.0577409714615
12872,-8.421539,-3.589234,4.03729,-0.040317,0.13271,-0.061087,30.99,66.2017121964179
12882,-8.42812,-3.582056,4.00379,-0.043219,0.138361,-0.057574,30.99,66.3849304807403
12892,-8.41436,-3.589832,4.003192,-0.043066,0.142484,-0.05452,30.99,66.3659776482969
12902,-8.420941,-3.585645,3.980461,-0.043371,0.142484,-0.048869,30.94,66.4956790708429
12912,-8.406584,-3.59043,3.962514,-0.043066,0.142332,-0.042608,30.94,66.5643413890418
12922,-8.422137,-3.603591,3.939184,-0.042608,0.140957,-0.037415,30.98,66.7318366638422
12932,-8.425129,-3.598805,3.930809,-0.040775,0.136987,-0.030085,30.98,66.7780298630697
12942,-8.420941,-3.611368,3.908078,-0.039095,0.131489,-0.021991,30.98,66.9006617311393
12952,-8.426325,-3.616153,3.893721,-0.036957,0.125533,-0.014508,30.98,66.992036698835
12962,-8.444869,-3.612564,3.884748,-0.034056,0.117439,-0.006872,30.99,67.0745893693646
12972,-8.443074,-3.619144,3.881757,-0.03146,0.106749,0.000305,30.99,67.0925203136359
12982,-8.434101,-3.615555,3.862016,-0.027642,0.0956,0.008247,30.99,67.1755265303522
12992,-8.448458,-3.618546,3.847061,-0.025809,0.082161,0.015424,30.99,67.2868583056653
13002,-8.435897,-3.628117,3.874578,-0.022602,0.067653,0.022144,30.93,67.123699632277
13012,-8.469995,-3.618546,3.848855,-0.0197,0.054825,0.030085,30.93,67.321243573799
13022,-8.458628,-3.622135,3.844069,-0.014508,0.039095,0.03543,30.96,67.3265900884894
13032,-8.449057,-3.628716,3.823133,-0.010843,0.024587,0.040775,30.96,67.4239800377208
13042,-8.460423,-3.620939,3.862016,-0.009163,0.010079,0.04948,30.96,67.2341304604608
13052,-8.483154,-3.613162,3.856632,-0.001222,-0.018326,0.054062,30.97,67.3021916028583
13062,-8.484351,-3.620341,3.876373,0.002443,-0.033139,0.056047,30.97,67.2065587412871
13072,-8.480165,-3.61735,3.886542,0.005803,-0.047037,0.057879,30.98,67.1417265826876
13082,-8.511868,-3.608975,3.89073,0.00901,-0.058338,0.059254,30.98,67.1771444527307
13092,-8.492128,-3.616153,3.906283,0.011912,-0.071319,0.057574,30.97,67.0611327235351
13102,-8.522635,-3.601796,3.909274,0.013592,-0.081398,0.057116,30.97,67.0953931198623
13112,-8.502296,-3.595814,3.940381,0.01573,-0.091935,0.053298,30.98,66.8850288046246
13122,-8.508279,-3.599404,3.941577,0.017257,-0.10064,0.050855,30.98,66.8942260274619
13132,-8.517851,-3.604189,3.954139,0.018173,-0.108581,0.046578,30.94,66.8522846865225
13142,-8.499905,-3.595814,3.979862,0.018479,-0.115606,0.041081,30.94,66.6731014979337
13152,-8.52443,-3.596412,3.972684,0.017562,-0.120646,0.036652,30.98,66.7620376494731
13162,-8.520243,-3.58744,3.998407,0.017562,-0.125686,0.030085,30.98,66.6111040707511
13172,-8.502895,-3.582654,4.017549,0.016493,-0.129503,0.023824,30.96,66.4707433797647
13182,-8.508877,-3.579065,4.02413,0.014966,-0.131794,0.016952,30.96,66.4457725019381
13192,-8.490333,-3.571288,4.03071,0.013286,-0.132252,0.010843,30.98,66.365605623813
13202,-8.487342,-3.557529,4.0337,0.011454,-0.129656,0.003971,30.98,66.3315046799367
13212,-8.473583,-3.559324,4.061816,0.008858,-0.124311,-0.001833,30.96,66.1572195496753
13222,-8.462217,-3.57069,4.076173,0.00504,-0.107818,-0.01237,30.96,66.0683643351655
13232,-8.456833,-3.563511,4.07737,0.002902,-0.097586,-0.016493,30.96,66.0441840492429
13242,-8.452645,-3.557529,4.082156,0.000611,-0.086743,-0.022144,30.99,66.0048944703094
13252,-8.437093,-3.556931,4.092325,-0.002291,-0.075136,-0.026267,30.99,65.9179836492928
13262,-8.447861,-3.546762,4.092923,-0.004276,-0.06185,-0.029932,30.97,65.9288031925864
13272,-8.432307,-3.556333,4.107878,-0.00672,-0.049786,-0.034361,30.97,65.8260614732935
13282,-8.4347,-3.553342,4.1007,-0.011301,-0.036957,-0.037415,30.97,65.8659132249597
13292,-8.43111,-3.550949,4.098905,-0.013134,-0.025504,-0.041081,30.97,65.8653733210111
13302,-8.418548,-3.557529,4.1007,-0.015577,-0.012981,-0.04383,31,65.8349168541869
13312,-8.432307,-3.567699,4.092325,-0.018937,-0.00168,-0.045509,31,65.9174720323579
13322,-8.427522,-3.555735,4.095914,-0.02138,0.009468,-0.047037,31.02,65.8775951618213
13332,-8.41137,-3.561118,4.097709,-0.024129,0.020006,-0.047189,31.02,65.8383218317339
13342,-8.400601,-3.557529,4.076173,-0.026573,0.030543,-0.046578,30.97,65.9244342426052
13352,-8.399406,-3.559922,4.074379,-0.026878,0.041539,-0.047037,30.97,65.9334369281476
13362,-8.412566,-3.564708,4.063013,-0.0281,0.050091,-0.045662,30.98,66.0255791056776
13372,-8.406584,-3.562913,4.065406,-0.028711,0.059712,-0.042913,30.98,65.9985832738038
13382,-8.406584,-3.575475,4.034299,-0.030085,0.068417,-0.041997,31,66.1730798881395
13392,-8.4012,-3.579065,4.050451,-0.029932,0.08323,-0.035736,31,66.0801166100418
13402,-8.411968,-3.5671,4.013362,-0.031307,0.089034,-0.031612,30.95,66.286941063604
13412,-8.391031,-3.575475,4.036094,-0.029016,0.096822,-0.028558,30.95,66.1304390108756
13422,-8.410173,-3.58744,3.994817,-0.029932,0.101098,-0.023518,30.95,66.3990090609676
13432,-8.411968,-3.582056,4.001398,-0.028253,0.107512,-0.020464,30.97,66.363331479807
13442,-8.421539,-3.580261,3.998407,-0.027336,0.111483,-0.015577,30.97,66.3976946262084
13452,-8.4347,-3.585046,3.980461,-0.026725,0.113621,-0.012065,30.96,66.5240968629467
13462,-8.430512,-3.589832,3.988237,-0.025962,0.113316,-0.009316,30.96,66.4786814435003
13472,-8.451449,-3.593421,3.959523,-0.024893,0.111177,-0.005803,30.99,66.6767800216823
13482,-8.450851,-3.596412,3.953541,-0.023518,0.106749,-0.003818,30.99,66.7096642558969
13492,-8.451449,-3.586841,3.944568,-0.024435,0.102625,-0.000764,30.96,66.7496821916833
13502,-8.46461,-3.604787,3.941577,-0.022907,0.097738,0.00168,30.96,66.8086489556229
13512,-8.466404,-3.597609,3.923631,-0.021991,0.090255,0.004429,30.98,66.900540194544
13522,-8.46102,-3.594618,3.929613,-0.020311,0.083689,0.006567,30.98,66.8552348970508
13532,-8.468199,-3.595814,3.910471,-0.019548,0.075747,0.00901,30.94,66.9720567299582
13542,-8.474181,-3.599404,3.916452,-0.018326,0.066737,0.010996,30.94,66.9560132719234
13552,-8.473583,-3.603591,3.892524,-0.016646,0.057269,0.01405,30.96,67.0846488478761
13562,-8.479566,-3.605386,3.892524,-0.014966,0.047647,0.016952,30.96,67.098495429138
13572,-8.477771,-3.61077,3.892524,-0.011912,0.025962,0.018784,30.95,67.0995130203452
13582,-8.493923,-3.608377,3.869792,-0.009774,0.014355,0.020922,30.98,67.2504350282421
13592,-8.490931,-3.602993,3.891926,-0.008094,0.001985,0.021228,30.98,67.1228615693029
13602,-8.49452,-3.595216,3.898506,-0.005956,-0.009774,0.021991,30.98,67.0887756058304
13612,-8.505887,-3.608975,3.884149,-0.00504,-0.021228,0.023366,30.98,67.1996099319871
13622,-8.498111,-3.6006,3.89731,-0.00336,-0.033139,0.023824,30.93,67.1071123517576
13632,-8.504092,-3.604189,3.894319,-0.001527,-0.045204,0.023213,30.93,67.1382211927057
13642,-8.478967,-3.605984,3.910471,0,-0.05681,0.023366,30.97,67.0031542916708
13652,-8.493923,-3.601198,3.911069,0.000305,-0.067348,0.022144,30.97,67.0265798373097
13662,-8.501101,-3.601796,3.927818,0.002291,-0.077427,0.022602,30.98,66.9537709672349
13672,-8.480165,-3.601198,3.935595,0.003207,-0.087659,0.022297,30.98,66.8691705059496
13682,-8.508877,-3.591627,3.937988,0.004429,-0.096669,0.021228,30.98,66.907518340058
13692,-8.478369,-3.594618,3.945765,0.004734,-0.106291,0.018326,30.98,66.8061961914812
13702,-8.49452,-3.585645,3.965506,0.004429,-0.112705,0.017868,30.97,66.7281944869515
13712,-8.478967,-3.575475,3.988835,0.005803,-0.121104,0.01573,30.97,66.564496283223
13722,-8.482555,-3.575475,3.995416,0.004734,-0.128282,0.012675,30.95,66.5375287146755
13732,-8.456833,-3.562315,4.027121,0.004123,-0.134085,0.010079,30.95,66.3056536370755
13742,-8.468798,-3.567699,4.022335,0.002596,-0.139888,0.004887,30.95,66.3607917980039
13752,-8.449057,-3.565306,4.049254,0.001833,-0.13775,0.002596,30.95,66.1760285520669
13762,-8.447262,-3.564708,4.058227,0.00168,-0.132252,0.002291,30.95,66.1247686149079
13772,-8.432905,-3.556931,4.066602,0.001985,-0.125075,-0.000611,30.97,66.0433263384207
13782,-8.440084,-3.564708,4.082754,0.000458,-0.116217,-0.003054,30.97,65.9813664508379
13792,-8.444869,-3.558726,4.089334,0.000611,-0.104916,-0.005651,31,65.9518925870458
13803,-8.414959,-3.565904,4.101896,-0.000611,-0.091783,-0.007941,31,65.8285788412318
13812,-8.432307,-3.5671,4.109673,-0.002749,-0.078343,-0.011759,30.96,65.8265069625802
13822,-8.417951,-3.558726,4.127619,-0.003818,-0.063377,-0.015424,30.96,65.6943965457209
13832,-8.419147,-3.552145,4.124628,-0.005803,-0.047037,-0.017868,30.98,65.7065437488902
13842,-8.421539,-3.559922,4.119244,-0.007483,-0.030085,-0.021075,30.98,65.7468729351051
13852,-8.431709,-3.553342,4.125226,-0.009927,-0.012981,-0.024587,30.95,65.7317092746494
13862,-8.420941,-3.56411,4.132405,-0.012981,0.004123,-0.0281,30.95,65.6808928062914
13872,-8.416155,-3.56411,4.128816,-0.014966,0.020769,-0.032834,30.94,65.6892082241431
13882,-8.422735,-3.565306,4.121637,-0.018173,0.037721,-0.035736,30.94,65.7419170703145
13892,-8.415558,-3.561717,4.121637,-0.020769,0.053603,-0.038332,30.92,65.7231122339667
13902,-8.423334,-3.57069,4.098905,-0.024587,0.06857,-0.040775,30.92,65.8665902098877
13912,-8.42812,-3.574279,4.094718,-0.026878,0.096059,-0.043982,31,65.9019856857975
13922,-8.42812,-3.574279,4.069593,-0.033445,0.107665,-0.045204,30.98,66.0331528631331
13932,-8.413763,-3.575475,4.066602,-0.034667,0.118661,-0.045509,30.98,66.0191504235478
13942,-8.420941,-3.574279,4.037888,-0.037568,0.127213,-0.045204,30.96,66.1837715523207
13952,-8.416155,-3.586841,4.016951,-0.037721,0.134696,-0.04383,30.96,66.294794931753
13962,-8.423334,-3.588037,4.022335,-0.039248,0.139583,-0.041539,30.98,66.2828431246037
13972,-8.432307,-3.581457,3.968496,-0.041233,0.142484,-0.03879,30.98,66.5788342786317
13982,-8.425129,-3.59043,3.985246,-0.039859,0.145997,-0.035736,30.93,66.4836124120988
13992,-8.434101,-3.592225,3.95055,-0.040775,0.145691,-0.031612,30.93,66.6867352906911
14002,-8.42812,-3.596412,3.943372,-0.039248,0.145386,-0.026725,30.98,66.7158222283535
14012,-8.423334,-3.592823,3.924827,-0.038179,0.142942,-0.020617,30.98,66.8005754871592
14022,-8.435298,-3.601796,3.912863,-0.035125,0.139888,-0.015577,30.95,66.8966376391538
