t_ms,ax,ay,az,gx,gy,gz,temp,ang_deg
12,-8.312666,-3.58744,4.249653,0.271682,0.094837,-0.164323,30.95,64.8555254047805
22,-8.307282,-3.585046,4.248456,0.269239,0.118813,-0.167683,30.95,64.8473863692174
32,-8.306684,-3.586243,4.249055,0.266643,0.143401,-0.168752,30.96,64.8440965786674
42,-8.300702,-3.6006,4.246064,0.264505,0.16753,-0.170431,30.96,64.8601330932407
52,-8.291729,-3.60718,4.234099,0.264352,0.191659,-0.172264,30.96,64.9086170713157
62,-8.297711,-3.614957,4.221537,0.264047,0.21365,-0.173333,30.96,64.9947803433261
72,-8.288139,-3.625126,4.199404,0.264657,0.235489,-0.174555,30.94,65.098589060128
82,-8.289336,-3.633501,4.177869,0.265879,0.2558,-0.175318,30.94,65.2216423030179
92,-8.306085,-3.645465,4.163511,0.26649,0.274278,-0.175318,30.93,65.3449437382269
102,-8.325229,-3.652046,4.125226,0.267712,0.289092,-0.176998,30.93,65.5929408647184
112,-8.333604,-3.67059,4.111467,0.269086,0.314748,-0.177609,30.95,65.7006418340923
122,-8.352147,-3.684947,4.09412,0.270155,0.323606,-0.179594,30.96,65.8448156440877
132,-8.356933,-3.686741,4.070789,0.270461,0.329562,-0.180816,30.96,65.9787510361173
142,-8.379066,-3.697509,4.036692,0.270461,0.332922,-0.181885,30.98,66.2143551507272
152,-8.392825,-3.709473,4.031906,0.26985,0.33338,-0.184023,30.98,66.2795529090574
162,-8.413164,-3.707081,4.00738,0.269544,0.331853,-0.184634,30.94,66.4483760679414
172,-8.414959,-3.713661,3.994817,0.26817,0.328645,-0.185703,30.94,66.5239871693745
182,-8.434101,-3.719643,3.965506,0.265574,0.322079,-0.186925,30.96,66.7228213673296
192,-8.443673,-3.720839,3.942773,0.264352,0.312763,-0.188452,30.96,66.8629144644584
202,-8.452048,-3.729812,3.935595,0.262672,0.302531,-0.188757,30.94,66.9258733029135
212,-8.459227,-3.74058,3.92064,0.260839,0.290161,-0.189674,30.94,67.0287476909579
222,-8.47119,-3.734,3.905685,0.258701,0.276417,-0.191506,30.95,67.1257043318045
232,-8.489137,-3.734598,3.88714,0.257785,0.261298,-0.190437,30.95,67.2599697327502
242,-8.500502,-3.742973,3.877569,0.256869,0.244499,-0.189674,30.94,67.3405316594944
252,-8.492725,-3.735196,3.866203,0.256105,0.226631,-0.188757,30.94,67.3778097971982
262,-8.495717,-3.741776,3.846462,0.255647,0.208152,-0.186467,30.96,67.4935303946912
272,-8.487941,-3.752544,3.84048,0.256105,0.187994,-0.184023,30.96,67.5190142246408
282,-8.493324,-3.754339,3.839284,0.256716,0.147066,-0.177151,30.98,67.5376322705236
292,-8.484949,-3.739383,3.825525,0.260839,0.126755,-0.173333,30.94,67.5803606884501
302,-8.477173,-3.728018,3.834498,0.264199,0.105985,-0.168752,30.94,67.5074459160628
312,-8.486743,-3.738187,3.835097,0.267101,0.086896,-0.162337,30.94,67.5323655374565
322,-8.474181,-3.74058,3.847061,0.270919,0.06689,-0.157909,30.94,67.4462256148386
332,-8.461619,-3.731009,3.848257,0.274584,0.048106,-0.15348,30.96,67.4062157940408
342,-8.456833,-3.727419,3.868596,0.279471,0.030849,-0.147371,30.96,67.2860244332223
352,-8.46102,-3.728018,3.878167,0.284816,0.016799,-0.141263,30.96,67.2445597903824
362,-8.438289,-3.716054,3.904488,0.289245,0.00336,-0.13607,30.96,67.0489521927151
372,-8.432905,-3.710072,3.917051,0.293979,-0.007483,-0.131183,30.96,66.9663671120864
382,-8.418548,-3.704688,3.938586,0.298866,-0.015882,-0.126755,30.96,66.8185768637306
392,-8.401799,-3.696313,3.958327,0.303142,-0.021533,-0.121562,30.96,66.6723592971004
402,-8.386844,-3.695116,3.970889,0.307571,-0.024893,-0.117439,30.96,66.574001752691
412,-8.38804,-3.689733,3.994817,0.310625,-0.026573,-0.113468,30.95,66.445713887896
422,-8.35454,-3.678366,4.015156,0.31429,-0.025656,-0.110261,30.95,66.2576827109065
432,-8.374281,-3.679563,4.038486,0.31765,-0.021686,-0.10736,30.95,66.1781132758859
442,-8.361719,-3.671786,4.059424,0.320093,-0.015577,-0.104458,30.95,66.0344272701159
452,-8.340183,-3.656233,4.079165,0.322842,-0.00733,-0.099876,30.95,65.870274113541
462,-8.331809,-3.662215,4.101896,0.325897,0.012675,-0.099113,30.95,65.7388608523143
472,-8.330013,-3.659822,4.115057,0.325897,0.023824,-0.099418,30.95,65.6638699699434
482,-8.333604,-3.653242,4.121039,0.325897,0.036957,-0.099724,30.95,65.6341286242878
492,-8.346166,-3.643671,4.133003,0.325286,0.049938,-0.100335,30.95,65.5898264382527
502,-8.335398,-3.643072,4.138985,0.324217,0.064904,-0.102931,30.96,65.5346505064134
512,-8.349156,-3.631706,4.160521,0.321621,0.078954,-0.105832,30.96,65.4415796610069
522,-8.36112,-3.631108,4.152744,0.317803,0.092852,-0.108429,30.93,65.5075574886399
532,-8.36112,-3.640081,4.159923,0.313527,0.107512,-0.112857,30.93,65.4786919628092
542,-8.373683,-3.623332,4.156931,0.308945,0.120646,-0.117439,30.93,65.5057642411884
552,-8.380861,-3.634698,4.153342,0.302989,0.132863,-0.122937,30.93,65.5506988181885
562,-8.402397,-3.632305,4.146163,0.297644,0.14615,-0.127976,30.96,65.6323531078699
572,-8.404191,-3.635894,4.148556,0.291077,0.156992,-0.132558,30.96,65.62715139659
582,-8.419147,-3.645465,4.142574,0.283594,0.167377,-0.138666,30.94,65.6993339966526
592,-8.419745,-3.635894,4.136592,0.276264,0.175624,-0.143859,30.94,65.7227660825546
602,-8.423933,-3.645465,4.113262,0.269239,0.182954,-0.149051,30.96,65.8618070004133
612,-8.422137,-3.637689,4.1007,0.262061,0.189063,-0.153174,30.96,65.9161300720561
622,-8.427522,-3.650849,4.075575,0.255189,0.194255,-0.15684,30.95,66.0705847696658
632,-8.427522,-3.655036,4.070789,0.242055,0.199142,-0.16249,30.99,66.0993823417184
642,-8.414959,-3.66042,4.05404,0.237321,0.199447,-0.164323,30.99,66.165136440628
652,-8.423933,-3.659822,4.040281,0.233503,0.1996,-0.164323,30.96,66.2554425982895
662,-8.423933,-3.667599,4.028317,0.230296,0.198226,-0.162032,30.96,66.3251214015473
672,-8.404789,-3.668197,3.99721,0.228005,0.195019,-0.160505,30.96,66.4484804887341
682,-8.407781,-3.681358,3.995416,0.227395,0.192117,-0.15852,30.96,66.4762195857095
692,-8.398808,-3.683152,3.985844,0.227853,0.187077,-0.155007,30.96,66.5093584890968
702,-8.391629,-3.676572,3.97747,0.22938,0.18387,-0.150884,30.96,66.5323405576637
712,-8.397013,-3.677171,3.979264,0.231671,0.179289,-0.146302,30.98,66.5347143979051
722,-8.385049,-3.686144,3.963711,0.234725,0.174707,-0.141721,30.98,66.5998147088421
732,-8.378469,-3.681358,3.960122,0.239001,0.170279,-0.13607,30.94,66.6005998632089
742,-8.387442,-3.689135,3.955336,0.243888,0.165086,-0.131794,30.94,66.6516804899689
752,-8.382656,-3.691527,3.956532,0.249538,0.160658,-0.126755,30.96,66.6375982884095
762,-8.389236,-3.701099,3.958925,0.2558,0.156382,-0.123547,30.96,66.64747554194
772,-8.38445,-3.699902,3.955934,0.260992,0.152716,-0.119271,30.95,66.6521753539625
782,-8.385648,-3.703491,3.964907,0.268017,0.149204,-0.117133,30.95,66.6107027483275
792,-8.401799,-3.687938,3.981059,0.273515,0.145691,-0.116523,30.95,66.5451420504455
802,-8.389835,-3.690929,3.976273,0.280082,0.141873,-0.116217,30.95,66.5480660003253
812,-8.389835,-3.690929,3.98405,0.290314,0.140499,-0.117286,30.98,66.5071643550933
822,-8.407183,-3.683152,3.984648,0.293521,0.139125,-0.120188,30.95,66.5331464266884
832,-8.410771,-3.68375,3.986442,0.296728,0.137292,-0.123547,30.95,66.5317651770438
842,-8.414959,-3.672385,3.988237,0.298713,0.136376,-0.127671,30.91,66.5207103360682
852,-8.42453,-3.669992,4.00379,0.299019,0.135307,-0.132863,30.91,66.4569705772149
862,-8.419147,-3.662813,3.996014,0.299171,0.133932,-0.13775,30.95,66.4799308661204
872,-8.432905,-3.66042,4.006183,0.298713,0.133169,-0.142637,30.95,66.4532527615438
882,-8.435897,-3.658626,4.010969,0.296575,0.131794,-0.147524,30.93,66.4328275182303
892,-8.42812,-3.656831,4.001996,0.294742,0.130267,-0.153327,30.93,66.4619090362185
902,-8.438888,-3.655036,4.015755,0.290772,0.127824,-0.158825,30.96,66.4107863728116
912,-8.450253,-3.644867,4.011567,0.287107,0.124617,-0.164017,30.96,66.447302651661
922,-8.453843,-3.651447,3.999603,0.282678,0.121868,-0.16753,30.96,66.5233545614441
932,-8.446664,-3.644867,3.99063,0.277944,0.118508,-0.171348,30.96,66.5494408384281
942,-8.447262,-3.646662,3.999005,0.272751,0.114385,-0.174555,30.94,66.5084251342527
952,-8.450253,-3.641278,4.002594,0.26817,0.109345,-0.176387,30.94,66.491028325861
962,-8.458031,-3.644867,3.999603,0.263588,0.104153,-0.178067,30.97,66.5261706400913
972,-8.457432,-3.645465,3.99721,0.25916,0.098502,-0.179594,30.97,66.537984687299
982,-8.450851,-3.652644,3.985844,0.250455,0.086285,-0.180511,30.95,66.5902611141616
992,-8.452048,-3.640081,3.987041,0.2474,0.080787,-0.178678,30.93,66.5751840159235
1002,-8.44427,-3.643072,3.99063,0.245262,0.075442,-0.177151,30.93,66.5428240120571
1012,-8.4347,-3.644867,3.997808,0.243124,0.069791,-0.175624,30.95,66.4867954424102
1022,-8.431709,-3.651447,3.988835,0.241444,0.064141,-0.173028,30.95,66.5335560772043
1032,-8.435897,-3.657429,4.0008,0.240986,0.06017,-0.169973,30.93,66.4849983705819
1042,-8.43111,-3.649653,4.004987,0.240528,0.05681,-0.167072,30.93,66.4459794078895
1052,-8.423933,-3.659224,4.017549,0.24175,0.053909,-0.163101,30.97,66.3738208852185
1062,-8.412566,-3.668197,4.022335,0.24175,0.05284,-0.158672,30.97,66.3330695461787
1072,-8.405388,-3.679563,4.031906,0.242972,0.052687,-0.154549,30.93,66.2783034941701
1082,-8.396414,-3.678366,4.040281,0.24343,0.054062,-0.149967,30.93,66.2144310600258
1092,-8.386844,-3.688536,4.055236,0.244804,0.057116,-0.145539,30.95,66.1253924699853
1102,-8.379066,-3.682554,4.067201,0.246026,0.061239,-0.14111,30.95,66.0407412972081
1112,-8.373085,-3.696911,4.066602,0.247553,0.065821,-0.136681,30.95,66.0446027051265
1122,-8.360522,-3.692126,4.068995,0.249386,0.072693,-0.1321,30.95,66.0008598355784
1132,-8.36471,-3.696911,4.089334,0.251066,0.080176,-0.128434,30.96,65.9079994783298
1142,-8.349755,-3.707081,4.092923,0.251829,0.088728,-0.120951,30.96,65.8669244847597
1152,-8.348558,-3.697509,4.093522,0.253509,0.107665,-0.118508,30.93,65.8521488497557
1162,-8.345568,-3.723232,4.101896,0.254425,0.116675,-0.115912,30.94,65.8264972392369
1172,-8.345568,-3.713063,4.09711,0.256411,0.126449,-0.113621,30.94,65.841787661071
1182,-8.348558,-3.715455,4.08754,0.256869,0.136376,-0.111177,30.95,65.9004415368392
1192,-8.345568,-3.726821,4.083352,0.257022,0.14447,-0.111941,30.95,65.9267558029974
1202,-8.335996,-3.73041,4.074977,0.258091,0.152716,-0.109956,30.96,65.9535662253291
1212,-8.349156,-3.731009,4.068397,0.259312,0.159894,-0.109803,30.96,66.0165565873322
1222,-8.355139,-3.719045,4.068397,0.259923,0.166461,-0.110414,30.93,66.0179316297175
1232,-8.366504,-3.73041,4.05404,0.260076,0.171959,-0.111788,30.93,66.1278445832994
1242,-8.36471,-3.735795,4.041477,0.261298,0.176387,-0.112552,30.94,66.1948705550289
1252,-8.358727,-3.742973,4.027121,0.262977,0.180511,-0.113621,30.94,66.2642391796302
1262,-8.371889,-3.732804,4.031308,0.264352,0.181732,-0.115759,30.93,66.2604304892482
1272,-8.379665,-3.726223,4.018745,0.264505,0.182343,-0.116828,30.93,66.3364347087095
1282,-8.375478,-3.731009,4.00379,0.266032,0.182191,-0.118661,30.94,66.4105576587266
1292,-8.377871,-3.729812,4.003192,0.266795,0.181122,-0.120035,30.94,66.4175889500654
1302,-8.388638,-3.717848,3.99063,0.26817,0.179442,-0.119577,30.95,66.4949302204527
1312,-8.4012,-3.712464,3.984648,0.269239,0.17654,-0.120646,30.95,66.5475686868783
1322,-8.411968,-3.718446,3.963113,0.270919,0.167988,-0.12202,30.95,66.6885279625417
1332,-8.409575,-3.714857,3.970291,0.27153,0.162643,-0.121868,30.95,66.6425716877394
1342,-8.42812,-3.707081,3.969693,0.27153,0.157451,-0.121409,30.95,66.6770483239063
1352,-8.423933,-3.687938,3.962514,0.27153,0.150578,-0.121715,30.94,66.688657924668
1362,-8.425727,-3.681956,3.967898,0.270766,0.143706,-0.121104,30.94,66.6586635513108
1372,-8.422735,-3.677768,3.970291,0.270002,0.136223,-0.119882,30.98,66.6360709925577
1382,-8.433504,-3.672983,3.963711,0.269239,0.129198,-0.119577,30.98,66.6886778791243
1392,-8.44128,-3.665206,3.961916,0.26817,0.122478,-0.117286,30.97,66.7072236216662
1402,-8.436494,-3.66042,3.963113,0.26649,0.115301,-0.117286,30.97,66.6866887972757
1412,-8.459825,-3.659224,3.969693,0.265115,0.107818,-0.115912,30.95,66.699486764667
1422,-8.447861,-3.654438,3.97388,0.263436,0.101404,-0.115606,30.95,66.6483919197596
1432,-8.456235,-3.652046,3.976273,0.261756,0.095142,-0.116217,30.96,66.651096783859
1442,-8.452645,-3.644867,3.993621,0.259618,0.089034,-0.115301,30.96,66.5462520840631
1452,-8.455637,-3.629912,3.986442,0.256411,0.08262,-0.117286,30.94,66.576689462818
1462,-8.455039,-3.624528,3.98405,0.253814,0.077733,-0.117897,30.94,66.5831629401525
1472,-8.453843,-3.622135,3.996014,0.251371,0.073457,-0.118966,30.97,66.5157973174254
1482,-8.456833,-3.607778,4.020541,0.249538,0.068875,-0.119577,30.97,66.3807697224862
1492,-8.438289,-3.608975,4.022933,0.247248,0.063225,-0.124006,30.96,66.3302487397135
1502,-8.431709,-3.603591,4.027121,0.24343,0.061392,-0.125991,30.94,66.2895469605438
1512,-8.425727,-3.607778,4.028317,0.241444,0.060934,-0.128434,30.94,66.2744133303361
1522,-8.434101,-3.610171,4.039085,0.240528,0.061392,-0.129809,30.97,66.2379373963014
1532,-8.425727,-3.605984,4.042076,0.239459,0.062308,-0.132405,30.97,66.2007382911707
1542,-8.408379,-3.610171,4.045067,0.238543,0.063988,-0.133932,30.98,66.1520304249918
1552,-8.4012,-3.606582,4.056432,0.237016,0.066432,-0.135918,30.98,66.0739283168526
1562,-8.413763,-3.899703,3.98405,0.236863,0.069028,-0.13607,30.94,66.7509903956716
1572,-8.41436,-3.869194,4.020541,0.226784,0.056658,-0.134238,30.94,66.533292096968
1582,-8.362316,-3.559922,4.071388,0.221286,0.051924,-0.131336,30.94,65.8690555714238
1592,-8.374281,-3.644269,4.094718,0.221439,0.058796,-0.130878,30.94,65.8509388238618
1602,-8.344371,-3.584448,4.074379,0.223577,0.067348,-0.127671,30.94,65.8372088221009
1612,-8.36112,-3.631706,4.096512,0.224493,0.076053,-0.125533,30.94,65.8014965517362
1622,-8.337193,-3.608377,4.089334,0.226478,0.085063,-0.122784,30.95,65.7655235036976
1633,-8.339585,-3.629314,4.091129,0.228005,0.093921,-0.12034,30.95,65.7809512222983
1642,-8.356335,-3.768696,4.066004,0.230907,0.103084,-0.117286,30.98,66.0801043396106
1652,-8.35454,-3.805186,4.081557,0.228616,0.110719,-0.114995,30.98,66.0300754591845
1662,-8.36471,-3.655635,4.08754,0.228311,0.118202,-0.110108,30.96,65.8785466990887
1672,-8.355738,-3.626323,4.082156,0.232129,0.134696,-0.109192,30.99,65.8600012841512
1682,-8.369495,-3.657429,4.095914,0.233656,0.142484,-0.107207,30.99,65.8467375505818
1692,-8.380861,-3.6341,4.070191,0.235641,0.149662,-0.105222,31,65.983811349859
1702,-8.390432,-3.659224,4.063612,0.235947,0.155007,-0.104305,31,66.0619562142465
1712,-8.39821,-3.653242,4.058825,0.236558,0.159589,-0.104611,30.93,66.0979859525972
1722,-8.406584,-3.648456,4.06062,0.235641,0.16249,-0.105832,30.93,66.1019760327383
1732,-8.420941,-3.661019,4.042674,0.235183,0.164628,-0.107207,30.98,66.2377206051368
1742,-8.42812,-3.67059,4.043272,0.233198,0.164628,-0.110261,30.98,66.2585102503366
1752,-8.435897,-3.66401,4.023531,0.230143,0.163406,-0.113468,30.98,66.3720025404584
1762,-8.436494,-3.671786,4.018745,0.2277,0.161727,-0.117133,30.98,66.4053683322137
1772,-8.441879,-3.671786,4.012166,0.224493,0.158825,-0.120951,30.92,66.451043630302
1782,-8.440084,-3.676572,4.008576,0.22098,0.154854,-0.124311,30.92,66.4704254095471
1792,-8.446067,-3.661617,3.991827,0.216704,0.149204,-0.12874,30.95,66.5570354600614
1802,-8.450851,-3.69392,3.989433,0.212581,0.143095,-0.132405,30.95,66.6087557682501
1812,-8.443673,-3.675375,3.978068,0.20861,0.136681,-0.135765,30.95,66.636601713523
1822,-8.440084,-3.684349,3.978068,0.204029,0.128282,-0.138361,30.95,66.6372719681698
1832,-8.436494,-3.694518,3.971487,0.200364,0.12034,-0.139888,30.96,66.6735610995628
1842,-8.426325,-3.684947,3.958327,0.193797,0.101862,-0.143859,30.95,66.7129092223709
1852,-8.427522,-3.693322,3.96072,0.191506,0.093462,-0.144011,30.95,66.7104112159014
1862,-8.421539,-3.696911,3.958327,0.189979,0.084452,-0.143095,30.93,66.7138540806629
1872,-8.407183,-3.692126,3.957131,0.18723,0.075442,-0.143706,30.93,66.6860138875084
1882,-8.409575,-3.697509,3.963711,0.185856,0.067501,-0.141568,30.98,66.6612807192325
1892,-8.407183,-3.695116,3.975077,0.18555,0.060476,-0.13943,30.98,66.5943757659786
1902,-8.400003,-3.686741,3.970291,0.186619,0.054367,-0.13775,30.97,66.5969147868615
1912,-8.396414,-3.697509,3.972684,0.187994,0.04948,-0.135612,30.97,66.5867148230058
1922,-8.395219,-3.690331,3.990032,0.189521,0.043982,-0.133016,30.98,66.4864398766475
1932,-8.402995,-3.677768,3.989433,0.190743,0.040775,-0.129962,30.98,66.4943275779447
1942,-8.406584,-3.68734,3.997808,0.193339,0.038485,-0.12706,30.96,66.4666491052084
1952,-8.398808,-3.679563,4.010969,0.196699,0.03711,-0.123089,30.96,66.3741553800993
1962,-8.396414,-3.679563,4.032505,0.198989,0.03711,-0.121868,30.98,66.2562473712249
1972,-8.400601,-3.678965,4.040879,0.202349,0.038637,-0.12034,30.98,66.2207001067332
1982,-8.403594,-3.675375,4.036692,0.206167,0.041081,-0.117897,30.95,66.2456097750871
1992,-8.387442,-3.673581,4.046861,0.209069,0.044899,-0.116828,30.95,66.1565694924107
2002,-8.409575,-3.669394,4.062415,0.213192,0.048564,-0.115912,30.96,66.1182752106293
2012,-8.387442,-3.661019,4.075575,0.216094,0.059254,-0.115301,30.96,65.9947284554981
2022,-8.402995,-3.659224,4.078567,0.221133,0.06521,-0.116064,30.97,66.0105776216548
2032,-8.389236,-3.663411,4.081557,0.224035,0.071777,-0.11637,30.93,65.9695395054225
2042,-8.397013,-3.662813,4.084548,0.225562,0.078038,-0.116981,30.93,65.9699587288405
2052,-8.395219,-3.659822,4.08754,0.227547,0.084605,-0.118202,30.95,65.9477398937892
2062,-8.392825,-3.667599,4.073781,0.228005,0.091172,-0.119119,30.95,66.0216898301262
2072,-8.383853,-3.657429,4.076771,0.229074,0.097738,-0.119882,30.98,65.9774790331322
2082,-8.395817,-3.661019,4.084548,0.229533,0.102778,-0.120799,30.98,65.9657397731843
2092,-8.376076,-3.663411,4.078567,0.229533,0.109039,-0.120799,30.99,65.9570638850308
2102,-8.385648,-3.665206,4.069593,0.22938,0.114385,-0.120188,30.99,66.0260634848955
2112,-8.379665,-3.661019,4.067201,0.229533,0.118202,-0.119119,30.97,66.0219232456455
2122,-8.369495,-3.677768,4.058227,0.228616,0.12202,-0.118508,30.97,66.0628560559607
2132,-8.375478,-3.671786,4.052245,0.2277,0.12538,-0.117133,30.91,66.1013195054204
2142,-8.370691,-3.675974,4.046861,0.226784,0.127213,-0.115301,30.91,66.1232581381812
2152,-8.371889,-3.669992,4.038486,0.225257,0.129503,-0.112246,30.94,66.1641341013655
2162,-8.365907,-3.685545,4.0337,0.224493,0.131183,-0.10965,30.94,66.1910460795797
2172,-8.382057,-3.678965,4.021138,0.222966,0.131489,-0.106443,30.95,66.2849813044889
2182,-8.380263,-3.678366,4.028915,0.219759,0.131489,-0.099876,30.95,66.2398428879463
2192,-8.391031,-3.682554,4.028317,0.214872,0.130114,-0.096517,30.97,66.2695968822132
2202,-8.385049,-3.694518,4.0337,0.212123,0.12874,-0.094531,30.98,66.2398745723489
2212,-8.401799,-3.680161,4.030112,0.209069,0.12706,-0.091935,30.98,66.2806844449505
2222,-8.410771,-3.680161,4.029513,0.206472,0.125686,-0.088881,30.98,66.3027117575614
2232,-8.402397,-3.684349,4.026522,0.201891,0.123853,-0.087965,30.98,66.3046065497208
2242,-8.413763,-3.68375,4.029513,0.199142,0.12202,-0.086132,30.96,66.3123085807294
2252,-8.419147,-3.695116,4.036692,0.194866,0.119882,-0.085674,30.96,66.2965611570384
2262,-8.423933,-3.689733,4.025326,0.191659,0.118813,-0.085827,30.95,66.361055843434
2272,-8.429914,-3.687938,4.03071,0.188605,0.117592,-0.086437,30.95,66.3438084950674
2282,-8.432905,-3.69392,4.0337,0.185703,0.116217,-0.08659,30.91,66.3399505529993
2292,-8.439486,-3.701099,4.0337,0.18387,0.115454,-0.088117,30.91,66.3603148547879
2302,-8.43111,-3.7005,4.030112,0.181274,0.114385,-0.090561,30.97,66.3609690638623
2312,-8.417352,-3.69392,4.036094,0.180053,0.113774,-0.091783,30.97,66.2948123227807
2322,-8.416155,-3.702893,4.037888,0.179594,0.114079,-0.093157,30.97,66.2912065275411
2332,-8.417352,-3.699304,4.03071,0.179594,0.113468,-0.096364,30.97,66.3279149834001
2342,-8.405987,-3.7005,4.015755,0.180053,0.114079,-0.098197,30.98,66.3834338881862
2352,-8.4012,-3.699304,4.018745,0.181122,0.114232,-0.099113,30.98,66.3566303612105
2362,-8.399406,-3.7005,4.015156,0.186925,0.115301,-0.100029,30.95,66.3727734555996
2372,-8.38445,-3.699902,4.006782,0.190437,0.114843,-0.099266,30.94,66.3847496454552
2382,-8.39821,-3.690929,4.004389,0.19563,0.114843,-0.098655,30.94,66.4178843599226
2392,-8.380861,-3.683152,3.990032,0.199447,0.114537,-0.098349,30.99,66.4497392997309
2402,-8.370691,-3.675974,3.998407,0.204487,0.113621,-0.095906,30.99,66.3776701518688
2412,-8.380861,-3.683152,3.980461,0.209832,0.112705,-0.093615,30.96,66.5000982348631
2422,-8.370093,-3.675974,3.981059,0.215025,0.11133,-0.091324,30.96,66.4677426240022
2432,-8.38445,-3.672983,3.970291,0.219759,0.108887,-0.089339,31,66.5518247893396
2442,-8.397013,-3.659224,3.963711,0.224646,0.106443,-0.086437,31,66.6001934661429
2452,-8.390432,-3.653242,3.975675,0.228311,0.103084,-0.085063,30.98,66.5179329690712
2462,-8.391629,-3.659224,3.972684,0.231671,0.099418,-0.083536,30.98,66.5416600948621
2472,-8.419147,-3.635296,3.969095,0.23442,0.095448,-0.082467,30.96,66.5964175371522
2482,-8.417951,-3.641876,3.978068,0.235641,0.090103,-0.082467,30.96,66.5526673987792
2492,-8.437692,-3.646064,3.966702,0.236558,0.08491,-0.083841,30.95,66.6573950260067
2502,-8.44427,-3.625126,3.976273,0.235641,0.078954,-0.086132,30.95,66.6020291249072
2512,-8.451449,-3.631108,3.981657,0.234114,0.073151,-0.088881,30.95,66.5941160331852
2522,-8.475977,-3.628117,3.988237,0.231518,0.06689,-0.092546,30.95,66.6080786117005
2532,-8.477771,-3.613162,4.005585,0.227395,0.053603,-0.102473,30.96,66.5077284503365
2542,-8.474779,-3.605386,4.011567,0.217163,0.046731,-0.107818,30.96,66.4632524281344
2552,-8.480165,-3.61376,4.017549,0.211665,0.040775,-0.114385,30.96,66.4507433180084
2562,-8.478967,-3.60718,4.022933,0.205098,0.036499,-0.121409,30.99,66.4142384268846
2572,-8.478967,-3.612564,4.028915,0.198684,0.031307,-0.126755,30.99,66.3878171435457
2582,-8.490931,-3.611368,4.0337,0.191048,0.027184,-0.13439,30.94,66.3868908931466
2592,-8.479566,-3.610171,4.039085,0.184634,0.023366,-0.139583,30.94,66.3338748620506
2603,-8.472985,-3.60718,4.045067,0.178067,0.020922,-0.144317,31,66.2861397995321
2612,-8.453843,-3.618546,4.045067,0.172264,0.0197,-0.149051,31,66.2559945679093
2622,-8.429317,-3.61735,4.057031,0.166766,0.018784,-0.151342,30.96,66.1404994162926
2632,-8.425129,-3.613162,4.061218,0.161727,0.01909,-0.153327,30.96,66.1059050913104
2642,-8.420941,-3.614957,4.065406,0.158214,0.02138,-0.153022,30.94,66.0767507809159
2652,-8.410173,-3.628117,4.067799,0.155771,0.022602,-0.152105,30.94,66.0533748361616
2662,-8.38445,-3.644867,4.071986,0.153174,0.025962,-0.151342,30.95,65.9920863191046
2672,-8.382656,-3.641278,4.064807,0.152564,0.030543,-0.147829,30.95,66.0224828387293
2682,-8.368897,-3.641876,4.06062,0.152716,0.035277,-0.144164,30.96,66.0155708587984
2692,-8.353942,-3.668197,4.085146,0.153174,0.041844,-0.140499,30.96,65.8797737712279
2702,-8.339585,-3.666403,4.086343,0.156229,0.0562,-0.129809,30.98,65.840988301675
2712,-8.316256,-3.678965,4.079165,0.162032,0.065515,-0.124006,30.95,65.8403433176138
2722,-8.327023,-3.680759,4.082156,0.166613,0.074984,-0.118661,30.95,65.8495209232792
2732,-8.319845,-3.698107,4.091727,0.170737,0.083994,-0.113926,30.96,65.8004905395776
2742,-8.326425,-3.695715,4.089334,0.175318,0.092852,-0.110261,30.96,65.8248749216704
2752,-8.321041,-3.705286,4.100101,0.180053,0.10232,-0.105069,30.96,65.7661094816022
2762,-8.316854,-3.704688,4.085146,0.184481,0.112399,-0.100945,30.96,65.8348205456356
2772,-8.320443,-3.710072,4.089334,0.189368,0.122326,-0.097738,30.98,65.8257445798779
2782,-8.33121,-3.719045,4.089932,0.194102,0.133169,-0.093921,30.98,65.8542724304428
2792,-8.334201,-3.72383,4.088736,0.19792,0.141721,-0.092546,30.99,65.8714957085691
2802,-8.333005,-3.732205,4.09053,0.200364,0.149815,-0.091935,30.99,65.867569887312
2812,-8.342576,-3.725027,4.077968,0.202807,0.15852,-0.090866,30.95,65.9468158403332
2822,-8.346764,-3.727419,4.067201,0.205098,0.165544,-0.090561,30.95,66.0143222142044
2832,-8.360522,-3.732205,4.065406,0.207236,0.171653,-0.091324,30.98,66.0574468220492
2842,-8.367103,-3.739383,4.058227,0.207847,0.177609,-0.091935,30.98,66.1156844998006
2852,-8.371889,-3.736991,4.045665,0.207083,0.181274,-0.09331,30.93,66.1892158550775
2862,-8.383853,-3.737589,4.032505,0.207847,0.18387,-0.094837,30.93,66.2837910080708
2872,-8.402397,-3.728616,4.027719,0.206625,0.185703,-0.098197,30.95,66.3393385199513
2882,-8.412566,-3.736991,4.009772,0.203418,0.184634,-0.099418,30.95,66.4622091741936
2892,-8.415558,-3.728018,3.999603,0.201127,0.18158,-0.099418,30.95,66.5133751000221
2902,-8.419745,-3.720839,4.004389,0.198378,0.177609,-0.099724,30.98,66.4904238974875
2912,-8.422735,-3.721437,3.986442,0.195477,0.171959,-0.100793,30.98,66.5911767303984
2922,-8.426923,-3.719643,3.973282,0.193492,0.165392,-0.099571,30.95,66.6672016159503
2932,-8.425727,-3.719643,3.960122,0.191201,0.157756,-0.098349,30.95,66.7337836344964
2942,-8.440681,-3.708875,3.953541,0.189215,0.148746,-0.096822,30.98,66.7893984572348
2952,-8.426923,-3.710072,3.942773,0.186619,0.138056,-0.095142,30.98,66.8187042327067
2962,-8.444869,-3.702295,3.9338,0.184787,0.127518,-0.092852,30.97,66.8957751430842
2972,-8.450851,-3.704688,3.924827,0.18326,0.11637,-0.089644,30.97,66.9573731071432
2982,-8.458031,-3.692126,3.919443,0.182038,0.104763,-0.086437,30.98,66.9891370616581
2992,-8.450253,-3.68375,3.924827,0.180663,0.092088,-0.084147,30.98,66.9373736800443
3002,-8.449057,-3.683152,3.934398,0.180358,0.080634,-0.081092,30.96,66.8840365492657
3012,-8.453843,-3.671188,3.924827,0.179747,0.069333,-0.078191,30.96,66.9335199981272
3022,-8.459825,-3.661617,3.936791,0.180053,0.057879,-0.075442,30.97,66.8743662259718
3032,-8.452048,-3.669992,3.932604,0.180663,0.047647,-0.074373,30.97,66.8878427945495
3042,-8.453843,-3.649653,3.953541,0.180969,0.037415,-0.072388,30.96,66.7633005848301
3052,-8.453843,-3.650849,3.963113,0.182649,0.022602,-0.070708,30.96,66.7141009682722
3062,-8.445468,-3.64726,3.979862,0.184329,0.016188,-0.071319,30.97,66.6055688045379
3072,-8.447262,-3.637689,3.985844,0.185245,0.009774,-0.071929,30.95,66.569323571889
3082,-8.435298,-3.632903,3.998407,0.185703,0.006261,-0.073151,30.95,66.474092048125
3092,-8.443074,-3.635894,4.001996,0.186772,0.004429,-0.075136,30.99,66.4742767712906
3102,-8.438289,-3.62393,4.019344,0.188452,0.002902,-0.077733,30.99,66.3625536805852
3112,-8.42812,-3.611966,4.027719,0.189521,0.002138,-0.081092,30.94,66.2864046253762
3122,-8.425129,-3.619742,4.042076,0.190895,0.003207,-0.084299,30.94,66.2119799319264
3132,-8.42453,-3.624528,4.04746,0.191506,0.004276,-0.087354,30.98,66.1869111458388
3142,-8.409575,-3.616751,4.052245,0.19227,0.007636,-0.089186,30.98,66.1230105916626
3152,-8.412566,-3.622734,4.055236,0.193186,0.011606,-0.091477,30.98,66.1192033523941
3162,-8.397612,-3.61735,4.061218,0.19395,0.015577,-0.09499,30.98,66.0510996141686
3172,-8.401799,-3.616153,4.070191,0.194713,0.020617,-0.097128,31,66.0120028950874
3182,-8.388638,-3.618546,4.072584,0.195935,0.025504,-0.099724,31,65.9735373591291
3192,-8.386245,-3.617948,4.074379,0.197157,0.030696,-0.100487,30.97,65.9584668303618
3202,-8.378469,-3.614359,4.076771,0.197615,0.036652,-0.101862,30.97,65.9259468151629
3212,-8.368897,-3.631108,4.076173,0.198684,0.042761,-0.101862,30.93,65.9240845629431
3222,-8.37129,-3.635894,4.082156,0.199295,0.055283,-0.102931,30.93,65.9023678384875
3232,-8.363514,-3.64068,4.077968,0.199142,0.061087,-0.103084,30.94,65.9120627369968
3242,-8.366504,-3.638885,4.081557,0.198531,0.066737,-0.102167,30.95,65.898019449056
3252,-8.372486,-3.64726,4.088736,0.198226,0.07254,-0.101404,30.95,65.8811367463017
3262,-8.376076,-3.655036,4.080959,0.197462,0.079412,-0.101251,30.97,65.9367387258868
3272,-8.370093,-3.648456,4.086941,0.19624,0.084758,-0.101862,30.97,65.8865039211903
3282,-8.374281,-3.65384,4.080361,0.194102,0.091019,-0.102167,30.94,65.9349074606164
3292,-8.375478,-3.667599,4.085745,0.191659,0.0956,-0.103236,30.94,65.9221968676569
3302,-8.382057,-3.668197,4.086343,0.188146,0.101404,-0.104763,30.93,65.9336934598897
3312,-8.392226,-3.671188,4.089932,0.184939,0.106901,-0.106291,30.93,65.9394678399953
3322,-8.394022,-3.669992,4.089932,0.181732,0.112246,-0.108123,30.98,65.9421833608798
3332,-8.391031,-3.675375,4.088736,0.176845,0.116675,-0.110567,30.98,65.9470657303782
3342,-8.397013,-3.678366,4.071986,0.172875,0.121257,-0.114232,30.95,66.0499821269824
3352,-8.391031,-3.68734,4.075575,0.168904,0.125686,-0.118202,30.95,66.0269052476216
3362,-8.392825,-3.683152,4.075575,0.163712,0.130114,-0.120493,30.98,66.0268093568317
3372,-8.4012,-3.683152,4.058825,0.159436,0.133016,-0.123547,30.98,66.1320302019186
3382,-8.394022,-3.695116,4.046263,0.155771,0.135459,-0.125533,30.95,66.1936206467887
3392,-8.399406,-3.698107,4.039085,0.151953,0.137445,-0.128893,30.95,66.2452923012875
3402,-8.395219,-3.71067,4.040879,0.147219,0.140041,-0.128434,31.02,66.2387644800822
3412,-8.394022,-3.70409,4.034299,0.144317,0.140957,-0.128282,30.97,66.2645459395492
3422,-8.380263,-3.720839,4.019344,0.143553,0.140499,-0.126296,30.97,66.3295283422868
3432,-8.380263,-3.706482,4.007978,0.143248,0.140957,-0.124769,30.98,66.3757848541458
3442,-8.37129,-3.711866,4.001996,0.143859,0.140041,-0.122326,30.98,66.3933656306876
3452,-8.376674,-3.719643,4.000201,0.143706,0.138056,-0.117592,30.97,66.4213175789661
3462,-8.370691,-3.704688,3.991228,0.145539,0.136376,-0.113316,30.97,66.4420390127095
3472,-8.368299,-3.707081,3.982853,0.14844,0.134238,-0.109803,30.99,66.4833106187627
3482,-8.373085,-3.712464,3.98405,0.151036,0.131183,-0.104153,30.99,66.4920219332184
3492,-8.385049,-3.707679,3.968496,0.154396,0.128587,-0.098044,30.98,66.5944172418189
3502,-8.374281,-3.705884,3.97747,0.157756,0.12538,-0.093462,30.98,66.5230516399678
3512,-8.386844,-3.712464,3.971487,0.161574,0.12202,-0.087965,30.95,66.5868285304988
3522,-8.400601,-3.696313,3.968496,0.165544,0.117897,-0.083536,30.95,66.6163649593769
3532,-8.411968,-3.691527,3.963113,0.170279,0.113621,-0.078802,30.93,66.6639377425102
3542,-8.4012,-3.696911,3.968496,0.174097,0.10965,-0.075747,30.93,66.6181594374867
3552,-8.417352,-3.686144,3.973282,0.177762,0.104,-0.074526,30.95,66.6167794327146
3562,-8.425129,-3.684349,3.978666,0.181885,0.099876,-0.072846,30.95,66.6030561600437
3572,-8.432905,-3.681358,3.982853,0.187994,0.089797,-0.07086,30.94,66.5945489150496
3582,-8.450851,-3.661617,3.987041,0.190743,0.084299,-0.071319,30.98,66.5920731805673
3592,-8.452048,-3.663411,3.971487,0.19227,0.07926,-0.073304,30.98,66.6777108345426
3602,-8.460423,-3.66401,3.978068,0.194713,0.074526,-0.075747,30.93,66.6611258626885
3612,-8.463414,-3.667599,3.983452,0.19624,0.069639,-0.077733,30.93,66.6423588007386
3622,-8.467003,-3.662215,3.986442,0.196393,0.063683,-0.081551,30.94,66.6293185348015
3632,-8.469396,-3.662215,3.987639,0.196851,0.058796,-0.084452,30.94,66.6280216367607
3642,-8.468798,-3.656831,3.990032,0.196393,0.053756,-0.087965,30.94,66.609427974754
3652,-8.468199,-3.657429,3.989433,0.195324,0.048411,-0.092241,30.94,66.611854246086
3662,-8.46102,-3.661617,3.999603,0.194102,0.043524,-0.094837,30.97,66.5474835751021
3672,-8.463414,-3.652046,4.002594,0.192575,0.039095,-0.098349,30.97,66.5282106923883
3682,-8.456235,-3.644269,4.0008,0.19059,0.034208,-0.101404,30.98,66.5156173673857
3692,-8.438888,-3.644269,4.000201,0.18891,0.02978,-0.103694,30.98,66.4824799307808
3702,-8.452048,-3.655036,4.008576,0.186467,0.025962,-0.105527,30.96,66.4758926242589
3712,-8.438888,-3.659822,4.004987,0.184481,0.021991,-0.107512,30.96,66.4714940857278
3722,-8.423933,-3.656233,4.012166,0.182649,0.018937,-0.107818,30.96,66.3992881210169
3732,-8.423933,-3.667599,4.015755,0.180969,0.015577,-0.108429,30.96,66.3908615402416
3742,-8.406584,-3.662215,4.03071,0.178678,0.012523,-0.107665,30.93,66.2711124728671
3752,-8.380861,-3.666403,4.02413,0.175776,0.011454,-0.105527,30.95,66.2551249537409
3762,-8.380263,-3.66401,4.028915,0.173638,0.011148,-0.103694,30.95,66.2265371815963
3772,-8.367103,-3.675974,4.03729,0.171959,0.011759,-0.101404,30.94,66.1658223465065
3782,-8.357532,-3.671786,4.050451,0.172111,0.014966,-0.098349,30.94,66.0725351394125
3792,-8.357532,-3.67059,4.049254,0.171348,0.017868,-0.095448,30.96,66.0776935619344
3802,-8.339585,-3.690929,4.054638,0.170126,0.021686,-0.091783,30.96,66.030313352603
3812,-8.337791,-3.675375,4.068995,0.169821,0.027336,-0.087659,30.93,65.9365046759536
3822,-8.325229,-3.680759,4.067799,0.168904,0.032681,-0.083689,30.93,65.9209473149216
3832,-8.335398,-3.680161,4.080361,0.168599,0.039706,-0.080329,31,65.8763410513109
3842,-8.333005,-3.686741,4.082754,0.168141,0.046273,-0.077274,31,65.8649138219862
3852,-8.332406,-3.684947,4.08754,0.166919,0.05452,-0.074067,30.97,65.8368657181154
3862,-8.340183,-3.690331,4.08754,0.167224,0.062919,-0.072082,30.97,65.8586669417548
3872,-8.337193,-3.686144,4.09711,0.167377,0.071319,-0.06918,30.99,65.7982185072388
3882,-8.343175,-3.695715,4.1007,0.167072,0.081245,-0.067348,30.99,65.8014024657233
3892,-8.339585,-3.681358,4.095316,0.166766,0.090255,-0.066279,30.96,65.8081967837871
3902,-8.355139,-3.681358,4.091727,0.166919,0.099418,-0.065363,30.96,65.8603420635771
3912,-8.35155,-3.691527,4.1007,0.166919,0.108734,-0.065515,30.98,65.8153960233846
3922,-8.370093,-3.676572,4.097709,0.167683,0.126907,-0.065668,30.93,65.8566292769467
3932,-8.375478,-3.68734,4.098307,0.16753,0.134696,-0.067653,30.93,65.8751631410461
3942,-8.377871,-3.678965,4.089932,0.167683,0.142332,-0.069028,30.99,65.9161007794327
3952,-8.376076,-3.677768,4.088736,0.167683,0.148593,-0.070402,30.99,65.9173862974311
3962,-8.390432,-3.677768,4.080361,0.168599,0.153785,-0.072082,30.98,65.9917177870389
3972,-8.399406,-3.677768,4.071986,0.168446,0.158672,-0.074373,30.98,66.0545075875238
3982,-8.417951,-3.675974,4.062415,0.169362,0.16249,-0.076969,30.98,66.142083646752
3992,-8.409575,-3.667599,4.04387,0.169668,0.165392,-0.079565,30.98,66.2135184906564
4002,-8.426325,-3.66042,4.034897,0.170126,0.166766,-0.081398,30.96,66.2891757482673
4012,-8.43111,-3.67059,4.018745,0.170126,0.166461,-0.083536,30.96,66.3929960258413
4022,-8.416754,-3.661019,4.007978,0.170431,0.165544,-0.086437,30.93,66.4105304933629
4032,-8.426923,-3.665804,3.998407,0.17089,0.163254,-0.089034,30.93,66.486377028697
4042,-8.434101,-3.661617,3.984648,0.171042,0.158978,-0.091324,30.95,66.5697239586701
4052,-8.439486,-3.648456,3.985844,0.170126,0.154091,-0.093157,30.95,66.562789035449
4062,-8.457432,-3.650849,3.970291,0.169515,0.147829,-0.096211,30.96,66.683880845699
4072,-8.451449,-3.646662,3.963711,0.169362,0.140346,-0.098655,30.96,66.7022426366917
4082,-8.462217,-3.635296,3.955934,0.168141,0.133779,-0.101098,30.94,66.7552699935252
4092,-8.459227,-3.645465,3.960122,0.165086,0.115301,-0.107665,30.96,66.736150580416
4102,-8.468199,-3.639483,3.94397,0.163406,0.106596,-0.109345,30.96,66.8342186130134
4112,-8.458628,-3.645465,3.935595,0.161268,0.096975,-0.111483,30.98,66.8638012096158
4122,-8.469396,-3.643072,3.935595,0.159436,0.085979,-0.114537,30.98,66.8838868529549
4132,-8.463414,-3.641278,3.936193,0.157145,0.075595,-0.117286,30.93,66.8668128041219
4142,-8.468199,-3.641278,3.945167,0.155923,0.06521,-0.11805,30.93,66.8295236876565
4152,-8.463414,-3.637091,3.931407,0.153174,0.054825,-0.120188,30.99,66.8882730481338
4162,-8.462815,-3.644867,3.943372,0.151036,0.045662,-0.121409,30.99,66.831024480801
4172,-8.445468,-3.621537,3.946362,0.149051,0.036194,-0.122173,31,66.7585873411234
4182,-8.449057,-3.637091,3.955336,0.14844,0.027947,-0.121868,31,66.7327136491656
4192,-8.438289,-3.639483,3.960122,0.146608,0.019395,-0.121562,30.98,66.6873126971982
4202,-8.429317,-3.648456,3.963711,0.146302,0.011912,-0.119882,30.98,66.6578338741763
4212,-8.433504,-3.643072,3.983452,0.14615,0.005345,-0.118202,30.95,66.5579886750095
4222,-8.415558,-3.641278,3.983452,0.146608,0.000458,-0.115454,30.95,66.5188094054586
4232,-8.419745,-3.662215,3.998407,0.147677,-0.003818,-0.112552,30.98,66.4680847237647
4242,-8.408977,-3.659224,4.000201,0.149051,-0.006109,-0.109498,30.98,66.4333611307195
4252,-8.401799,-3.666403,4.027121,0.151342,-0.008094,-0.10568,30.98,66.2836680082503
4262,-8.387442,-3.67418,4.036094,0.155923,-0.007636,-0.09728,30.98,66.2135119309218
4272,-8.378469,-3.684349,4.039085,0.157909,-0.004887,-0.092546,30.96,66.1882983654394
4282,-8.375478,-3.678965,4.040879,0.160352,-0.001527,-0.089644,30.96,66.16755060198
4292,-8.373085,-3.689135,4.058227,0.162643,0.002596,-0.085368,30.96,66.0811202375823
4302,-8.362915,-3.689733,4.072584,0.165239,0.008094,-0.082925,30.96,65.9849348058304
4312,-8.362915,-3.69392,4.07737,0.167683,0.015119,-0.080176,30.96,65.9638515741295
4322,-8.363514,-3.698107,4.089334,0.170279,0.022144,-0.077274,30.98,65.9065745345113
4332,-8.352147,-3.695715,4.09053,0.172722,0.030391,-0.0759,30.98,65.8737656464066
4342,-8.36471,-3.699304,4.102495,0.174097,0.038332,-0.074526,30.98,65.8415846221408
4352,-8.359326,-3.707679,4.098905,0.175318,0.046731,-0.074526,30.98,65.856729344423
4362,-8.352147,-3.712464,4.102495,0.176387,0.056047,-0.074067,30.96,65.8271883822374
4372,-8.356335,-3.722036,4.10728,0.177609,0.066279,-0.074831,30.96,65.8203023706696
4382,-8.380861,-3.712464,4.101298,0.177915,0.075595,-0.076053,30.93,65.8947404218093
4392,-8.360522,-3.722036,4.09711,0.177456,0.084299,-0.076816,30.93,65.8822698053972
4402,-8.359326,-3.719643,4.100101,0.176693,0.093004,-0.079565,30.95,65.8618459111712
4412,-8.357532,-3.713063,4.099504,0.176235,0.101098,-0.082467,30.95,65.8548782214768
4422,-8.360522,-3.719045,4.091129,0.174707,0.109498,-0.084605,30.95,65.9106338737336
4432,-8.372486,-3.728018,4.082156,0.172875,0.123395,-0.089186,30.95,65.9913955186293
4442,-8.37129,-3.720839,4.072584,0.168446,0.129198,-0.092088,30.94,66.0320409460561
4452,-8.363514,-3.724428,4.068397,0.165239,0.133169,-0.094379,30.94,66.040805396199
4462,-8.375478,-3.720241,4.057629,0.163406,0.137292,-0.09499,30.94,66.1184853822372
4472,-8.379066,-3.71067,4.037888,0.161727,0.140194,-0.095142,30.96,66.2203726611382
4482,-8.373683,-3.710072,4.030112,0.159283,0.141263,-0.09499,30.96,66.249195245986
4492,-8.373683,-3.712464,4.021138,0.157298,0.141873,-0.09499,30.98,66.2984769902733
4502,-8.369495,-3.709473,4.010969,0.156992,0.140957,-0.093157,30.98,66.3402386091481
4512,-8.376674,-3.703491,4.002594,0.155312,0.138819,-0.090713,30.93,66.3937422102436
4522,-8.387442,-3.702893,3.993621,0.154243,0.136681,-0.087201,30.93,66.4628926579402
4532,-8.390432,-3.698107,3.97747,0.153327,0.132405,-0.084452,30.96,66.5496170830867
4542,-8.387442,-3.68375,3.987041,0.152716,0.128129,-0.080329,30.96,66.4798207325675
4552,-8.385049,-3.678965,3.967898,0.15348,0.122784,-0.076511,30.94,66.571170160149
4562,-8.393424,-3.668795,3.972086,0.153785,0.117744,-0.071166,30.94,66.5573142294311
4572,-8.410173,-3.666403,3.966702,0.153785,0.110719,-0.066279,30.93,66.6184521475482
4582,-8.410771,-3.664608,3.968496,0.154091,0.105222,-0.061697,30.93,66.6086292204375
4592,-8.42453,-3.656233,3.970291,0.154396,0.098502,-0.05849,30.98,66.6202881887242
4604,-8.422735,-3.646064,3.973282,0.155771,0.085827,-0.05116,30.96,66.5916220316869
4612,-8.434101,-3.657429,3.976273,0.15684,0.079718,-0.049327,30.96,66.6098901324593
4622,-8.443673,-3.64068,3.980461,0.15684,0.07422,-0.04948,30.95,66.5927638431934
4632,-8.450253,-3.6341,3.98405,0.158367,0.068875,-0.048258,30.95,66.5817518139741
4642,-8.456235,-3.631108,3.99063,0.158825,0.064752,-0.049327,30.93,66.5570581846497
4652,-8.468199,-3.636492,4.004987,0.159436,0.059865,-0.050396,30.93,66.5117098311437
4662,-8.46461,-3.623332,4.008576,0.161116,0.056352,-0.052687,30.94,66.4736363538368
4672,-8.458031,-3.627519,4.009174,0.161116,0.053298,-0.055894,30.94,66.4604862566874
4682,-8.466404,-3.614359,4.018745,0.161116,0.051313,-0.060018,30.98,66.4161777605562
4692,-8.466404,-3.612564,4.013362,0.161574,0.048411,-0.065057,30.98,66.4427178475368
4702,-8.467003,-3.608377,4.026522,0.162796,0.047037,-0.070402,30.98,66.371429662043
4712,-8.463414,-3.614957,4.022335,0.162643,0.045662,-0.075289,30.98,66.3916686373411
4722,-8.456235,-3.611368,4.029513,0.162643,0.04444,-0.08094,30.96,66.3358194927649
4732,-8.44427,-3.625126,4.029513,0.163406,0.044135,-0.086743,30.96,66.3230222201837
4742,-8.460423,-3.619144,4.0337,0.16417,0.043677,-0.091477,30.95,66.3297600295249
4752,-8.448458,-3.622135,4.03071,0.163865,0.043371,-0.096822,30.95,66.3228839676205
4762,-8.440084,-3.621537,4.03071,0.163559,0.043371,-0.102167,30.91,66.3046882111491
4772,-8.427522,-3.643072,4.032505,0.163712,0.043371,-0.106291,30.91,66.2883642933263
4782,-8.408977,-3.637689,4.03071,0.164017,0.043524,-0.114537,30.95,66.2536720457571
4792,-8.420941,-3.638287,4.025924,0.163406,0.042761,-0.118508,30.96,66.3045661244916
4802,-8.408379,-3.638885,4.032505,0.163865,0.043066,-0.120493,30.96,66.2440974228982
4812,-8.405987,-3.644269,4.034299,0.162185,0.044135,-0.121868,30.93,66.2345729098751
4822,-8.39462,-3.652644,4.026522,0.161116,0.043982,-0.124158,30.93,66.2589804046484
4832,-8.385648,-3.653242,4.037888,0.160199,0.044288,-0.124006,30.97,66.1809322661333
4842,-8.374281,-3.663411,4.033103,0.159741,0.045509,-0.124769,30.97,66.1913318351501
4852,-8.364112,-3.681358,4.03729,0.158367,0.046731,-0.124464,30.96,66.1644997335861
4862,-8.36471,-3.666403,4.042076,0.156382,0.048258,-0.123089,30.96,66.1267121116451
4872,-8.37129,-3.680759,4.03729,0.155312,0.049786,-0.121257,30.95,66.1791595891684
4882,-8.359925,-3.680759,4.046861,0.153633,0.052229,-0.119882,30.95,66.1048517423287
4892,-8.346166,-3.697509,4.04746,0.151953,0.054214,-0.117897,30.96,66.0881846825225
4902,-8.36471,-3.694518,4.044468,0.150884,0.056505,-0.114843,30.96,66.1404374224301
4912,-8.350951,-3.707081,4.042674,0.148288,0.06017,-0.112552,30.96,66.1324620044396
4922,-8.340781,-3.708277,4.052843,0.147371,0.063988,-0.109192,30.96,66.058665414903
4932,-8.346764,-3.706482,4.050451,0.146455,0.067959,-0.105527,30.95,66.082231305304
4942,-8.333604,-3.718446,4.052843,0.14508,0.072388,-0.101098,30.95,66.05303336784
4952,-8.344371,-3.71067,4.057031,0.143553,0.080634,-0.093157,30.96,66.0466134372998
4962,-8.346764,-3.705286,4.058227,0.142332,0.084758,-0.087965,30.93,66.0403486910673
4972,-8.335996,-3.716054,4.055236,0.141873,0.089644,-0.083994,30.93,66.0433047802919
4982,-8.356933,-3.71725,4.051049,0.141873,0.093921,-0.080329,30.94,66.1108341312601
4992,-8.349755,-3.71725,4.048656,0.142179,0.097586,-0.0759,30.94,66.1081529559452
5002,-8.368897,-3.714259,4.045665,0.142179,0.102014,-0.071166,30.98,66.1615391632151
5012,-8.375478,-3.71725,4.045067,0.142179,0.10568,-0.068417,30.98,66.1813793427979
5022,-8.364112,-3.717848,4.039683,0.142637,0.108123,-0.066737,30.96,66.1861242952047
5032,-8.38146,-3.705286,4.043272,0.143401,0.110567,-0.064294,30.96,66.1922142425215
5042,-8.390432,-3.708277,4.038486,0.144164,0.113468,-0.06185,30.96,66.238971362747
5052,-8.38445,-3.708277,4.038486,0.144928,0.115912,-0.060323,30.96,66.2263634983001
5062,-8.406584,-3.70409,4.041477,0.145691,0.117133,-0.060934,30.94,66.2534462180115
5072,-8.412566,-3.707679,4.034299,0.14676,0.118508,-0.060018,30.94,66.3068489170699
5082,-8.412566,-3.695715,4.028317,0.147829,0.118661,-0.060628,30.97,66.3270739198777
5092,-8.412566,-3.695715,4.035496,0.148898,0.118661,-0.061697,30.97,66.2895364099922
5102,-8.440681,-3.680759,4.023531,0.149967,0.117286,-0.062766,30.95,66.3973004421346
5112,-8.440084,-3.675375,4.015156,0.150578,0.115759,-0.065057,30.95,66.4349193456537
5122,-8.436494,-3.678965,4.010969,0.151953,0.114843,-0.069333,30.93,66.4525847078741
5132,-8.447262,-3.676572,4.002594,0.153938,0.108429,-0.073304,30.92,66.5166972104201
5142,-8.448458,-3.674777,3.996014,0.15516,0.104458,-0.076664,30.92,66.5519946935065
5152,-8.458031,-3.661617,3.996014,0.155312,0.100793,-0.078954,30.96,66.5600360220534
5162,-8.453244,-3.661019,3.988835,0.155618,0.095906,-0.081856,30.96,66.5871164681402
5172,-8.455637,-3.658626,3.981059,0.15684,0.090561,-0.084147,30.98,66.630677622278
5182,-8.443673,-3.675974,3.974478,0.157298,0.084452,-0.08659,30.98,66.6559691365938
5192,-8.452048,-3.665804,3.969693,0.157298,0.079107,-0.089339,30.93,66.6892725627855
5202,-8.445468,-3.653242,3.970291,0.158672,0.072235,-0.089644,30.93,66.6611768972057
5212,-8.446067,-3.65384,3.966104,0.15852,0.065363,-0.090866,30.95,66.6849411314643
5222,-8.441879,-3.655036,3.955336,0.15852,0.057879,-0.09163,30.95,66.7338947871576
5232,-8.433504,-3.650849,3.949354,0.158978,0.05116,-0.092088,30.96,66.7442204322346
5242,-8.432307,-3.655036,3.964309,0.158978,0.04383,-0.091477,30.96,66.6668457886362
5252,-8.437692,-3.644269,3.967898,0.159589,0.036346,-0.090561,30.94,66.6494958872559
5262,-8.428718,-3.652046,3.969095,0.159436,0.028863,-0.089797,30.94,66.6315191581759
5272,-8.42453,-3.644867,3.973282,0.159436,0.022297,-0.088117,30.96,66.5942890763438
5282,-8.41137,-3.659224,3.985844,0.160047,0.016341,-0.086285,30.96,66.5137752812778
5292,-8.400003,-3.643072,3.996014,0.160352,0.011759,-0.08323,30.93,66.4217404136416
5302,-8.402995,-3.652644,4.003192,0.161268,0.002749,-0.078954,30.97,66.3990713816683
5312,-8.395817,-3.656233,4.005585,0.161727,0.000153,-0.076053,30.97,66.3746814335996
5322,-8.400003,-3.655036,4.009174,0.161116,-0.001222,-0.07422,30.95,66.3635570045097
5332,-8.38445,-3.65384,4.021737,0.161268,-0.002291,-0.072846,30.95,66.2636730962246
5342,-8.380263,-3.655036,4.039683,0.160963,-0.000916,-0.07086,30.94,66.1617512059951
5352,-8.387442,-3.652046,4.048656,0.160047,0.000764,-0.069791,30.94,66.1272128868452
5362,-8.374281,-3.658028,4.065406,0.158978,0.004887,-0.069028,30.92,66.0170453264517
5372,-8.368897,-3.667599,4.068397,0.15852,0.00901,-0.06918,30.92,65.9988388086554
5382,-8.377273,-3.669992,4.086343,0.157909,0.015424,-0.068722,30.93,65.9251511654884
5392,-8.365308,-3.664608,4.092923,0.156534,0.022449,-0.069486,30.93,65.8601172292593
5402,-8.368299,-3.659822,4.101298,0.153938,0.029932,-0.068722,30.95,65.8183027949938
5412,-8.36471,-3.663411,4.105485,0.151953,0.038943,-0.071471,30.95,65.7921105470974
5422,-8.370691,-3.667599,4.115655,0.149815,0.048564,-0.071929,30.94,65.7558667464675
5432,-8.362915,-3.67059,4.118048,0.148135,0.058338,-0.073915,30.94,65.7294855116525
5442,-8.362915,-3.672385,4.131208,0.146608,0.06918,-0.074831,30.97,65.6626121531364
5452,-8.367103,-3.672385,4.127021,0.14447,0.07926,-0.076205,30.97,65.6934434831081
5462,-8.365308,-3.677768,4.107878,0.142332,0.090255,-0.077274,30.97,65.7944410233491
5472,-8.369495,-3.678366,4.10728,0.140041,0.110872,-0.080634,30.97,65.8071075347476
5482,-8.365907,-3.68375,4.10728,0.136834,0.120035,-0.081703,30.93,65.8044920800427
5492,-8.373683,-3.686144,4.099504,0.135459,0.128587,-0.083078,30.95,65.8639567509349
5502,-8.378469,-3.680759,4.096512,0.134696,0.136376,-0.083994,30.95,65.8847316974207
5512,-8.373085,-3.678965,4.085745,0.133779,0.143706,-0.084299,30.99,65.9277373321523
5522,-8.377871,-3.678965,4.064209,0.133474,0.149662,-0.084147,30.99,66.0504910304062
5532,-8.387442,-3.681358,4.056432,0.132252,0.153633,-0.085063,30.96,66.1137210307431
5542,-8.386844,-3.691527,4.045067,0.131336,0.157145,-0.085063,30.96,66.1813723573179
5552,-8.383853,-3.686144,4.041477,0.132252,0.158825,-0.085368,30.96,66.1888314864955
5562,-8.397013,-3.689135,4.017549,0.132405,0.15852,-0.085368,30.96,66.3447089522441
5572,-8.393424,-3.68734,4.002594,0.133169,0.15852,-0.084299,30.91,66.4139583343915
5582,-8.402397,-3.687938,3.996014,0.133321,0.156229,-0.084147,30.91,66.467850221985
5592,-8.398808,-3.68375,3.988237,0.133779,0.152869,-0.083383,30.97,66.497333384812
5602,-8.413164,-3.665804,3.972684,0.134848,0.148135,-0.08262,30.97,66.5926828990312
5612,-8.426325,-3.676572,3.958925,0.134848,0.141263,-0.081703,30.93,66.7021786936237
5622,-8.423334,-3.678965,3.951746,0.135307,0.134085,-0.08094,30.93,66.7358976810281
5632,-8.440681,-3.667599,3.931407,0.136681,0.126449,-0.080634,30.96,66.8685727405069
5642,-8.443673,-3.663411,3.924229,0.137292,0.117286,-0.078038,30.96,66.9087930780956
5652,-8.446067,-3.662215,3.93739,0.138972,0.09728,-0.07758,30.97,66.8433755277883
5662,-8.454441,-3.66401,3.927818,0.138972,0.086285,-0.077122,30.98,66.9126060342726
5672,-8.467003,-3.663411,3.926622,0.139583,0.075136,-0.077274,30.98,66.9441914269396
5682,-8.459227,-3.661019,3.922434,0.139583,0.064141,-0.077733,30.96,66.9481185645398
5692,-8.460423,-3.650849,3.936791,0.140346,0.052229,-0.077733,30.96,66.8660057168736
5702,-8.461619,-3.65384,3.934398,0.140957,0.041233,-0.078496,30.94,66.883716307894
5712,-8.459227,-3.654438,3.94397,0.141721,0.030543,-0.079412,30.94,66.8289979334812
5722,-8.467003,-3.649653,3.947559,0.141568,0.020159,-0.080787,30.96,66.8219359648166
5732,-8.465807,-3.656831,3.952943,0.140652,0.010537,-0.081703,30.96,66.7975957143041
5742,-8.463414,-3.650849,3.966104,0.140499,0.001985,-0.08323,30.97,66.7182491389911
5752,-8.465208,-3.650251,3.972086,0.140499,-0.005803,-0.08491,30.97,66.690067050328
5762,-8.455039,-3.652644,3.975077,0.139735,-0.013439,-0.087812,30.95,66.6554198135537
5772,-8.455039,-3.652046,3.980461,0.13943,-0.019395,-0.090408,30.95,66.6266547200517
5782,-8.449057,-3.649653,3.996014,0.138972,-0.022907,-0.090866,30.96,66.5305392963966
5792,-8.432905,-3.653242,4.00738,0.138819,-0.026725,-0.092699,30.96,66.4404620824045
5802,-8.439486,-3.655635,4.036692,0.138666,-0.029016,-0.094226,30.94,66.3031287955155
5812,-8.411968,-3.658028,4.046861,0.137903,-0.030085,-0.095142,30.94,66.1941264506215
5822,-8.404789,-3.661019,4.060022,0.136681,-0.027489,-0.096517,30.98,66.1128861278206
5832,-8.400601,-3.672385,4.066004,0.137292,-0.024282,-0.096211,30.92,66.0832758362382
5842,-8.38445,-3.669992,4.071986,0.136681,-0.019242,-0.096822,30.92,66.0154637124247
5852,-8.380263,-3.678965,4.080959,0.136376,-0.014355,-0.096517,30.98,65.9680493059084
5862,-8.371889,-3.679563,4.081557,0.136528,-0.008552,-0.094684,30.98,65.9476208120685
5872,-8.367702,-3.688536,4.09053,0.137445,-0.000458,-0.092393,30.94,65.9002499872255
5882,-8.368897,-3.679563,4.101298,0.139125,0.007636,-0.089797,30.94,65.838155449942
5892,-8.350951,-3.681956,4.097709,0.139277,0.016646,-0.087812,30.95,65.8206675430641
5902,-8.33121,-3.695715,4.101298,0.140194,0.025504,-0.085063,30.95,65.7725714535273
5912,-8.339585,-3.695116,4.106084,0.140957,0.034514,-0.081551,30.96,65.7649978745219
5922,-8.330013,-3.698706,4.110271,0.141568,0.045357,-0.078649,30.96,65.7259599695172
5932,-8.33121,-3.695116,4.1007,0.142484,0.055894,-0.075136,30.96,65.7751264751388
5942,-8.322237,-3.699304,4.106682,0.143248,0.065363,-0.072235,30.96,65.7285413601086
5952,-8.321041,-3.708277,4.095914,0.145386,0.075595,-0.06857,30.95,65.7908763415603
5962,-8.327023,-3.695715,4.098307,0.146302,0.085521,-0.066584,30.95,65.7792076949896
5972,-8.329416,-3.706482,4.092923,0.147524,0.095295,-0.063683,30.96,65.8227870303709
5982,-8.335398,-3.7005,4.085146,0.148135,0.104458,-0.061087,30.96,65.8705966785544
5992,-8.349755,-3.701697,4.086343,0.14844,0.12034,-0.058643,30.95,65.8961977982864
6002,-8.34796,-3.705286,4.073781,0.149204,0.127213,-0.0562,30.95,65.9614586494478
6012,-8.338388,-3.702893,4.074379,0.149357,0.132405,-0.055741,30.95,65.9356239397165
6022,-8.342576,-3.702893,4.058227,0.149051,0.13775,-0.054825,30.96,66.0291709912847
6032,-8.359326,-3.702893,4.054638,0.148288,0.141568,-0.053909,30.96,66.0835960161695
6042,-8.367103,-3.705286,4.040879,0.147066,0.14508,-0.053603,30.93,66.1743982390983
6052,-8.374879,-3.702893,4.037888,0.146455,0.147066,-0.054214,30.93,66.2042689143945
6062,-8.388638,-3.679563,4.031308,0.145386,0.148746,-0.054978,30.97,66.2461037633056
6072,-8.378469,-3.678366,4.017549,0.143553,0.149204,-0.055436,30.97,66.2956897203659
6082,-8.38445,-3.684349,4.022933,0.141415,0.148593,-0.056352,30.95,66.2856026477837
6092,-8.419147,-3.672983,4.00738,0.139888,0.147219,-0.055894,30.95,66.4296150003954
6102,-8.407781,-3.680161,4.002594,0.137597,0.145386,-0.057727,30.96,66.4374621811242
6112,-8.417951,-3.678366,4.008576,0.135612,0.142179,-0.059254,30.96,66.4257666967123
6122,-8.43111,-3.67059,3.999603,0.133474,0.138819,-0.059254,30.98,66.4932162615727
6132,-8.428718,-3.658028,3.985246,0.130267,0.134543,-0.061087,30.98,66.5521016143621
6142,-8.437093,-3.658028,3.994219,0.128893,0.129198,-0.061697,30.98,66.5225292500325
6152,-8.441879,-3.655635,3.978666,0.12706,0.123242,-0.062461,30.98,66.6119119027754
6162,-8.460423,-3.653242,3.970889,0.124769,0.11133,-0.063988,30.99,66.6890947440801
6172,-8.452645,-3.649055,3.967898,0.122173,0.104611,-0.065363,30.92,66.6848901455867
6182,-8.462815,-3.638885,3.97388,0.120493,0.096975,-0.065973,30.92,66.66553249148
6192,-8.469396,-3.64726,3.972684,0.119577,0.08995,-0.066432,30.99,66.6929450306214
6202,-8.472386,-3.641876,3.963113,0.119424,0.082161,-0.068417,30.99,66.7445172923794
6212,-8.47119,-3.636492,3.963113,0.120188,0.074373,-0.069486,30.94,66.7372491717879
6222,-8.474779,-3.6341,3.959523,0.120799,0.066279,-0.07086,30.94,66.7613903841016
6242,-8.470592,-3.626921,3.966104,0.122326,0.050091,-0.073304,30.98,66.7118080125754
6252,-8.478369,-3.636492,3.955336,0.123395,0.041539,-0.075442,31,66.7929057991485
6262,-8.477771,-3.634698,3.961916,0.124464,0.034361,-0.076205,31,66.7555638779932
6272,-8.485548,-3.631108,3.957729,0.126907,0.027184,-0.077427,31,66.7904267679364
6282,-8.462815,-3.63051,3.970889,0.129656,0.019853,-0.079718,31,66.6737439826942
6292,-8.453843,-3.6341,3.970889,0.131489,0.013286,-0.080634,31,66.6582886259208
6302,-8.451449,-3.638287,3.963711,0.133779,0.007025,-0.082467,31,66.6947450764053
6312,-8.456235,-3.650251,3.979264,0.136681,0.001374,-0.083841,30.92,66.6338048047859
6322,-8.450253,-3.638287,3.989433,0.138514,-0.003971,-0.085521,30.92,66.5572870262716
6332,-8.431709,-3.649653,3.993023,0.139583,-0.008399,-0.087354,30.94,66.5099610978961
6342,-8.419745,-3.635894,4.00379,0.142942,-0.01573,-0.089186,30.98,66.4159010551655
6352,-8.421539,-3.641278,4.00738,0.143553,-0.018937,-0.090713,30.98,66.4057328934838
6362,-8.417951,-3.651447,4.002594,0.143553,-0.020464,-0.092699,30.97,66.4325504064374
6372,-8.403594,-3.658028,4.016951,0.143859,-0.021228,-0.094226,30.97,66.3330637800964
6382,-8.385049,-3.658028,4.027121,0.143859,-0.021686,-0.094684,30.93,66.2405507176389
6392,-8.386844,-3.661019,4.032505,0.143859,-0.020769,-0.095295,30.93,66.2188768807408
6402,-8.374281,-3.658028,4.031906,0.144011,-0.018326,-0.095142,30.95,66.1926210494819
6412,-8.373085,-3.673581,4.045067,0.143401,-0.016952,-0.096364,30.95,66.1355126642084
6422,-8.372486,-3.668795,4.055834,0.142026,-0.012828,-0.096059,30.91,66.0733724820426
6432,-8.353344,-3.679563,4.066004,0.14111,-0.009316,-0.096975,30.91,65.9893878801932
6442,-8.350353,-3.689135,4.076771,0.139888,-0.003818,-0.097128,30.95,65.9356514299911
6452,-8.347363,-3.684947,4.080959,0.13775,0.001527,-0.097128,30.95,65.9033842776836
6462,-8.350951,-3.68734,4.086941,0.135918,0.007941,-0.096822,30.96,65.8820398142662
6472,-8.338987,-3.69392,4.09412,0.13439,0.014966,-0.096517,30.96,65.8250964485474
6482,-8.335398,-3.692724,4.094718,0.1321,0.023518,-0.095753,30.94,65.8131273917667
6492,-8.338987,-3.69392,4.093522,0.129198,0.032223,-0.095142,30.94,65.8282231769635
6502,-8.338987,-3.70409,4.121637,0.127671,0.041233,-0.093462,30.96,65.691103612347
6512,-8.330013,-3.706482,4.112664,0.123089,0.059712,-0.090103,30.96,65.7209017107914
6522,-8.338388,-3.713063,4.111467,0.120799,0.070402,-0.087812,30.96,65.7514503156896
6532,-8.34138,-3.705286,4.11745,0.118966,0.080787,-0.085216,30.92,65.7192330238798
6542,-8.321639,-3.708277,4.109075,0.117897,0.090561,-0.081856,30.92,65.7233457030924
6552,-8.334201,-3.714259,4.119244,0.11637,0.100945,-0.07926,30.96,65.703022006377
6562,-8.333604,-3.71067,4.110271,0.114995,0.110108,-0.076664,30.96,65.7451274462476
6572,-8.340781,-3.725027,4.104887,0.113468,0.119424,-0.073304,30.95,65.8023587910432
6582,-8.344371,-3.721437,4.097709,0.114537,0.128282,-0.06918,30.95,65.8440791548854
6592,-8.344371,-3.704688,4.093522,0.114079,0.136528,-0.065515,30.95,65.8499996204693
6605,-8.353942,-3.702295,4.073781,0.114843,0.143401,-0.06185,30.95,65.9713866234508
6612,-8.362915,-3.70409,4.066004,0.115454,0.149815,-0.05849,30.95,66.03286185889
6622,-8.370093,-3.701697,4.048656,0.116064,0.153938,-0.055283,30.95,66.1366321555248
6632,-8.37129,-3.699902,4.043272,0.116981,0.157909,-0.052229,30.96,66.1656814893646
6642,-8.382057,-3.696911,4.043272,0.11805,0.161574,-0.048258,30.96,66.1856619740467
6652,-8.392226,-3.698706,4.024727,0.120035,0.163559,-0.045204,30.98,66.3058866720681
6662,-8.39462,-3.696313,4.012764,0.121257,0.163101,-0.043066,30.98,66.371398000247
6672,-8.41137,-3.696911,3.993023,0.124006,0.162796,-0.041233,30.96,66.5105333144341
6682,-8.430512,-3.679563,3.988835,0.126296,0.157145,-0.037721,30.96,66.5565680697881
6692,-8.429317,-3.684349,3.979264,0.129503,0.151953,-0.037721,30.95,66.6086293763599
6702,-8.445468,-3.672983,3.967898,0.131641,0.146302,-0.038026,30.95,66.6915115538375
6712,-8.448458,-3.666403,3.957131,0.133169,0.139583,-0.038179,30.95,66.7483049145956
6722,-8.456833,-3.668197,3.96072,0.134543,0.131336,-0.039554,30.95,66.748404426285
6732,-8.459227,-3.669394,3.953541,0.13607,0.12202,-0.041539,30.95,66.7920988484268
6742,-8.484351,-3.671786,3.936193,0.137139,0.111636,-0.04383,30.9,66.9369567841494
6752,-8.485548,-3.662215,3.92722,0.138208,0.101251,-0.046273,30.9,66.9780310542676
6762,-8.483753,-3.648456,3.922434,0.138972,0.090255,-0.050396,30.94,66.9873452971
6772,-8.487941,-3.655635,3.930212,0.138666,0.078038,-0.05284,30.94,66.9614111169903
6782,-8.484351,-3.639483,3.933203,0.138666,0.066126,-0.056963,30.97,66.9240738132319
6792,-8.491529,-3.637689,3.916452,0.138208,0.053603,-0.061392,30.97,67.025256900158
6802,-8.498708,-3.646662,3.929015,0.137445,0.041539,-0.065515,30.94,66.9818580062483
6812,-8.488539,-3.647858,3.931407,0.137292,0.028863,-0.069486,30.94,66.949499287179
6822,-8.490333,-3.651447,3.93739,0.135765,0.01741,-0.072998,30.95,66.9249464216253
6832,-8.491529,-3.646662,3.937988,0.133932,0.006261,-0.076969,30.95,66.9200414309605
6842,-8.486743,-3.643072,3.946961,0.133016,-0.00336,-0.081856,30.99,66.8599483533167
6852,-8.460423,-3.640081,3.964309,0.131183,-0.013744,-0.087506,30.99,66.7118446567481
6862,-8.465208,-3.641876,3.986442,0.128129,-0.028711,-0.089644,30.98,66.6073519571637
6872,-8.449656,-3.638287,3.979862,0.126755,-0.034514,-0.091783,30.96,66.6062328952122
6882,-8.435298,-3.639483,3.993621,0.124769,-0.040164,-0.092241,30.96,66.5051374855379
6892,-8.429317,-3.632903,4.001996,0.124158,-0.043524,-0.094379,30.96,66.4427172598403
6902,-8.414959,-3.64068,4.010969,0.123547,-0.04612,-0.09499,30.96,66.3725196112318
6912,-8.416155,-3.648456,4.025924,0.122173,-0.047342,-0.095295,30.96,66.3037538331084
6922,-8.382656,-3.656233,4.034299,0.122326,-0.046731,-0.093921,30.96,66.1961700383996
6932,-8.380263,-3.654438,4.046263,0.122173,-0.045051,-0.093462,30.95,66.1267055449874
6942,-8.376076,-3.662215,4.059424,0.122478,-0.041844,-0.091477,30.95,66.0560862889003
6952,-8.357532,-3.659224,4.061218,0.121409,-0.036957,-0.089339,30.96,66.0043299867025
6962,-8.343175,-3.668197,4.066004,0.122784,-0.031001,-0.086896,30.96,65.9569491127634
6972,-8.346166,-3.669394,4.076771,0.123547,-0.023671,-0.083536,30.95,65.9080643815459
6982,-8.339585,-3.666403,4.089932,0.123853,-0.014966,-0.08094,30.95,65.8221994926815
6992,-8.325229,-3.672385,4.1007,0.123853,-0.00504,-0.077733,30.92,65.7405828878273
7002,-8.323434,-3.665206,4.106682,0.125227,0.004734,-0.073915,30.92,65.6985639003268
7012,-8.319246,-3.674777,4.123432,0.125838,0.016341,-0.07086,30.96,65.6110444417823
7022,-8.319246,-3.68734,4.128816,0.125838,0.028405,-0.067501,30.96,65.5949642807264
7032,-8.313862,-3.68375,4.118048,0.126907,0.053298,-0.062308,30.93,65.636123737448
7042,-8.316854,-3.689733,4.12403,0.127671,0.065668,-0.058948,30.98,65.6170787118851
7052,-8.322835,-3.684947,4.126423,0.127976,0.078343,-0.057727,30.98,65.612935073335
7062,-8.3348,-3.687938,4.11745,0.127671,0.090561,-0.055589,30.95,65.6884985945583
7072,-8.332406,-3.686144,4.110869,0.126602,0.101862,-0.054214,30.95,65.7159963318585
7082,-8.338388,-3.681956,4.109673,0.125838,0.113163,-0.05284,30.96,65.7311477179541
7092,-8.340781,-3.68734,4.101896,0.125227,0.123547,-0.052993,30.96,65.7820500494368
7102,-8.348558,-3.695116,4.09053,0.124617,0.1321,-0.052382,30.97,65.8655151849746
7112,-8.368897,-3.679563,4.084548,0.122631,0.139583,-0.053145,30.97,65.9256041102
7122,-8.382656,-3.691527,4.083352,0.121868,0.14676,-0.054062,30.98,65.9724237962167
7132,-8.377871,-3.68734,4.067201,0.11973,0.152105,-0.0562,30.98,66.0426761350776
7142,-8.391629,-3.687938,4.057629,0.118813,0.155923,-0.058032,31,66.122461693999
7152,-8.404191,-3.685545,4.038486,0.116064,0.158061,-0.060476,31,66.2468766591535
7162,-8.408977,-3.686144,4.027121,0.114537,0.157145,-0.063835,30.95,66.3169674708411
7172,-8.427522,-3.695116,4.019942,0.113468,0.157145,-0.065363,30.95,66.4016617431612
7182,-8.432307,-3.684349,4.008576,0.111941,0.154702,-0.067653,30.97,66.4612680410069
7192,-8.443074,-3.681956,3.987639,0.110872,0.151495,-0.070708,30.97,66.5911536284563
7202,-8.452645,-3.676572,3.978068,0.109192,0.139583,-0.075136,30.96,66.6563019140071
7212,-8.457432,-3.675974,3.958925,0.10736,0.131336,-0.07758,30.97,66.7660395042116
7222,-8.462815,-3.676572,3.956532,0.106749,0.123242,-0.079565,30.97,66.7902405257501
7232,-8.455039,-3.672983,3.951149,0.106749,0.114995,-0.080634,30.97,66.7992268556887
7242,-8.465208,-3.669992,3.948756,0.106443,0.104916,-0.081856,30.97,66.8300862189466
7252,-8.465208,-3.666403,3.940381,0.105832,0.094073,-0.083078,30.98,66.8708561073033
7262,-8.46102,-3.679563,3.930809,0.106749,0.082772,-0.08323,30.98,66.9242820844575
7272,-8.458628,-3.668197,3.940381,0.108429,0.07254,-0.082925,30.93,66.8589055236803
7282,-8.466404,-3.666403,3.931407,0.109192,0.062156,-0.08323,30.93,66.9204672691843
7292,-8.460423,-3.661019,3.942773,0.110414,0.051924,-0.082467,30.98,66.843627418713
7302,-8.453244,-3.665804,3.949354,0.11133,0.041692,-0.081398,30.98,66.7985130571373
7312,-8.455637,-3.662215,3.943372,0.114537,0.032681,-0.080176,30.93,66.8316740607459
7322,-8.44427,-3.658626,3.949952,0.116064,0.022907,-0.077733,30.93,66.7703755173878
7332,-8.44427,-3.659224,3.949354,0.117897,0.014966,-0.077274,30.95,66.7740559422955
7342,-8.447262,-3.67059,3.969095,0.120035,0.007636,-0.075442,30.95,66.6867937873667
7352,-8.435897,-3.66401,3.9673,0.121868,0.000153,-0.073457,30.95,66.6666903647272
7362,-8.438289,-3.662813,3.982255,0.123395,-0.004429,-0.071777,30.95,66.5920880872185
7372,-8.410173,-3.658028,3.994219,0.12538,-0.009316,-0.068722,30.98,66.4661853313896
7382,-8.420342,-3.668197,4.008576,0.128129,-0.014813,-0.068722,30.93,66.4214792149216
7392,-8.423334,-3.677171,4.018147,0.130114,-0.016188,-0.066737,30.93,66.3858369088058
7402,-8.400003,-3.661019,4.019942,0.130878,-0.016952,-0.065363,30.96,66.3125555459952
7412,-8.41436,-3.665804,4.022335,0.132252,-0.016493,-0.064446,30.96,66.3346496799539
7422,-8.404191,-3.661617,4.03071,0.132252,-0.01573,-0.06353,30.95,66.26551154618
7432,-8.379066,-3.676572,4.058227,0.13271,-0.012981,-0.062766,30.95,66.0820915623289
7442,-8.392226,-3.669992,4.059424,0.133474,-0.010385,-0.062003,30.95,66.0976610853005
7452,-8.38445,-3.675974,4.067799,0.132863,-0.006261,-0.060781,30.95,66.0429232442165
7462,-8.382656,-3.668795,4.068397,0.1321,-0.001985,-0.061087,30.96,66.029286728936
7472,-8.376076,-3.684349,4.073781,0.1321,0.002902,-0.061087,30.96,66.0016658728613
7482,-8.367103,-3.680161,4.077968,0.131489,0.007941,-0.062308,30.95,65.9567215116587
7492,-8.375478,-3.681956,4.082754,0.130725,0.014508,-0.061239,30.95,65.9512724252575
7502,-8.365907,-3.691527,4.08754,0.129351,0.021686,-0.061087,30.93,65.9148459199683
7512,-8.367103,-3.69392,4.092325,0.128129,0.029169,-0.060934,30.93,65.8946747978602
7522,-8.35454,-3.682554,4.086941,0.127365,0.03543,-0.061087,30.97,65.8852038204428
7532,-8.362316,-3.685545,4.09412,0.125075,0.041844,-0.060781,30.97,65.8671661858406
7542,-8.34796,-3.675375,4.089932,0.123242,0.04948,-0.061545,30.97,65.8486773891633
7552,-8.355738,-3.686741,4.09053,0.120799,0.064141,-0.061392,30.96,65.8729646151356
7562,-8.355139,-3.693322,4.081557,0.119271,0.071166,-0.062156,30.96,65.9248002255712
7572,-8.344969,-3.699304,4.070191,0.117133,0.07758,-0.062766,30.97,65.9682052655922
7582,-8.355139,-3.690929,4.078567,0.115606,0.084452,-0.062156,30.97,65.9381762863066
7592,-8.362915,-3.677171,4.070191,0.115301,0.090103,-0.06185,30.91,65.9856515608259
7602,-8.359326,-3.688536,4.068397,0.114232,0.095295,-0.062461,30.91,65.998062226147
7612,-8.356335,-3.678965,4.071986,0.113926,0.099876,-0.062308,30.94,65.9638920972743
7622,-8.363514,-3.684947,4.062415,0.113468,0.103847,-0.062156,30.94,66.0349236361999
7632,-8.366504,-3.679563,4.049852,0.112857,0.107665,-0.06353,30.94,66.1020401834427
7642,-8.37129,-3.680759,4.040281,0.113316,0.110719,-0.062156,30.94,66.1634783951784
7652,-8.373683,-3.67418,4.029513,0.114079,0.11301,-0.061392,30.96,66.218899089309
7662,-8.362915,-3.682554,4.0337,0.113926,0.114385,-0.061239,30.96,66.181913759084
7672,-8.391031,-3.679563,4.03071,0.113163,0.114843,-0.060628,30.98,66.2542896205286
7682,-8.382656,-3.669394,4.015156,0.113774,0.115301,-0.059712,30.98,66.3087888622857
7692,-8.392825,-3.672983,4.017549,0.115606,0.115148,-0.058643,30.96,66.3209887461786
7702,-8.402397,-3.661019,4.020541,0.115454,0.113621,-0.057879,30.96,66.314462853729
7712,-8.419147,-3.659822,3.999603,0.114843,0.112246,-0.057116,30.96,66.4583778573062
7722,-8.431709,-3.654438,4.00379,0.115759,0.107512,-0.054672,30.96,66.4578509453759
7732,-8.426923,-3.658028,3.996014,0.115454,0.104916,-0.054214,30.98,66.4918552484771
7742,-8.426923,-3.649055,3.995416,0.116064,0.101556,-0.053298,31,66.4868472163964
7752,-8.44427,-3.659822,3.985246,0.115148,0.097128,-0.053298,31,66.586159226584
7762,-8.437093,-3.649055,4.004389,0.114995,0.093157,-0.052993,30.98,66.4611084113209
7772,-8.446664,-3.643072,3.989433,0.114385,0.088423,-0.05284,30.98,66.5540990093902
7782,-8.457432,-3.652644,3.985844,0.114385,0.082925,-0.053603,30.97,66.6039615639256
7792,-8.458031,-3.647858,3.972086,0.113468,0.078343,-0.05452,30.97,66.6730298852168
7802,-8.47119,-3.646662,3.990032,0.111941,0.072693,-0.056352,30.98,66.6052868606976
7812,-8.462815,-3.648456,3.984648,0.111636,0.065668,-0.056963,30.98,66.6176653099749
7822,-8.483154,-3.648456,3.985246,0.110872,0.060476,-0.059407,30.96,66.6567723244775
7832,-8.469995,-3.643671,3.97388,0.110872,0.054367,-0.061239,30.96,66.6847155462836
7842,-8.476574,-3.645465,3.978666,0.10965,0.047647,-0.064294,30.97,66.6748933590552
7852,-8.485548,-3.643671,3.989433,0.108887,0.041539,-0.067042,30.97,66.6355769892671
7862,-8.468798,-3.644867,3.979264,0.107512,0.03543,-0.070555,31,66.6550892806192
7872,-8.469396,-3.650849,3.99063,0.10797,0.028711,-0.072235,31,66.6021776481796
7882,-8.474779,-3.647858,3.988835,0.106901,0.022449,-0.076205,30.94,66.6200801384297
7892,-8.469396,-3.662215,3.982255,0.107207,0.011148,-0.082772,30.94,66.6561979156851
7902,-8.450851,-3.656831,3.985246,0.107665,0.006261,-0.085979,30.96,66.5971655536218
7912,-8.440084,-3.664608,3.991228,0.107665,0.000458,-0.088575,30.96,66.5504063542928
7922,-8.446664,-3.671188,3.995416,0.109039,-0.00504,-0.090713,30.96,66.5481395798917
7932,-8.422137,-3.661617,3.999005,0.109345,-0.00901,-0.093615,30.93,66.4694136331018
7942,-8.409575,-3.678965,3.999603,0.110261,-0.012523,-0.094837,30.93,66.4558135450566
7952,-8.404789,-3.684947,4.004389,0.112094,-0.014966,-0.096059,30.94,66.42617096996
7962,-8.393424,-3.679563,4.005585,0.113774,-0.016646,-0.096822,30.94,66.3910918670424
7972,-8.390432,-3.671188,4.025326,0.115454,-0.018173,-0.09728,30.92,66.2734998332143
7982,-8.374879,-3.686741,4.027719,0.115606,-0.018479,-0.096822,30.92,66.2425171500683
7992,-8.367702,-3.687938,4.040281,0.116523,-0.016493,-0.094837,30.93,66.1625716959692
8002,-8.365907,-3.699902,4.034897,0.117897,-0.01405,-0.09499,30.93,66.1981824214211
8012,-8.349156,-3.691527,4.052245,0.118508,-0.011606,-0.092852,30.97,66.0638193859745
8022,-8.345568,-3.702295,4.052245,0.119271,-0.007483,-0.091324,30.97,66.0663323244803
8032,-8.343773,-3.695116,4.058227,0.118966,-0.002749,-0.088423,30.98,66.0243747008993
8042,-8.332406,-3.684947,4.067799,0.118966,0.003207,-0.086285,30.98,65.9402937823817
8052,-8.328817,-3.702295,4.071388,0.119119,0.010385,-0.08262,30.98,65.9302603987219
8062,-8.320443,-3.70409,4.093522,0.119271,0.017562,-0.075595,30.98,65.7981006876323
8072,-8.325229,-3.692126,4.089932,0.119271,0.034819,-0.071929,30.94,65.8157535968325
8082,-8.320443,-3.692724,4.100101,0.118508,0.04444,-0.067959,30.94,65.7528018751874
8092,-8.31147,-3.707679,4.10728,0.117133,0.053603,-0.064599,30.94,65.7102485884088
8102,-8.328817,-3.696313,4.105485,0.116217,0.063988,-0.061392,30.97,65.7461070192096
8112,-8.326425,-3.705286,4.106682,0.115606,0.073304,-0.05681,30.97,65.7432847881477
8122,-8.325229,-3.71067,4.114459,0.114385,0.083841,-0.052382,30.94,65.7052453720917
8132,-8.318049,-3.695116,4.095914,0.113316,0.093615,-0.048258,30.94,65.7718471918869
8142,-8.333005,-3.702295,4.097709,0.112094,0.102778,-0.045357,30.95,65.8014675881169
8152,-8.341978,-3.695715,4.092923,0.111025,0.111788,-0.042761,30.95,65.8394759043311
8162,-8.350353,-3.687938,4.089932,0.110108,0.120188,-0.039706,30.99,65.8656881060417
8172,-8.355738,-3.698107,4.082754,0.108123,0.12706,-0.036652,30.99,65.924343298854
8182,-8.368299,-3.692724,4.071986,0.107512,0.133932,-0.034972,30.97,66.0023446435152
8192,-8.366504,-3.69392,4.071986,0.106901,0.140346,-0.03207,30.97,65.9996465029504
8202,-8.385648,-3.675375,4.065406,0.106138,0.144775,-0.030391,30.94,66.0574203932163
8212,-8.391031,-3.685545,4.048656,0.105832,0.148135,-0.02978,30.94,66.1658875089183
8222,-8.397612,-3.692126,4.037888,0.10568,0.150578,-0.028711,30.98,66.2422274212824
8232,-8.425727,-3.67418,4.014558,0.105832,0.151189,-0.028863,30.98,66.4069031479404
8242,-8.422735,-3.675974,4.003192,0.105527,0.147677,-0.030391,31,66.4618063412812
8252,-8.443673,-3.67418,3.988237,0.106138,0.144317,-0.030849,30.97,66.582221627401
8262,-8.455039,-3.668197,3.978666,0.106443,0.138819,-0.031612,30.97,66.6505874327192
8272,-8.447262,-3.67059,3.969693,0.107665,0.132863,-0.033292,30.93,66.6836564475078
8282,-8.448458,-3.667599,3.960122,0.108581,0.125533,-0.035736,30.93,66.7336740092972
8292,-8.472985,-3.658626,3.94397,0.108887,0.115912,-0.038943,30.93,66.8610987816031
8302,-8.471789,-3.652046,3.942175,0.110414,0.105985,-0.041844,30.93,66.862211093022
8312,-8.492128,-3.655635,3.932006,0.112399,0.095753,-0.044288,30.98,66.9605790134578
8322,-8.486743,-3.656233,3.936791,0.112857,0.084605,-0.0478,30.98,66.9249481898919
8332,-8.487342,-3.651447,3.933203,0.113163,0.071319,-0.051465,30.95,66.9407805018445
8342,-8.481958,-3.655036,3.922434,0.114385,0.059712,-0.054978,30.95,66.9894726867391
8352,-8.473583,-3.64726,3.915256,0.115454,0.047342,-0.058643,30.97,67.0031810880099
8362,-8.477771,-3.635296,3.923631,0.116064,0.035125,-0.062614,30.97,66.9571626188266
8372,-8.484351,-3.640081,3.929613,0.116523,0.021991,-0.065668,30.96,66.9434611914954
8382,-8.48136,-3.649055,3.928416,0.116064,0.010079,-0.069028,30.96,66.9515267174422
8392,-8.474181,-3.641876,3.939184,0.116828,-0.000916,-0.073304,30.94,66.8738296931608
8402,-8.47119,-3.646064,3.957729,0.116675,-0.011759,-0.075747,30.94,66.7740113505984
8412,-8.458031,-3.638885,3.964309,0.116217,-0.030238,-0.082009,30.95,66.7058115802267
8422,-8.455039,-3.636492,3.982255,0.116064,-0.037415,-0.084452,30.94,66.6032918088575
8432,-8.44128,-3.631108,3.988237,0.114843,-0.04383,-0.086896,30.94,66.5383507777969
8442,-8.446664,-3.643072,3.993621,0.114232,-0.048258,-0.089797,30.94,66.5321468535613
8452,-8.426923,-3.643072,4.013362,0.112552,-0.05116,-0.090561,30.94,66.3873258229089
8462,-8.412566,-3.648456,4.022933,0.112246,-0.052687,-0.093157,30.93,66.3118532327738
8472,-8.400003,-3.644867,4.038486,0.111941,-0.051771,-0.093462,30.93,66.2005171263623
8482,-8.404191,-3.656233,4.052245,0.110414,-0.050549,-0.094226,30.93,66.1478509831713
8492,-8.392825,-3.652644,4.056432,0.109039,-0.048564,-0.093768,30.93,66.0985034351233
8502,-8.380263,-3.652644,4.068397,0.107818,-0.043982,-0.091935,30.94,66.0091466842943
8512,-8.374281,-3.658028,4.083352,0.107054,-0.03711,-0.090713,30.94,65.9231854405627
8522,-8.36112,-3.652046,4.092325,0.105527,-0.030085,-0.089492,30.96,65.8424558291084
8532,-8.346764,-3.663411,4.09412,0.105222,-0.021838,-0.08659,30.96,65.8129023794863
8542,-8.345568,-3.669394,4.105485,0.104,-0.013286,-0.084299,30.96,65.7565714920827
8552,-8.327023,-3.668795,4.112664,0.104611,-0.002596,-0.081092,30.96,65.6784535679448
8562,-8.319246,-3.671188,4.11745,0.103389,0.007941,-0.077733,30.95,65.6388807391289
8572,-8.318049,-3.683152,4.121039,0.102625,0.018784,-0.074831,30.95,65.6289795449574
8582,-8.310272,-3.681358,4.122235,0.102931,0.030543,-0.067653,30.93,65.6041591103272
8592,-8.327023,-3.696911,4.127619,0.102625,0.053145,-0.063683,30.94,65.6272199431638
8606,-8.320443,-3.696313,4.109075,0.102931,0.064752,-0.060323,30.94,65.7092991383986
8612,-8.312666,-3.68734,4.115057,0.102625,0.076358,-0.057269,30.93,65.6526199718091
8622,-8.316854,-3.694518,4.101896,0.103542,0.087354,-0.054367,30.93,65.7373919823012
8632,-8.328817,-3.696911,4.098905,0.102625,0.09728,-0.052687,30.95,65.7810793813091
8642,-8.328219,-3.696911,4.096512,0.103847,0.106901,-0.049327,30.95,65.7923096214962
8652,-8.340183,-3.692724,4.089334,0.104153,0.115759,-0.047342,30.95,65.8515537844249
8662,-8.340781,-3.695715,4.078567,0.104305,0.122937,-0.045662,30.95,65.9120082462571
8672,-8.362316,-3.690331,4.065406,0.104611,0.129503,-0.045051,30.94,66.0217730595554
8682,-8.376076,-3.698107,4.064807,0.105222,0.135154,-0.044135,30.94,66.0614604052031
8692,-8.370691,-3.702893,4.054638,0.105832,0.139583,-0.044593,30.97,66.1077086900462
8702,-8.382057,-3.690929,4.050451,0.106443,0.142484,-0.045051,30.97,66.1425126096636
8712,-8.386245,-3.699902,4.031906,0.106291,0.14447,-0.046426,30.97,66.2567994507102
8722,-8.398808,-3.704688,4.023531,0.106596,0.145691,-0.046578,30.97,66.3315268883402
8732,-8.412566,-3.689135,4.014558,0.106138,0.14447,-0.049022,30.96,66.3930258326986
8742,-8.425727,-3.697509,4.010969,0.106443,0.142637,-0.049786,30.96,66.4470380329621
8752,-8.43111,-3.687938,3.985246,0.106596,0.140041,-0.052229,30.95,66.584248491673
8762,-8.434101,-3.680759,3.988237,0.106443,0.131031,-0.055589,30.97,66.5682657277746
8772,-8.439486,-3.675974,3.979862,0.106291,0.124769,-0.058948,30.97,66.6190371653171
8782,-8.448458,-3.675974,3.969095,0.106443,0.11805,-0.059865,30.99,66.6941253934976
8792,-8.46461,-3.677171,3.973282,0.105985,0.110719,-0.060781,30.99,66.706692861781
8802,-8.465208,-3.667001,3.961916,0.105374,0.102473,-0.062919,30.97,66.7583730400851
8812,-8.469396,-3.672385,3.957729,0.104763,0.094073,-0.064599,30.97,66.7937890078873
8822,-8.465208,-3.669992,3.954738,0.104458,0.085979,-0.064904,30.93,66.7986967683452
8832,-8.466404,-3.665804,3.952943,0.104458,0.077122,-0.065668,30.93,66.8068383583054
8842,-8.463414,-3.662813,3.947559,0.104305,0.067042,-0.067195,30.95,66.8262595227648
8852,-8.467003,-3.659822,3.952943,0.104611,0.058032,-0.066737,30.95,66.8027339031611
8862,-8.467003,-3.662215,3.951746,0.104916,0.048869,-0.066279,30.91,66.8111509706694
8872,-8.464012,-3.665206,3.964907,0.104611,0.040012,-0.066126,30.91,66.7386105417822
8882,-8.463414,-3.658626,3.951746,0.104611,0.031612,-0.065668,30.95,66.8005386530122
8892,-8.470592,-3.664608,3.957131,0.105222,0.022755,-0.064294,30.95,66.7924432166123
8902,-8.460423,-3.669394,3.957729,0.105527,0.015272,-0.063683,30.95,66.7725912689553
8912,-8.452048,-3.657429,3.967898,0.107207,0.007025,-0.063835,30.95,66.6911640012707
8922,-8.449656,-3.658028,3.982853,0.10797,0.000458,-0.06353,30.99,66.6082991318558
8932,-8.43111,-3.656233,3.980461,0.108276,-0.010079,-0.060476,30.99,66.5805858507786
8942,-8.4347,-3.656233,3.985844,0.109803,-0.015119,-0.060476,30.99,66.5598264596977
8952,-8.430512,-3.655635,3.996014,0.111177,-0.018631,-0.059865,30.97,66.4971924070057
8962,-8.42453,-3.654438,3.99721,0.112399,-0.021075,-0.058643,30.97,66.4773105611064
8972,-8.415558,-3.665804,4.008576,0.113163,-0.023518,-0.058338,30.97,66.4092570214583
8982,-8.421539,-3.669394,4.012166,0.113774,-0.025656,-0.058643,30.97,66.4062748316273
8992,-8.408977,-3.667599,4.034897,0.115148,-0.025962,-0.058338,30.97,66.2591951852401
9002,-8.39821,-3.664608,4.022933,0.115759,-0.025045,-0.058948,30.97,66.2963929926599
9012,-8.399406,-3.67059,4.036094,0.117133,-0.023671,-0.058948,30.96,66.2354814387473
9022,-8.382057,-3.664608,4.042674,0.117286,-0.021838,-0.058948,30.96,66.1587537683792
9032,-8.356933,-3.669394,4.052245,0.117439,-0.017868,-0.06017,30.97,66.0596120442299
9042,-8.368897,-3.665804,4.059424,0.117592,-0.014661,-0.059559,30.97,66.0441364293011
9052,-8.38146,-3.668197,4.06062,0.117744,-0.010232,-0.060323,30.94,66.0668577889988
9062,-8.368897,-3.671188,4.064807,0.117744,-0.005345,-0.061087,30.94,66.0209839502496
9072,-8.37129,-3.675974,4.071986,0.117897,0.000764,-0.061392,30.94,65.9930064827581
9082,-8.35155,-3.681956,4.085146,0.117133,0.006414,-0.062003,30.94,65.8876216399433
9092,-8.361719,-3.673581,4.089932,0.116981,0.012523,-0.062308,30.96,65.8764898165001
9102,-8.353942,-3.675974,4.089932,0.116064,0.0197,-0.063835,30.96,65.8620761592147
9112,-8.352745,-3.681358,4.091129,0.113468,0.034972,-0.064599,30.96,65.8583360559306
9122,-8.35155,-3.678366,4.088736,0.112857,0.042761,-0.064904,30.95,65.8654583433471
9132,-8.339585,-3.676572,4.095316,0.111788,0.05116,-0.065057,30.95,65.8036575668451
9142,-8.346166,-3.671786,4.09053,0.110261,0.059407,-0.065821,30.96,65.8383060272663
9152,-8.348558,-3.67059,4.095914,0.108734,0.067348,-0.065363,30.96,65.8141600145095
9162,-8.34796,-3.681358,4.083352,0.10797,0.074984,-0.065363,30.97,65.8887505598896
9172,-8.35155,-3.677171,4.083352,0.106749,0.082314,-0.064904,30.97,65.8924892255032
9182,-8.352745,-3.675974,4.088138,0.105374,0.089339,-0.066279,30.96,65.8688894468964
9192,-8.356933,-3.677171,4.086941,0.103847,0.096211,-0.065668,30.96,65.8852516426539
9202,-8.35813,-3.675974,4.079165,0.103084,0.102473,-0.064599,30.95,65.9273509375631
9212,-8.355139,-3.680759,4.07737,0.102167,0.10797,-0.064446,30.95,65.9348492329711
9222,-8.360522,-3.672983,4.073183,0.101556,0.113468,-0.063683,30.95,65.9609525524406
9232,-8.377273,-3.667599,4.059424,0.101404,0.11805,-0.062156,30.95,66.0636503366136
9242,-8.375478,-3.668197,4.06062,0.099876,0.122631,-0.060628,30.94,66.0541268379852
9252,-8.382057,-3.671786,4.053442,0.099724,0.126449,-0.060323,30.94,66.1090294981271
9262,-8.380263,-3.67059,4.032505,0.099724,0.128282,-0.058948,31,66.2138039375703
9272,-8.405388,-3.658028,4.031906,0.099418,0.130114,-0.05681,31,66.2584752152823
9282,-8.414959,-3.668795,4.020541,0.09896,0.130725,-0.054978,30.96,66.3480460728334
9292,-8.419147,-3.679563,4.01396,0.099113,0.130114,-0.054825,30.96,66.4011682575246
9302,-8.423933,-3.663411,4.010969,0.098807,0.128282,-0.053909,30.96,66.4121037314396
9312,-8.425727,-3.662215,3.994817,0.099266,0.12538,-0.052534,31,66.4994358776095
9322,-8.429914,-3.659822,4.004389,0.099266,0.121562,-0.051313,31,66.4558442677413
9332,-8.440084,-3.65384,3.987639,0.100182,0.116523,-0.051007,30.95,66.5594834024604
9342,-8.446664,-3.659224,3.97747,0.10064,0.111177,-0.050244,30.95,66.6313781654202
9352,-8.449057,-3.671188,3.969693,0.101251,0.10568,-0.050702,30.93,66.687917153975
9362,-8.453244,-3.66401,3.964309,0.101251,0.098502,-0.051618,30.93,66.7183854708926
9372,-8.460423,-3.658028,3.961318,0.101862,0.090408,-0.050702,30.99,66.7435829771181
9382,-8.477771,-3.662813,3.961318,0.101556,0.082161,-0.051771,30.99,66.783707010223
9392,-8.470592,-3.658626,3.955336,0.101556,0.072388,-0.053756,30.98,66.796520592817
9402,-8.468798,-3.656233,3.963113,0.102167,0.064294,-0.053756,30.98,66.7498913134668
9412,-8.472386,-3.667599,3.942773,0.102167,0.054672,-0.056505,30.96,66.8741341550995
9422,-8.474779,-3.656233,3.954738,0.102778,0.045662,-0.057116,30.96,66.8061667236302
9432,-8.476574,-3.669992,3.940979,0.102778,0.035888,-0.058796,30.96,66.8942893212387
9442,-8.467003,-3.658626,3.955934,0.103389,0.026878,-0.060476,30.96,66.7859720537362
9452,-8.465807,-3.663411,3.958327,0.103236,0.007636,-0.065973,31,66.7752218225333
9462,-8.46461,-3.672983,3.962514,0.103236,-0.000764,-0.068264,30.94,66.7593601095763
9472,-8.464012,-3.668197,3.967898,0.103236,-0.008399,-0.070402,30.94,66.725611186143
9482,-8.465208,-3.661617,3.981657,0.103389,-0.015577,-0.073151,30.96,66.6501058298009
9492,-8.447861,-3.677768,3.981657,0.102931,-0.022907,-0.076511,30.96,66.6286489357113
9502,-8.442476,-3.664608,3.987041,0.103694,-0.028253,-0.078038,30.98,66.5773367226829
9512,-8.43111,-3.668197,3.991228,0.103542,-0.032834,-0.07926,30.98,66.5349392035816
9522,-8.435897,-3.674777,4.0008,0.104,-0.036805,-0.080787,30.95,66.5007519853259
9532,-8.419147,-3.68375,4.015755,0.104153,-0.038943,-0.084147,30.95,66.3956076961441
9542,-8.416754,-3.68375,4.018745,0.104,-0.040623,-0.08491,30.96,66.374938018859
9552,-8.39462,-3.680161,4.027719,0.104611,-0.039859,-0.085827,30.96,66.2780855101704
9562,-8.376076,-3.679563,4.03729,0.104916,-0.039401,-0.087048,30.98,66.1881852163265
9572,-8.382057,-3.682554,4.040879,0.105374,-0.03711,-0.08827,30.98,66.184824496426
9582,-8.378469,-3.689135,4.051647,0.106138,-0.033903,-0.087354,30.98,66.1269777928545
9592,-8.347363,-3.685545,4.06062,0.106749,-0.029322,-0.086743,30.98,66.0104619829871
9602,-8.343175,-3.699304,4.076173,0.108123,-0.023518,-0.085521,30.94,65.9330590011975
9612,-8.352745,-3.691527,4.085745,0.10797,-0.018173,-0.083536,30.94,65.8960909267067
9622,-8.322835,-3.690929,4.088736,0.107818,-0.001069,-0.079718,30.96,65.8157288207688
9632,-8.329416,-3.685545,4.09412,0.109039,0.00733,-0.078038,30.95,65.7965669790603
9642,-8.315658,-3.692724,4.097709,0.108887,0.017715,-0.074678,30.95,65.7550120803392
9652,-8.315658,-3.696911,4.097709,0.109039,0.027642,-0.070402,30.96,65.7590199222227
9662,-8.305488,-3.69392,4.110869,0.109498,0.037874,-0.066279,30.96,65.6653252339542
9672,-8.312068,-3.693322,4.100101,0.109956,0.049022,-0.061392,30.96,65.7353225477607
9682,-8.306684,-3.687938,4.108477,0.109956,0.060323,-0.057269,30.96,65.6746823004175
9692,-8.306684,-3.684349,4.105485,0.109345,0.07086,-0.052382,30.95,65.6869024038886
9702,-8.305488,-3.687938,4.10728,0.109498,0.081551,-0.046884,30.95,65.6783620044366
9712,-8.317451,-3.683152,4.09711,0.109345,0.092088,-0.041692,30.98,65.7528633176569
9722,-8.317451,-3.684349,4.095316,0.107818,0.102167,-0.037721,30.98,65.7634009712684
9732,-8.320443,-3.681358,4.092923,0.107818,0.11133,-0.032834,30.96,65.7795280141161
9742,-8.328219,-3.676572,4.09412,0.10797,0.120799,-0.027794,30.96,65.7854545882645
9752,-8.336594,-3.675974,4.07737,0.107665,0.128893,-0.024435,30.96,65.8906118865925
9762,-8.348558,-3.680759,4.067799,0.106901,0.135612,-0.021838,30.96,65.9708879756454
9772,-8.35813,-3.679563,4.067799,0.106901,0.141415,-0.01741,30.91,65.9902052228747
9782,-8.376674,-3.679563,4.044468,0.105527,0.145539,-0.015119,30.91,66.1518375874422
9792,-8.405388,-3.667001,4.031308,0.104763,0.148593,-0.014203,30.93,66.269860051468
9802,-8.409575,-3.668197,4.039085,0.104,0.151647,-0.013897,30.92,66.2390954434396
9812,-8.426923,-3.667599,4.009174,0.103236,0.150273,-0.014813,30.92,66.4315933304681
9822,-8.43111,-3.668795,4.003192,0.102625,0.147066,-0.017715,30.95,66.4727802809316
9832,-8.455637,-3.661019,3.992425,0.102473,0.143095,-0.020617,30.95,66.57329824548
9842,-8.460423,-3.653242,3.985246,0.101404,0.138056,-0.023976,30.93,66.6138529655743
9852,-8.474779,-3.659822,3.976273,0.101404,0.131641,-0.027642,30.93,66.6965236149193
9862,-8.483753,-3.656233,3.965506,0.10064,0.124006,-0.032376,30.95,66.7682540904099
9872,-8.479566,-3.659224,3.951149,0.101098,0.115606,-0.036957,30.95,66.8375188823303
9882,-8.511868,-3.650251,3.951149,0.100182,0.106138,-0.042913,30.99,66.8959961022309
9892,-8.496315,-3.650251,3.957131,0.099876,0.095142,-0.049175,30.99,66.8327074203393
9902,-8.497512,-3.655635,3.940979,0.099571,0.083841,-0.055436,30.98,66.9245559500429
9912,-8.510075,-3.656233,3.945167,0.100182,0.072998,-0.060934,30.98,66.928900018002
9922,-8.502895,-3.656233,3.936791,0.099724,0.060781,-0.066737,30.94,66.9580722249168
9932,-8.49452,-3.649653,3.935595,0.09896,0.048717,-0.072388,30.94,66.9413762169889
9942,-8.499905,-3.649653,3.935595,0.098502,0.036805,-0.078191,30.93,66.9524216823265
9952,-8.49452,-3.657429,3.933203,0.09896,0.025351,-0.082314,30.93,66.9607840015168
9962,-8.478967,-3.65384,3.953541,0.099418,0.014355,-0.087354,30.96,66.8189550399403
9972,-8.458031,-3.65384,3.95055,0.100182,-0.006261,-0.094073,30.96,66.7914215733356
9982,-8.46461,-3.658028,3.954139,0.100029,-0.014661,-0.095753,30.99,66.7899141732818
9992,-8.455637,-3.645465,3.9673,0.099724,-0.022755,-0.097586,30.93,66.6910255583577
10002,-8.443074,-3.646662,3.969693,0.099418,-0.02978,-0.098655,30.93,66.6534220853085
10012,-8.429317,-3.651447,3.990032,0.098807,-0.035736,-0.098655,30.93,66.5222742981887
10022,-8.414959,-3.658028,3.998407,0.099266,-0.039859,-0.09896,30.93,66.454237488624
10032,-8.402995,-3.65384,3.996014,0.100029,-0.043371,-0.097128,30.99,66.4378659159087
10042,-8.39821,-3.659822,4.01396,0.099571,-0.045509,-0.095753,30.99,66.3390532045028
10052,-8.390432,-3.662215,4.018745,0.099418,-0.046273,-0.093921,30.95,66.299740428466
10062,-8.382656,-3.659224,4.025326,0.099724,-0.044135,-0.090713,30.95,66.2460086713443
10072,-8.376076,-3.667599,4.043272,0.099418,-0.041997,-0.088117,30.95,66.1457036999177
10082,-8.366504,-3.672983,4.054638,0.099266,-0.03879,-0.084452,30.95,66.070814305336
10092,-8.360522,-3.665804,4.057629,0.099418,-0.033598,-0.081703,30.95,66.0356815447957
10102,-8.341978,-3.669394,4.071388,0.099724,-0.027642,-0.07758,30.95,65.9272894467341
10112,-8.340781,-3.683152,4.082156,0.099113,-0.021533,-0.073457,30.93,65.8813202039982
10122,-8.34796,-3.68734,4.084548,0.100182,-0.013592,-0.069333,30.93,65.888149107274
10132,-8.332406,-3.692126,4.095316,0.099724,-0.005498,-0.066126,30.95,65.8030031247203
10142,-8.319246,-3.680161,4.097709,0.099266,0.013286,-0.059865,30.95,65.7507430920615
10152,-8.326425,-3.687938,4.099504,0.099418,0.023366,-0.055436,30.93,65.7642389300877
10162,-8.326425,-3.69392,4.101896,0.098807,0.033598,-0.05284,30.95,65.757436470764
10172,-8.326425,-3.694518,4.094718,0.09896,0.043524,-0.050396,30.95,65.7955556957631
10182,-8.328817,-3.690929,4.102495,0.099113,0.053145,-0.0478,30.98,65.7565985265073
10192,-8.332406,-3.694518,4.095914,0.099113,0.062461,-0.045509,30.98,65.8021535596491
10202,-8.328219,-3.687938,4.092325,0.099724,0.071929,-0.04383,30.95,65.8056649730286
10212,-8.342576,-3.694518,4.086343,0.099418,0.080176,-0.042455,30.95,65.8740287117884
10222,-8.349755,-3.7005,4.088736,0.099113,0.088575,-0.041997,30.97,65.8825562607351
10232,-8.340183,-3.696313,4.079165,0.099266,0.095295,-0.040623,30.97,65.9081657087026
10242,-8.361719,-3.706482,4.076771,0.099266,0.102167,-0.040928,30.97,65.9762790107826
10252,-8.365907,-3.694518,4.068995,0.100335,0.108123,-0.040623,30.97,66.0145777259601
10262,-8.373085,-3.692724,4.067799,0.100487,0.113468,-0.040928,30.95,66.0344176531327
10272,-8.380861,-3.707081,4.055834,0.100793,0.116981,-0.041692,30.95,66.1269165423248
10282,-8.387442,-3.693322,4.048656,0.100793,0.119577,-0.043219,30.99,66.1655304041968
10292,-8.391031,-3.697509,4.044468,0.100793,0.121715,-0.044288,30.99,66.198918713308
10302,-8.406584,-3.69392,4.021737,0.100335,0.122478,-0.044746,31.01,66.347292367912
10312,-8.414959,-3.680161,4.031308,0.101098,0.122173,-0.047647,31.01,66.3021316001417
10322,-8.411968,-3.693322,4.007978,0.102931,0.119882,-0.048564,30.93,66.430088958397
10332,-8.427522,-3.688536,4.005585,0.102473,0.117439,-0.049938,30.97,66.4707542403851
10342,-8.410771,-3.675974,3.995416,0.102167,0.114385,-0.051924,30.97,66.4775480395163
10352,-8.425727,-3.678366,3.985246,0.102473,0.110414,-0.052382,30.97,66.5643303697584
10362,-8.432307,-3.671188,3.985246,0.102778,0.106291,-0.053603,30.97,66.5715216587738
10372,-8.450253,-3.672983,3.981059,0.103236,0.102014,-0.053451,30.95,66.6324271876098
10382,-8.445468,-3.672983,3.978068,0.103542,0.096059,-0.055131,30.95,66.6381681614883
10392,-8.44427,-3.664608,3.968496,0.103542,0.090713,-0.055436,30.97,66.6783401307164
10402,-8.439486,-3.655036,3.979264,0.103847,0.085063,-0.055131,30.97,66.6032494354439
10412,-8.453244,-3.672385,3.974478,0.103847,0.078802,-0.055131,30.94,66.6725848210349
10422,-8.447861,-3.66042,3.975077,0.103084,0.071929,-0.054214,30.94,66.647495460328
10432,-8.46461,-3.658626,3.968496,0.102931,0.065057,-0.054214,31,66.7151404873248
10442,-8.451449,-3.656831,3.97388,0.102473,0.058643,-0.053756,31,66.6580001019267
10452,-8.465807,-3.658626,3.966104,0.102778,0.052534,-0.052993,30.98,66.7301591248783
10462,-8.452645,-3.650251,3.966702,0.102473,0.045662,-0.052382,30.98,66.692239685217
10472,-8.453244,-3.665206,3.972684,0.102625,0.03879,-0.051771,30.97,66.675528857322
10482,-8.447861,-3.64726,3.981657,0.101862,0.031307,-0.051771,30.97,66.601139220194
10492,-8.452645,-3.650849,3.97747,0.102167,0.020006,-0.05116,30.97,66.6362824871634
10502,-8.438289,-3.658028,3.983452,0.101556,0.01405,-0.051465,30.95,66.5814838205714
10512,-8.449656,-3.647858,3.990032,0.101404,0.008705,-0.051771,30.95,66.5615127176792
10522,-8.450851,-3.653242,3.991827,0.101098,0.003818,-0.052229,30.99,66.5594501647217
10532,-8.440084,-3.648456,3.999603,0.101251,-0.000916,-0.053145,30.99,66.4919029007495
10543,-8.43111,-3.655635,4.0008,0.100487,-0.004276,-0.053298,30.95,66.4733531654645
10552,-8.435897,-3.667599,3.99721,0.100335,-0.007178,-0.054367,30.95,66.5130351406663
10562,-8.4347,-3.658028,4.009772,0.101098,-0.01069,-0.056352,30.96,66.4360433145929
10572,-8.426923,-3.662215,4.021138,0.100945,-0.013439,-0.058338,30.96,66.3640439985882
10582,-8.425727,-3.667599,4.013362,0.10064,-0.013897,-0.060018,30.94,66.4071544440279
10592,-8.408977,-3.665206,4.018147,0.099876,-0.015272,-0.061545,30.94,66.3447140944282
10602,-8.410771,-3.669394,4.023531,0.100029,-0.015119,-0.063377,30.96,66.3241273916875
10612,-8.410771,-3.667001,4.034299,0.099571,-0.014508,-0.065668,30.96,66.2655587069914
10622,-8.397013,-3.664608,4.040281,0.099724,-0.012523,-0.067042,30.98,66.202977446799
10632,-8.391031,-3.662215,4.048058,0.099113,-0.011454,-0.06857,30.98,66.1473766959039
10642,-8.371889,-3.668197,4.052843,0.099571,-0.008399,-0.07025,30.95,66.0872107404867
10652,-8.370691,-3.665804,4.065406,0.099724,-0.004429,-0.072235,30.95,66.0166421834649
10662,-8.379066,-3.675974,4.064209,0.098807,0.003665,-0.074526,31,66.050240436514
10672,-8.365308,-3.66401,4.072584,0.098807,0.008858,-0.075595,30.98,65.9659037021024
10682,-8.355139,-3.67059,4.078567,0.100182,0.014661,-0.076816,30.98,65.9190131628907
10692,-8.350353,-3.678366,4.078567,0.099266,0.020769,-0.076969,30.93,65.9160901078033
10702,-8.353942,-3.680161,4.078567,0.099724,0.0281,-0.076053,30.93,65.9254629013099
10712,-8.357532,-3.672983,4.078567,0.099266,0.034056,-0.077122,30.92,65.9263864287198
10722,-8.350353,-3.677768,4.08754,0.099113,0.041386,-0.076664,30.92,65.8685814860471
10732,-8.344969,-3.679563,4.085146,0.099113,0.049327,-0.075136,30.95,65.8712560551504
10742,-8.3348,-3.678965,4.091727,0.098044,0.056352,-0.07422,30.95,65.8144152199145
10752,-8.347363,-3.684349,4.083352,0.098502,0.063835,-0.07254,30.94,65.8902984911526
10762,-8.3348,-3.681358,4.09053,0.098502,0.071777,-0.070555,30.94,65.8229509644085
10772,-8.350353,-3.665206,4.071986,0.098655,0.07926,-0.067806,30.9,65.9381571456353
10782,-8.337791,-3.681956,4.081557,0.098502,0.086132,-0.065363,30.9,65.8769118164229
10792,-8.345568,-3.678965,4.074977,0.097891,0.093157,-0.062461,30.97,65.9252052933816
10802,-8.343773,-3.672385,4.069593,0.097128,0.099418,-0.059865,30.97,65.9433614009055
10812,-8.355738,-3.673581,4.070789,0.096211,0.105374,-0.05681,30.94,65.963820515657
10822,-8.353344,-3.67418,4.046861,0.096364,0.110567,-0.05284,30.94,66.0846870876051
10832,-8.380263,-3.676572,4.042674,0.096822,0.118202,-0.047647,30.95,66.1660602211845
10842,-8.382057,-3.676572,4.042076,0.096211,0.120646,-0.04383,31,66.1729940244858
10852,-8.386844,-3.675375,4.036094,0.0956,0.122326,-0.041539,31,66.2133545225044
10862,-8.397013,-3.677768,4.022335,0.095295,0.123395,-0.039095,30.97,66.3091321426891
10872,-8.402397,-3.675375,4.015755,0.095142,0.122631,-0.036957,30.97,66.3527501557097
10882,-8.425129,-3.665206,4.004987,0.094837,0.121257,-0.035125,30.93,66.4475894773804
10892,-8.425727,-3.667001,4.007978,0.094684,0.119119,-0.034208,30.93,66.4348071627437
10902,-8.431709,-3.676572,3.997808,0.093462,0.11469,-0.034208,30.96,66.5093151205475
10912,-8.447262,-3.67418,3.983452,0.094379,0.110567,-0.033292,30.96,66.6147560306955
10922,-8.453843,-3.678965,3.981657,0.094684,0.104916,-0.034208,30.97,66.6421436161032
10932,-8.455637,-3.662215,3.970889,0.094531,0.098502,-0.034972,30.97,66.6872165625548
10942,-8.461619,-3.672385,3.972684,0.094837,0.091935,-0.035736,30.94,66.6993368755627
10952,-8.46102,-3.674777,3.958925,0.093462,0.083841,-0.037415,30.94,66.7723751847552
10962,-8.470592,-3.651447,3.951746,0.094531,0.075442,-0.038332,30.98,66.8089617976287
10972,-8.462815,-3.672385,3.951746,0.094073,0.065821,-0.041844,30.98,66.8116006594281
10982,-8.480165,-3.669992,3.958925,0.095295,0.057116,-0.043982,30.95,66.8075805235875
10992,-8.482555,-3.67059,3.96072,0.094684,0.047647,-0.046578,30.95,66.8036341783657
11002,-8.48136,-3.67418,3.956532,0.095295,0.03879,-0.05284,30.96,66.8263111246008
11012,-8.469995,-3.673581,3.956532,0.095753,0.020006,-0.056352,30.98,66.8023693393201
11022,-8.468798,-3.67059,3.961916,0.095295,0.011301,-0.059712,30.98,66.7689997399114
11032,-8.474181,-3.676572,3.957131,0.095295,0.002596,-0.062461,30.97,66.8105280464545
11042,-8.467602,-3.671188,3.964907,0.095753,-0.005192,-0.06689,30.97,66.7513885258716
11052,-8.464012,-3.672983,3.972684,0.096364,-0.013592,-0.069791,30.93,66.7048265533218
11062,-8.452048,-3.675375,3.983452,0.095753,-0.019242,-0.072693,30.93,66.6257760937889
11072,-8.435298,-3.681956,3.988237,0.095142,-0.024893,-0.075595,30.99,66.5718451840504
11082,-8.435897,-3.680759,3.997808,0.095906,-0.029627,-0.076816,30.99,66.5218615719919
11092,-8.427522,-3.689135,4.003192,0.096059,-0.033598,-0.078649,30.95,66.4838315638268
11102,-8.413763,-3.67059,4.024727,0.09499,-0.036346,-0.080634,30.95,66.3252589295235
11112,-8.414959,-3.671188,4.029513,0.095142,-0.036957,-0.081703,30.97,66.3032749410057
11122,-8.395219,-3.67418,4.036692,0.094684,-0.037415,-0.082314,30.97,66.2268214296527
11132,-8.383853,-3.672385,4.045665,0.0956,-0.036041,-0.081551,30.96,66.1541134192568
11142,-8.38146,-3.681956,4.046263,0.095448,-0.034514,-0.081551,30.96,66.154808769797
11152,-8.376674,-3.671786,4.060022,0.09499,-0.030849,-0.080481,31,66.0631491165586
11162,-8.368897,-3.675974,4.061218,0.095142,-0.026725,-0.080023,31,66.0442467634859
11172,-8.345568,-3.684349,4.073781,0.094684,-0.02138,-0.078802,30.95,65.9365511696531
11182,-8.345568,-3.683152,4.079762,0.094531,-0.007025,-0.075136,30.95,65.904108496688
11192,-8.344969,-3.698107,4.086941,0.09331,0.001374,-0.072388,30.97,65.879429615362
11202,-8.331809,-3.675974,4.100101,0.093921,0.010537,-0.069486,30.97,65.7613209061862
11212,-8.312068,-3.679563,4.093522,0.093462,0.0197,-0.065363,30.97,65.7566184605865
11222,-8.319246,-3.682554,4.097709,0.093157,0.029627,-0.062614,30.98,65.7530268070869
11232,-8.319246,-3.677171,4.10728,0.093462,0.040012,-0.059559,30.98,65.6977926271421
11242,-8.317451,-3.687938,4.098905,0.093615,0.050244,-0.054825,30.98,65.7480381125611
11252,-8.31446,-3.685545,4.101298,0.093615,0.060018,-0.051618,30.98,65.7267701008599
11262,-8.31446,-3.675375,4.097709,0.094073,0.07086,-0.047647,30.93,65.7358455952284
11272,-8.317451,-3.678366,4.092325,0.094684,0.080634,-0.04444,30.93,65.773359197357
11282,-8.328817,-3.683152,4.08754,0.095142,0.089797,-0.040928,31,65.8274480228872
11292,-8.327621,-3.673581,4.083352,0.0956,0.098197,-0.036041,31,65.837725017522
11302,-8.33121,-3.68375,4.069593,0.095753,0.107054,-0.031307,30.95,65.9271919642814
11312,-8.344371,-3.684349,4.071986,0.095753,0.113774,-0.028405,30.95,65.9433911440206
11322,-8.348558,-3.681956,4.062415,0.096669,0.119271,-0.025656,31,66.0002249270804
11332,-8.352745,-3.681956,4.053442,0.096517,0.124617,-0.02306,31,66.0561882978286
11342,-8.376076,-3.666403,4.040879,0.096975,0.128129,-0.020464,30.95,66.1571359602284
11352,-8.402397,-3.67059,4.026522,0.097738,0.131947,-0.017562,30.95,66.2919222216177
11362,-8.403594,-3.665804,4.011567,0.098197,0.131794,-0.016493,30.95,66.3684350500106
11372,-8.419147,-3.666403,4.012166,0.097891,0.131183,-0.017257,30.96,66.3985228827647
11382,-8.425727,-3.672983,4.017549,0.097891,0.128893,-0.017562,30.96,66.39015361509
11392,-8.433504,-3.664608,4.00379,0.097586,0.125227,-0.019242,30.96,66.4708469714327
11402,-8.446664,-3.664608,3.98405,0.096975,0.121257,-0.02138,30.96,66.6017328783396
11412,-8.46461,-3.666403,3.983452,0.096975,0.116064,-0.024587,30.95,66.6437649430913
11422,-8.473583,-3.663411,3.976871,0.096059,0.110261,-0.0281,30.95,66.6941274147049
11432,-8.477173,-3.66401,3.978068,0.0956,0.102931,-0.032529,30.95,66.695827983752
11442,-8.477173,-3.655036,3.978068,0.095142,0.095295,-0.036346,30.95,66.6878078253857
11452,-8.490333,-3.662215,3.969095,0.093462,0.086896,-0.041844,30.98,66.7683658255504
11462,-8.491529,-3.659822,3.966104,0.092852,0.078343,-0.046884,30.98,66.78435620589
11472,-8.499905,-3.652046,3.9673,0.091935,0.068875,-0.05284,30.92,66.7884662441887
11482,-8.495717,-3.655036,3.963113,0.091019,0.059407,-0.057727,30.92,66.8043941011771
11492,-8.502296,-3.657429,3.966104,0.090103,0.050091,-0.063835,30.97,66.8044146202762
11502,-8.493324,-3.657429,3.964907,0.089186,0.041081,-0.068875,30.97,66.7921958424867
11512,-8.499905,-3.657429,3.959523,0.089186,0.031918,-0.073457,30.93,66.8339248245445
11522,-8.487342,-3.665206,3.964907,0.088881,0.021991,-0.080329,30.93,66.7867787727056
11532,-8.480165,-3.659822,3.966104,0.088117,0.004887,-0.084452,30.96,66.7609097227082
11542,-8.46102,-3.657429,3.969693,0.087201,-0.002291,-0.088575,30.93,66.7003548897233
11552,-8.462217,-3.668197,3.981059,0.087965,-0.009927,-0.090866,30.93,66.6529431482595
11562,-8.449057,-3.658626,3.987639,0.088728,-0.015882,-0.092546,30.96,66.5825078845185
11572,-8.447262,-3.665206,3.990032,0.088423,-0.02138,-0.093157,30.96,66.572171635107
11582,-8.440681,-3.663411,3.988835,0.089034,-0.025809,-0.093157,30.96,66.5631101266738
11592,-8.416754,-3.667001,4.004987,0.089644,-0.028863,-0.092241,30.96,66.431675523285
11602,-8.412566,-3.66401,4.008576,0.089186,-0.031307,-0.090561,30.95,66.4013349650636
11612,-8.400003,-3.676572,4.010969,0.089797,-0.033598,-0.088881,30.95,66.3739142223672
11622,-8.387442,-3.668197,4.019344,0.090103,-0.033292,-0.087201,30.97,66.2958027134553
11632,-8.38445,-3.675974,4.019344,0.090103,-0.032987,-0.085216,30.97,66.296675190874
11642,-8.368299,-3.671786,4.032505,0.090713,-0.031307,-0.082467,30.95,66.1895648255015
11652,-8.368897,-3.678366,4.046861,0.090866,-0.029016,-0.078649,30.95,66.12167989296
11662,-8.363514,-3.676572,4.040879,0.090713,-0.025656,-0.074526,30.95,66.1399356479551
11672,-8.349156,-3.676572,4.057031,0.09163,-0.021838,-0.071777,30.95,66.0246600467956
11682,-8.341978,-3.681956,4.059424,0.090866,-0.016952,-0.068875,30.96,66.0018543048718
11692,-8.343175,-3.678366,4.074379,0.091935,-0.010843,-0.064141,30.96,65.922647648411
11702,-8.340183,-3.686741,4.07737,0.092393,0.003054,-0.056658,30.99,65.9084937319747
11712,-8.324032,-3.698107,4.088138,0.092546,0.010537,-0.052382,30.96,65.828278093205
11722,-8.333005,-3.68375,4.088138,0.092393,0.018326,-0.049786,30.96,65.8338850741896
11732,-8.339585,-3.684349,4.091727,0.092088,0.027336,-0.047495,30.95,65.8298058605606
11742,-8.335996,-3.695715,4.09053,0.092546,0.034514,-0.045051,30.95,65.8391603464341
11752,-8.330013,-3.691527,4.083352,0.092852,0.043066,-0.042608,30.98,65.859909633426
11762,-8.332406,-3.695116,4.086343,0.093615,0.050396,-0.041692,30.98,65.8527978198367
11772,-8.343773,-3.693322,4.091129,0.093157,0.058796,-0.039095,30.96,65.8504312070082
11782,-8.347363,-3.696911,4.089334,0.093615,0.066584,-0.038485,30.96,65.8709094799021
11792,-8.360522,-3.690331,4.088138,0.093768,0.073457,-0.036957,30.96,65.8990876124668
11802,-8.346764,-3.699304,4.075575,0.094379,0.080787,-0.036346,30.96,65.943855753171
11812,-8.350951,-3.696313,4.074379,0.095448,0.08659,-0.035736,31,65.9562253098831
11822,-8.360522,-3.696313,4.081557,0.0956,0.092852,-0.036194,31,65.9391184477265
11832,-8.37129,-3.697509,4.073183,0.096059,0.098807,-0.035583,30.98,66.0069505019027
11842,-8.375478,-3.689135,4.067201,0.096211,0.103084,-0.037415,30.98,66.0392687401707
11852,-8.380861,-3.685545,4.055834,0.09728,0.10736,-0.037874,30.96,66.1067919200449
11862,-8.388638,-3.691527,4.046861,0.096975,0.110108,-0.038179,30.96,66.1757787627163
11872,-8.39462,-3.679563,4.03729,0.097586,0.114843,-0.040317,30.96,66.2274057528258
11882,-8.405388,-3.685545,4.0337,0.099266,0.115759,-0.041539,30.95,66.2744360267894
11892,-8.418548,-3.677768,4.042076,0.099571,0.116064,-0.043677,30.95,66.2511909145409
11902,-8.417951,-3.678366,4.020541,0.09896,0.115759,-0.044899,30.97,66.3631079208632
11912,-8.407781,-3.672385,4.020541,0.099571,0.11469,-0.045815,30.97,66.3362445527995
11922,-8.425727,-3.664608,4.003192,0.099571,0.112246,-0.047495,30.96,66.457704055799
11932,-8.418548,-3.677171,4.010969,0.100182,0.109192,-0.048106,30.96,66.4133871875397
11942,-8.432905,-3.672385,3.996014,0.099724,0.106443,-0.04948,30.97,66.5174032257094
11952,-8.442476,-3.663411,3.991827,0.099418,0.10232,-0.049786,30.97,66.5511715868478
11962,-8.44427,-3.657429,3.996014,0.098349,0.098502,-0.050396,30.93,66.527567551817
11972,-8.440681,-3.658626,3.990032,0.098044,0.09331,-0.050855,30.93,66.5525077503852
11982,-8.437093,-3.661019,3.983452,0.096975,0.087812,-0.051007,30.94,66.5816948283499
11992,-8.43111,-3.658626,3.978666,0.096822,0.082314,-0.05116,30.94,66.5921746264901
12002,-8.443074,-3.661019,3.966702,0.096669,0.074984,-0.051771,30.95,66.6820427588518
12012,-8.447861,-3.659224,3.969095,0.095448,0.06918,-0.050091,30.95,66.6778051924254
12022,-8.457432,-3.644269,3.966702,0.095753,0.062919,-0.049022,30.97,66.6968203928195
12032,-8.438888,-3.65384,3.964309,0.094684,0.055741,-0.049327,30.97,66.6794530857375
12042,-8.452048,-3.657429,3.9673,0.09331,0.041539,-0.048258,30.97,66.6943019833208
12052,-8.452645,-3.641278,3.961318,0.093462,0.034056,-0.048106,30.93,66.7124736752014
12062,-8.453244,-3.654438,3.973282,0.092852,0.027031,-0.047647,30.93,66.6627154867446
12072,-8.447861,-3.646662,3.964907,0.092241,0.020464,-0.048258,30.99,66.688509996548
12082,-8.443673,-3.655635,3.976273,0.092088,0.013744,-0.047037,30.99,66.6282023599512
12092,-8.459825,-3.648456,3.972684,0.091324,0.007025,-0.048258,30.96,66.6741546683089
12102,-8.449057,-3.658626,3.982255,0.090713,0.001069,-0.049786,30.96,66.6107262690503
12112,-8.441879,-3.663411,3.986442,0.090408,-0.003971,-0.051007,30.96,66.5781508783886
12122,-8.441879,-3.667001,3.994219,0.090561,-0.009468,-0.052229,30.96,66.5406443540558
12132,-8.428718,-3.659224,3.998407,0.089797,-0.013592,-0.053298,30.92,66.4841499820233
12142,-8.435897,-3.669992,4.00379,0.08995,-0.018021,-0.055741,30.92,66.480744218778
12152,-8.429914,-3.650849,4.010969,0.090561,-0.02138,-0.057269,30.98,66.4132143414321
12162,-8.425727,-3.661617,4.017549,0.090713,-0.023824,-0.059559,30.98,66.3797727049132
12172,-8.425129,-3.677171,4.018745,0.090866,-0.025198,-0.062614,30.97,66.3864711837765
12182,-8.413763,-3.672983,4.038486,0.091019,-0.025962,-0.065515,30.97,66.2554684766992
12192,-8.417352,-3.671188,4.024727,0.090713,-0.026114,-0.068264,30.97,66.3333560963099
12202,-8.403594,-3.669394,4.034897,0.090561,-0.025351,-0.071166,30.97,66.2494883865732
12212,-8.39462,-3.672385,4.053442,0.090255,-0.023976,-0.073609,30.94,66.1362396321343
12222,-8.38146,-3.674777,4.067201,0.089797,-0.018479,-0.080329,30.95,66.0385717201091
12232,-8.385049,-3.678366,4.072584,0.089492,-0.013134,-0.081398,30.95,66.0214260899122
12242,-8.365308,-3.678366,4.067799,0.089186,-0.008247,-0.083383,30.94,66.0043946719671
12252,-8.360522,-3.691527,4.079762,0.088728,-0.003207,-0.084147,30.94,65.9439869994235
12262,-8.350951,-3.682554,4.085745,0.088575,0.004276,-0.084452,30.97,65.8837707572046
12272,-8.357532,-3.685545,4.08754,0.088575,0.010843,-0.08491,30.97,65.8913004388199
12283,-8.341978,-3.684349,4.098905,0.088117,0.018326,-0.084758,30.96,65.7974137992548
12292,-8.335398,-3.692724,4.093522,0.087965,0.027336,-0.08323,30.96,65.8193824116459
12302,-8.330013,-3.682554,4.08754,0.087965,0.03543,-0.082314,30.97,65.8294504536389
12312,-8.328817,-3.685545,4.096512,0.087659,0.043524,-0.079871,30.97,65.7827614769843
12322,-8.329416,-3.680759,4.096512,0.087812,0.052687,-0.077274,30.98,65.7794951413667
12332,-8.321041,-3.685545,4.092325,0.088423,0.061392,-0.073762,30.98,65.7879399984406
12342,-8.332406,-3.689733,4.089932,0.088728,0.069486,-0.070097,31,65.8288945903897
12352,-8.333604,-3.695116,4.076173,0.089186,0.078191,-0.065668,31,65.9086145374025
12362,-8.321041,-3.686144,4.073183,0.089797,0.086132,-0.062003,30.95,65.8888318584516
12372,-8.329416,-3.673581,4.073781,0.090561,0.093157,-0.057421,30.95,65.8917534898039
12382,-8.340781,-3.685545,4.058227,0.091935,0.100487,-0.052076,30.95,66.0089602951088
12392,-8.349755,-3.672983,4.049852,0.093157,0.111941,-0.042455,30.95,66.0602235345688
12402,-8.356933,-3.68734,4.053442,0.09499,0.116217,-0.037568,30.97,66.070159835702
12412,-8.360522,-3.681358,4.040879,0.094837,0.12034,-0.032223,30.95,66.1380532793047
12422,-8.367702,-3.684947,4.03071,0.0956,0.122478,-0.027794,30.95,66.2099763504601
12432,-8.383254,-3.677171,4.031308,0.097433,0.124769,-0.024893,30.95,66.2325104338144
12442,-8.389835,-3.686144,4.015156,0.09728,0.124311,-0.022449,30.95,66.3393969308826
12452,-8.409575,-3.675375,4.012166,0.097586,0.1237,-0.0197,30.99,66.3866461925007
12462,-8.403594,-3.673581,4.007978,0.097586,0.122784,-0.017562,30.99,66.3943988293001
12472,-8.438888,-3.671786,4.006782,0.098197,0.119424,-0.016341,30.95,66.4729619705541
12482,-8.434101,-3.668197,3.994219,0.097891,0.115148,-0.016035,30.95,66.5255022804463
12492,-8.440084,-3.677171,3.989433,0.097891,0.109956,-0.016341,30.93,66.5711963299899
12502,-8.461619,-3.673581,3.982255,0.096975,0.104458,-0.018173,30.93,66.6502839229121
12512,-8.46102,-3.669992,3.97747,0.097586,0.099113,-0.019548,30.94,66.6708722029084
12522,-8.470592,-3.667001,3.972684,0.096364,0.09163,-0.021228,30.94,66.7130755834999
12532,-8.487342,-3.662813,3.972086,0.096364,0.083536,-0.023976,30.99,66.7470772600127
12542,-8.480762,-3.668795,3.968496,0.095906,0.074831,-0.027642,30.99,66.7576201232656
12552,-8.483154,-3.653242,3.951746,0.095448,0.065973,-0.032376,30.99,66.8364675377034
12562,-8.498111,-3.671786,3.966104,0.095142,0.047495,-0.042608,30.99,66.8085394075085
12572,-8.49452,-3.668197,3.962514,0.09331,0.038179,-0.046884,30.97,66.8167433438395
12582,-8.492128,-3.665206,3.967898,0.092852,0.029932,-0.051771,30.95,66.7809894253167
12592,-8.484351,-3.671786,3.971487,0.091783,0.020769,-0.056963,30.95,66.7520412397219
12602,-8.483154,-3.665206,3.974478,0.091783,0.011759,-0.063377,30.97,66.728047481064
12612,-8.481958,-3.669992,3.975077,0.090713,0.003971,-0.067348,30.97,66.7267173528679
12622,-8.465208,-3.671188,3.98405,0.090408,-0.00336,-0.072082,30.97,66.6461758422129
12632,-8.465807,-3.675974,3.985246,0.091019,-0.009316,-0.076205,30.97,66.6454637123362
12642,-8.451449,-3.674777,3.982255,0.091019,-0.014966,-0.078954,30.96,66.6302631737774
12652,-8.453843,-3.666403,3.995416,0.090713,-0.019242,-0.080787,30.96,66.5587637430757
12662,-8.437093,-3.668795,4.002594,0.090561,-0.023366,-0.083841,30.96,66.488418087174
12672,-8.439486,-3.667001,4.009772,0.090561,-0.026114,-0.085521,30.96,66.4542152603213
12682,-8.414959,-3.680161,4.014558,0.090103,-0.027031,-0.087048,30.94,66.3898030312013
12692,-8.405987,-3.677768,4.030112,0.089644,-0.0281,-0.08827,30.94,66.2873006970769
12702,-8.404191,-3.669992,4.034897,0.089644,-0.028558,-0.088575,30.96,66.2512997046496
12712,-8.382656,-3.67418,4.036094,0.090255,-0.027794,-0.087048,30.96,66.2033847314282
12722,-8.380861,-3.669394,4.051647,0.090713,-0.024893,-0.085979,30.93,66.1136612988407
12732,-8.361719,-3.678366,4.059424,0.089797,-0.021533,-0.082161,30.93,66.0405911169226
12742,-8.348558,-3.666403,4.060022,0.090255,-0.012217,-0.079565,30.95,65.9981466527609
12752,-8.34138,-3.689135,4.070191,0.090255,-0.006261,-0.076664,30.94,65.9509201686812
12762,-8.336594,-3.668795,4.075575,0.091019,0,-0.072693,30.94,65.8932315991716
12772,-8.3348,-3.692724,4.076771,0.090408,0.007178,-0.069486,30.93,65.9057731669285
12782,-8.328219,-3.690929,4.070191,0.090408,0.014508,-0.065515,30.93,65.9244570093973
12792,-8.332406,-3.675375,4.085146,0.089797,0.022297,-0.061697,30.99,65.8403170441616
12802,-8.312068,-3.676572,4.079762,0.090408,0.030391,-0.058185,30.99,65.8259168118387
12812,-8.322835,-3.671786,4.076173,0.090866,0.038179,-0.053145,30.98,65.8633667608791
12822,-8.334201,-3.675375,4.076173,0.091172,0.046731,-0.049633,30.98,65.8911829736298
12832,-8.325229,-3.672983,4.083352,0.09163,0.05452,-0.045968,30.98,65.8320113406923
12842,-8.333604,-3.677171,4.08754,0.092241,0.062766,-0.042761,30.98,65.8320588775446
12852,-8.331809,-3.669992,4.083352,0.091783,0.071013,-0.03879,30.94,65.8433296784697
12862,-8.333005,-3.680759,4.075575,0.091935,0.076664,-0.036041,30.94,65.8968488442986
12872,-8.346166,-3.675375,4.074977,0.092393,0.082925,-0.034056,30.97,65.923098801433
12882,-8.350951,-3.668795,4.070789,0.09331,0.089186,-0.030085,30.97,65.9490821923279
12892,-8.368299,-3.677768,4.064209,0.094226,0.094531,-0.028405,30.94,66.0289964552233
12902,-8.376076,-3.680161,4.04387,0.093921,0.099266,-0.026573,30.94,66.1542595521593
12912,-8.376076,-3.677171,4.04387,0.094531,0.106443,-0.025045,30.97,66.1514750355415
12922,-8.391629,-3.67418,4.034299,0.094531,0.107818,-0.024587,30.98,66.2317682120834
12932,-8.399406,-3.669992,4.034299,0.095295,0.109039,-0.025351,30.98,66.2443281240045
12942,-8.407781,-3.674777,4.028915,0.095906,0.108581,-0.026725,30.96,66.2945905615557
12952,-8.405987,-3.669992,4.019344,0.095448,0.107818,-0.027642,30.96,66.3365426137519
12962,-8.430512,-3.677171,4.021737,0.095906,0.106596,-0.029627,30.95,66.3821039339487
12972,-8.439486,-3.663411,4.014558,0.095906,0.104763,-0.031001,30.95,66.4259110318008
12982,-8.446067,-3.667599,4.002594,0.095753,0.101251,-0.034667,30.95,66.506070124288
12992,-8.437093,-3.65384,3.999005,0.096059,0.098197,-0.036805,30.95,66.4936527441589
13002,-8.455039,-3.658626,4.000201,0.095295,0.093768,-0.040623,30.94,66.5291946281163
13012,-8.46461,-3.664608,3.998407,0.09499,0.089034,-0.044135,30.94,66.5639047563506
13022,-8.464012,-3.664608,3.990032,0.094684,0.084147,-0.047189,30.95,66.6064708337788
13032,-8.462217,-3.677171,3.988237,0.093768,0.077733,-0.05116,30.95,66.6234486961004
13042,-8.459825,-3.672385,3.982255,0.093157,0.071929,-0.054214,30.97,66.6454872399399
13052,-8.474181,-3.665804,3.982255,0.092546,0.066737,-0.058185,30.97,66.6693308039465
13062,-8.457432,-3.658028,3.97747,0.09163,0.06017,-0.06185,30.96,66.652678598862
13072,-8.464012,-3.664608,3.980461,0.091324,0.053756,-0.063225,30.96,66.6565727596183
13082,-8.469995,-3.672385,3.981059,0.08995,0.040317,-0.07025,30.93,66.6728226759916
13092,-8.460423,-3.675375,3.978068,0.089034,0.034056,-0.07254,30.94,66.6713447712454
13102,-8.458628,-3.658626,3.991827,0.087965,0.028405,-0.074067,30.94,66.580498882255
13112,-8.44427,-3.66042,3.984648,0.087201,0.022907,-0.074831,30.95,66.5898341746
13122,-8.438289,-3.676572,3.988237,0.085827,0.016799,-0.076205,30.95,66.5731837741473
13132,-8.449057,-3.669394,3.987041,0.086743,0.012065,-0.076358,30.95,66.5953594220382
13142,-8.425727,-3.66401,3.991827,0.086285,0.007483,-0.0759,30.95,66.5167509838294
13152,-8.426923,-3.676572,3.99721,0.084605,0.003054,-0.076511,30.98,66.5024560591534
13162,-8.430512,-3.677171,4.015755,0.085216,-0.000764,-0.076053,30.98,66.4133947073789
13172,-8.416754,-3.677171,4.009772,0.085063,-0.003207,-0.074067,30.96,66.4158979811365
13182,-8.406584,-3.675375,4.006782,0.08491,-0.006414,-0.073457,30.96,66.4085958841466
13192,-8.407781,-3.666403,4.007978,0.084452,-0.008094,-0.072693,30.95,66.3966108146354
13202,-8.407781,-3.67059,4.013362,0.083689,-0.009468,-0.071777,30.95,66.3722179676264
13212,-8.39821,-3.675974,4.022933,0.083841,-0.009774,-0.068875,30.95,66.3068649714123
13222,-8.393424,-3.678965,4.022335,0.084147,-0.010537,-0.067501,30.95,66.3026754438932
13232,-8.377273,-3.673581,4.025326,0.084299,-0.009163,-0.065821,30.97,66.2479095884849
13242,-8.374879,-3.681956,4.03729,0.083841,-0.007483,-0.064446,30.97,66.1878773912553
13252,-8.373683,-3.680759,4.043272,0.085063,-0.006261,-0.060628,30.92,66.1528761839222
13262,-8.373683,-3.691527,4.053442,0.083841,-0.000305,-0.059101,31,66.1096687699365
13272,-8.352147,-3.698107,4.045665,0.08491,0.003512,-0.05681,31,66.1108716647132
13282,-8.359925,-3.698107,4.045067,0.085063,0.006872,-0.055436,30.96,66.1305148822386
13292,-8.365308,-3.681956,4.058227,0.085521,0.011912,-0.053909,30.96,66.0578656544098
13302,-8.355139,-3.698107,4.061218,0.08659,0.016493,-0.051924,30.96,66.0357334485447
13312,-8.355738,-3.688536,4.057629,0.086285,0.021991,-0.050244,30.96,66.046800600064
13322,-8.35155,-3.692126,4.064807,0.086743,0.027184,-0.049175,30.98,66.0036580503571
13332,-8.35454,-3.681358,4.070789,0.08827,0.032529,-0.047495,30.98,65.9685749516725
13342,-8.355139,-3.689733,4.065406,0.088881,0.038179,-0.046731,30.97,66.0059189690838
13352,-8.352147,-3.696313,4.067201,0.089644,0.044593,-0.044746,30.97,65.9963442975527
13362,-8.36112,-3.684947,4.071388,0.090713,0.049786,-0.04444,30.99,65.9828622867345
13372,-8.368299,-3.679563,4.070789,0.091783,0.056352,-0.044135,30.99,65.996251695917
13382,-8.35454,-3.679563,4.073781,0.091935,0.062156,-0.04215,30.97,65.9512236725997
13392,-8.349755,-3.67418,4.072584,0.092699,0.067348,-0.041539,30.97,65.9421882747368
13402,-8.364112,-3.679563,4.072584,0.093921,0.072693,-0.041233,30.98,65.9779310509171
13412,-8.373085,-3.684349,4.068397,0.094531,0.077885,-0.041692,30.98,66.0234420305479
13422,-8.375478,-3.680759,4.064209,0.09499,0.082925,-0.040928,30.96,66.0470772111946
13432,-8.373683,-3.678366,4.053442,0.096517,0.091324,-0.039706,30.95,66.097372996934
13442,-8.380861,-3.669394,4.049852,0.096822,0.093921,-0.039706,30.95,66.123060107834
13452,-8.386844,-3.680759,4.038486,0.096822,0.096822,-0.039859,30.98,66.2058180240872
13462,-8.391031,-3.677768,4.0337,0.096669,0.099113,-0.040012,30.98,66.2369635260728
13472,-8.393424,-3.672385,4.028915,0.096517,0.100335,-0.040928,30.99,66.2621096067971
13482,-8.397612,-3.672385,4.021138,0.097128,0.101404,-0.04047,30.99,66.3117049491654
13492,-8.409575,-3.669394,4.022335,0.097128,0.101709,-0.039859,30.95,66.3278742455482
13502,-8.420342,-3.664608,4.013362,0.096517,0.101098,-0.040928,30.95,66.3931251567857
13512,-8.415558,-3.665206,4.010371,0.096822,0.100335,-0.041081,30.95,66.3993012118827
13522,-8.422735,-3.66042,4.010969,0.096975,0.098197,-0.041081,30.95,66.4068619973144
13532,-8.429317,-3.659822,4.005585,0.096517,0.095295,-0.041539,30.98,66.4483273028461
13542,-8.437093,-3.656233,4.001398,0.096059,0.092088,-0.041692,30.98,66.4832826735679
13552,-8.439486,-3.655635,3.982255,0.095295,0.088881,-0.041539,30.97,66.5880968124534
13562,-8.44128,-3.665804,3.98405,0.09499,0.08491,-0.04215,30.97,66.5916076127278
13572,-8.456235,-3.664608,3.98405,0.094379,0.079412,-0.042302,30.96,66.6216322449085
13582,-8.438888,-3.650849,3.985844,0.093921,0.073915,-0.041997,30.96,66.5637009075683
13592,-8.450851,-3.655036,3.971487,0.092546,0.067653,-0.043524,30.98,66.6676983735862
13602,-8.448458,-3.662215,3.975675,0.091783,0.054367,-0.044593,30.98,66.6472158137814
13612,-8.447861,-3.658028,3.97747,0.091477,0.048106,-0.044746,30.98,66.6327901492499
13622,-8.463414,-3.657429,3.968496,0.089797,0.040775,-0.047495,30.96,66.7115917559109
13632,-8.459825,-3.665206,3.978666,0.090103,0.033903,-0.047495,30.96,66.6578271185467
13642,-8.452645,-3.662813,3.970889,0.089339,0.026878,-0.048869,30.95,66.6815482138301
13652,-8.451449,-3.657429,3.976273,0.08827,0.020617,-0.049786,30.95,66.6459873610948
13662,-8.458031,-3.655635,3.975675,0.086896,0.014355,-0.051313,30.96,66.6611830546775
13672,-8.46102,-3.663411,3.987639,0.086285,0.007789,-0.053603,30.96,66.6117028020329
13682,-8.458628,-3.665804,3.979264,0.08659,0.001527,-0.055589,31,66.6527484321066
13692,-8.44427,-3.658626,3.984648,0.086132,-0.002902,-0.057269,31,66.5882148555502
13702,-8.439486,-3.659822,3.991228,0.085979,-0.006872,-0.058796,30.91,66.5448270984406
13712,-8.443074,-3.67059,3.996014,0.08491,-0.011301,-0.061087,30.91,66.5369857075067
13722,-8.445468,-3.662813,4.007978,0.085216,-0.014508,-0.064294,30.93,66.4723080964334
13732,-8.429317,-3.669992,4.014558,0.084605,-0.016341,-0.065973,30.93,66.4106022878732
13742,-8.440084,-3.666403,4.019942,0.083841,-0.018173,-0.067959,30.98,66.4017262273965
13752,-8.420941,-3.681956,4.022335,0.083841,-0.018631,-0.069944,30.98,66.3632875440415
13762,-8.401799,-3.677768,4.035496,0.084299,-0.017868,-0.07254,30.94,66.2502909297535
13772,-8.391031,-3.67418,4.046861,0.08323,-0.017104,-0.076816,30.94,66.1647287657987
13782,-8.391031,-3.678366,4.051049,0.08262,-0.012217,-0.078343,30.96,66.1467008399744
13792,-8.379066,-3.691527,4.057629,0.082925,-0.009621,-0.080634,30.96,66.0991801461136
13802,-8.376076,-3.67418,4.071388,0.082467,-0.005803,-0.081856,30.96,66.00465798771
13812,-8.374281,-3.68375,4.067201,0.082925,-0.000764,-0.081856,30.98,66.0316806267435
13822,-8.373085,-3.692126,4.077968,0.083078,0.004887,-0.082467,30.98,65.9807142893072
13832,-8.359326,-3.684947,4.074977,0.08262,0.011454,-0.08262,30.95,65.9602579905625
13842,-8.355139,-3.686741,4.082754,0.083536,0.017715,-0.082009,30.95,65.9123285905834
13852,-8.35155,-3.692724,4.082754,0.08323,0.024282,-0.081245,30.96,65.9103050153208
13862,-8.347363,-3.693322,4.074977,0.084147,0.03146,-0.079871,30.96,65.94260613733
13872,-8.335398,-3.686741,4.074977,0.084299,0.038485,-0.077733,30.97,65.9107788629605
13882,-8.332406,-3.690929,4.076173,0.085063,0.046884,-0.075289,30.97,65.9020744413125
13892,-8.338388,-3.681956,4.065406,0.085521,0.054214,-0.072693,30.97,65.9628140476097
13902,-8.332406,-3.686741,4.072584,0.086437,0.062308,-0.069333,30.97,65.9169088768802
13912,-8.338987,-3.68375,4.065406,0.08659,0.069791,-0.065668,30.96,65.9657897971794
13922,-8.328219,-3.68734,4.070191,0.087659,0.076511,-0.063072,30.96,65.9210513594774
13932,-8.335398,-3.694518,4.055236,0.088575,0.082467,-0.058338,30.92,66.0216360566982
13942,-8.347363,-3.686741,4.052843,0.08995,0.088423,-0.053451,30.92,66.0523610749065
13952,-8.338987,-3.692126,4.052245,0.091477,0.099266,-0.045051,30.94,66.0427221984386
13962,-8.353344,-3.67059,4.043272,0.091783,0.103084,-0.041081,30.94,66.1001602305549
13972,-8.363514,-3.666403,4.035496,0.093462,0.106138,-0.035888,30.94,66.1586989932627
13982,-8.370093,-3.684947,4.03071,0.094531,0.108429,-0.031612,30.96,66.2150368741241
13992,-8.375478,-3.686144,4.016951,0.095295,0.109803,-0.0281,30.96,66.2997319563977
14002,-8.379066,-3.68734,4.01396,0.096211,0.109803,-0.025045,30.95,66.3241065895795
14012,-8.398808,-3.686741,4.010969,0.096669,0.109956,-0.021991,30.95,66.3807675375893
14022,-8.400601,-3.679563,4.003192,0.098502,0.109039,-0.018631,30.95,66.4187205649811
14032,-8.410771,-3.677171,3.995416,0.099113,0.106749,-0.017868,30.95,66.4786431409465
