t_ms,ax,ay,az,gx,gy,gz,temp,ang_deg
12,-8.222935,-3.681956,4.183851,-0.066432,-0.108734,0.111636,32.25,65.0910052218573
22,-8.23131,-3.678965,4.211368,-0.0562,-0.122173,0.121868,32.25,64.9628850469486
32,-8.248059,-3.672385,4.232305,-0.046884,-0.134848,0.129045,32.25,64.8845628484058
42,-8.244471,-3.659822,4.252046,-0.038179,-0.144317,0.133932,32.25,64.7614226071366
52,-8.258827,-3.658028,4.278367,-0.031918,-0.152716,0.137292,32.25,64.6552389553545
62,-8.252247,-3.649653,4.311268,-0.026878,-0.157756,0.138972,32.25,64.4618095802476
72,-8.253444,-3.63051,4.345366,-0.024282,-0.159436,0.13775,32.21,64.2693280128597
82,-8.244471,-3.638287,4.384848,-0.023366,-0.157451,0.135307,32.21,64.0533866380899
92,-8.243872,-3.624528,4.41416,-0.025045,-0.151495,0.130114,32.26,63.8875742706403
102,-8.251051,-3.632305,4.431507,-0.028863,-0.143401,0.1237,32.26,63.8230898959225
112,-8.236693,-3.620939,4.464409,-0.034361,-0.1321,0.115606,32.23,63.6100636609197
122,-8.226524,-3.617948,4.482355,-0.042302,-0.118508,0.107054,32.23,63.4916892168789
132,-8.228318,-3.619144,4.499703,-0.051313,-0.102778,0.096059,32.24,63.4086082816805
142,-8.235497,-3.601198,4.511069,-0.061545,-0.085368,0.083994,32.24,63.3490894091577
152,-8.245069,-3.606582,4.518248,-0.072693,-0.067653,0.070708,32.26,63.340470594414
162,-8.258827,-3.616751,4.527221,-0.085063,-0.049633,0.05681,32.26,63.3374350126565
172,-8.277969,-3.623332,4.518248,-0.09728,-0.031765,0.041081,32.25,63.4342535398579
182,-8.300103,-3.629314,4.503891,-0.122631,-0.002138,0.007025,32.25,63.564413812396
192,-8.299506,-3.635296,4.489533,-0.134543,0.010232,-0.012217,32.24,63.6419311866909
202,-8.312068,-3.643072,4.461418,-0.145539,0.019548,-0.032681,32.23,63.8214557764388
212,-8.327621,-3.659224,4.459025,-0.155923,0.026267,-0.051924,32.23,63.8853345675653
222,-8.342576,-3.656831,4.421937,-0.164017,0.029322,-0.071166,32.2,64.1054904363388
232,-8.341978,-3.684349,4.40399,-0.171348,0.029932,-0.091935,32.2,64.2228644303668
242,-8.33121,-3.690331,4.375276,-0.176387,0.027947,-0.110567,32.26,64.3511204770928
252,-8.328817,-3.71067,4.362116,-0.180053,0.023824,-0.126449,32.26,64.433261853405
262,-8.302496,-3.72383,4.332206,-0.182343,0.017257,-0.140194,32.27,64.5408768049059
272,-8.286345,-3.725625,4.310072,-0.182191,0.009774,-0.149204,32.27,64.6204584960281
282,-8.261221,-3.742973,4.295715,-0.179747,0.00168,-0.154854,32.27,64.6559429860466
292,-8.229516,-3.758526,4.271188,-0.176082,-0.005803,-0.155771,32.27,64.7279278459352
302,-8.192427,-3.76391,4.259823,-0.172111,-0.013439,-0.152258,32.24,64.7097648331669
312,-8.167302,-3.774678,4.246662,-0.166003,-0.020617,-0.144164,32.24,64.733240466214
322,-8.130812,-3.79741,4.237689,-0.160199,-0.026573,-0.131794,32.2,64.722142216731
332,-8.105686,-3.80399,4.233501,-0.15348,-0.032223,-0.11469,32.2,64.6947300256016
342,-8.079964,-3.824329,4.226323,-0.145844,-0.03711,-0.094226,32.25,64.6961795857703
352,-8.050054,-3.827918,4.229314,-0.138208,-0.043219,-0.044746,32.25,64.6172202224376
362,-8.043473,-3.835097,4.219743,-0.121257,-0.045357,-0.018479,32.24,64.6603565675491
372,-8.04467,-3.843472,4.231109,-0.113163,-0.047342,0.009163,32.21,64.6123646524904
382,-8.053642,-3.860819,4.233501,-0.105069,-0.048564,0.035736,32.21,64.6385632608415
392,-8.068598,-3.858427,4.248456,-0.097891,-0.049633,0.06185,32.25,64.5912392033984
402,-8.085348,-3.858427,4.248456,-0.089492,-0.050549,0.085827,32.25,64.6287136700167
412,-8.10449,-3.851846,4.259823,-0.08262,-0.051465,0.107054,32.22,64.6051910722778
422,-8.11466,-3.854239,4.269393,-0.076053,-0.051924,0.126296,32.22,64.5806199423531
432,-8.145168,-3.859025,4.283153,-0.070097,-0.052382,0.142332,32.28,64.582251224171
442,-8.166704,-3.855436,4.288536,-0.064599,-0.054214,0.155312,32.28,64.5985022914212
452,-8.203793,-3.854837,4.298108,-0.059407,-0.055589,0.165086,32.23,64.6306979629079
462,-8.213962,-3.845864,4.292724,-0.055131,-0.058032,0.170431,32.23,64.6716772623213
472,-8.225926,-3.847061,4.298706,-0.05116,-0.060781,0.174555,32.25,64.6685173246133
482,-8.254042,-3.833302,4.320839,-0.046731,-0.064446,0.175318,32.25,64.6026131146804
492,-8.264212,-3.832105,4.323233,-0.042455,-0.067806,0.172722,32.23,64.6115788472949
502,-8.276175,-3.817749,4.332804,-0.039248,-0.072082,0.168446,32.23,64.574249060897
512,-8.307282,-3.818945,4.362116,-0.034972,-0.074526,0.161727,32.25,64.4943480748116
522,-8.303095,-3.808775,4.371687,-0.032681,-0.07758,0.140194,32.25,64.4258671896303
532,-8.306684,-3.801597,4.388436,-0.030085,-0.079871,0.12874,32.24,64.3411205080446
542,-8.309077,-3.787838,4.405785,-0.030849,-0.078038,0.114843,32.23,64.2440869340879
552,-8.298308,-3.773481,4.418945,-0.032223,-0.075442,0.100029,32.23,64.1383437308215
562,-8.296515,-3.777669,4.430311,-0.03543,-0.071471,0.083078,32.25,64.0807802694762
572,-8.300702,-3.771089,4.44407,-0.04047,-0.065057,0.065821,32.25,64.0135579883675
582,-8.291729,-3.753142,4.456034,-0.046884,-0.056963,0.048258,32.25,63.914147302772
592,-8.278568,-3.74058,4.457829,-0.054062,-0.048258,0.030696,32.25,63.862275756196
602,-8.273782,-3.735795,4.46082,-0.062308,-0.038637,0.013744,32.25,63.8312664890117
612,-8.257631,-3.727419,4.459025,-0.070708,-0.028405,-0.002902,32.25,63.7949472992737
622,-8.240283,-3.715455,4.448855,-0.080176,-0.019395,-0.01909,32.24,63.7947724291664
632,-8.222935,-3.716054,4.430909,-0.089797,-0.009316,-0.030849,32.24,63.8473675615342
642,-8.204391,-3.702295,4.430909,-0.098807,0.000305,-0.040623,32.25,63.7905710706633
652,-8.178668,-3.705286,4.408776,-0.107054,0.008858,-0.048258,32.25,63.8481367255912
662,-8.147561,-3.690331,4.383053,-0.114232,0.016188,-0.049633,32.2,63.8934706025874
672,-8.126026,-3.691527,4.368098,-0.119424,0.022755,-0.0478,32.2,63.9223971299499
682,-8.097312,-3.691527,4.351348,-0.124464,0.028863,-0.041844,32.23,63.9429663541844
692,-8.070393,-3.672983,4.305884,-0.12706,0.03375,-0.03146,32.23,64.0981956034944
702,-8.051848,-3.685545,4.293322,-0.128129,0.041692,0.001374,32.23,64.134344121714
712,-8.050054,-3.67059,4.272983,-0.126602,0.04383,0.02306,32.24,64.2211078007993
722,-8.05125,-3.67418,4.254438,-0.123089,0.04444,0.046426,32.24,64.3250891791941
732,-8.072187,-3.678965,4.249055,-0.117897,0.045357,0.070402,32.25,64.4064371549939
742,-8.081758,-3.675375,4.235296,-0.111177,0.043982,0.094684,32.25,64.4968905827987
752,-8.10449,-3.669992,4.238287,-0.104153,0.041692,0.118355,32.25,64.5274455892051
762,-8.141579,-3.659822,4.237689,-0.096059,0.038485,0.139888,32.25,64.6044546448786
772,-8.18764,-3.655635,4.237689,-0.087965,0.03375,0.156534,32.25,64.7043614739545
782,-8.222935,-3.658028,4.247859,-0.081092,0.027947,0.17089,32.25,64.7331271893517
792,-8.262416,-3.658028,4.254438,-0.072235,0.022449,0.18158,32.24,64.7873603447997
802,-8.300103,-3.67059,4.265206,-0.064752,0.015882,0.185856,32.24,64.8279503949106
812,-8.335996,-3.649055,4.280162,-0.057727,0.00672,0.184787,32.25,64.8094291234461
822,-8.372486,-3.651447,4.293322,-0.052229,-0.000458,0.180053,32.25,64.8249339624997
832,-8.410173,-3.651447,4.292724,-0.047953,-0.009163,0.170126,32.23,64.9111919758908
842,-8.421539,-3.661019,4.310072,-0.045051,-0.017562,0.156229,32.23,64.8565531218768
852,-8.449656,-3.649055,4.313661,-0.043066,-0.025809,0.138208,32.21,64.8886367955451
862,-8.461619,-3.659822,4.332206,-0.043066,-0.033292,0.118966,32.21,64.8305934216951
872,-8.440084,-3.657429,4.329215,-0.044899,-0.049327,0.074373,32.24,64.7962022199959
882,-8.442476,-3.665804,4.341777,-0.052534,-0.057269,0.049938,32.26,64.7454616160707
892,-8.436494,-3.652046,4.328018,-0.059101,-0.065668,0.025962,32.26,64.7892617083596
902,-8.41436,-3.669992,4.321437,-0.067195,-0.073915,0.004429,32.23,64.7912583380599
912,-8.391031,-3.678366,4.32742,-0.075595,-0.082772,-0.01573,32.23,64.7172485857853
922,-8.366504,-3.684947,4.31725,-0.083841,-0.090103,-0.034819,32.26,64.721421569391
932,-8.335398,-3.701099,4.314857,-0.09331,-0.097891,-0.050549,32.26,64.6805645390895
942,-8.29472,-3.703491,4.308277,-0.104153,-0.105527,-0.063988,32.21,64.6262632616863
952,-8.276773,-3.702295,4.303492,-0.113621,-0.11133,-0.074526,32.21,64.6096673347299
962,-8.25464,-3.725027,4.297509,-0.122937,-0.116828,-0.082161,32.25,64.6139141350078
972,-8.214561,-3.717848,4.301697,-0.133169,-0.121257,-0.087201,32.25,64.4951456853903
982,-8.207382,-3.726223,4.298706,-0.141721,-0.124922,-0.089797,32.21,64.5030229261532
992,-8.175079,-3.737589,4.286742,-0.148898,-0.128587,-0.091019,32.21,64.5040206734105
1002,-8.158927,-3.738187,4.287939,-0.154243,-0.131336,-0.090103,32.25,64.4619963833169
1012,-8.146365,-3.744768,4.296313,-0.158825,-0.133016,-0.087048,32.25,64.396906585446
1022,-8.143373,-3.756732,4.299902,-0.161421,-0.133169,-0.083841,32.25,64.3839535871106
1032,-8.126624,-3.763312,4.303492,-0.16249,-0.132863,-0.079107,32.25,64.3342657579911
1042,-8.120044,-3.771687,4.316054,-0.161421,-0.131183,-0.065515,32.23,64.2628897299851
1052,-8.112864,-3.762115,4.316054,-0.154549,-0.124006,-0.057574,32.2,64.236474527768
1062,-8.094321,-3.77049,4.318447,-0.147677,-0.11805,-0.048258,32.2,64.1906680004657
1072,-8.082357,-3.779463,4.322634,-0.13943,-0.111483,-0.036041,32.24,64.1511551733263
1082,-8.072187,-3.781258,4.328018,-0.130878,-0.103084,-0.025045,32.24,64.1018358152443
1092,-8.07458,-3.782454,4.336991,-0.119882,-0.094073,-0.010385,32.24,64.0619426800512
1102,-8.068,-3.789035,4.348357,-0.10797,-0.084605,0.003512,32.24,63.9949014493181
1112,-8.072187,-3.78066,4.353741,-0.094837,-0.073762,0.017562,32.18,63.9675475115549
1122,-8.073982,-3.780062,4.36391,-0.08262,-0.061087,0.032681,32.18,63.9182791031632
1132,-8.073383,-3.778267,4.372883,-0.070708,-0.048258,0.047342,32.29,63.8684637118474
1142,-8.090732,-3.776472,4.384848,-0.059101,-0.034361,0.062766,32.29,63.8445345482372
1152,-8.106883,-3.78066,4.403392,-0.048411,-0.020006,0.078038,32.24,63.7904422846617
1162,-8.118848,-3.775276,4.408178,-0.040623,-0.005956,0.091172,32.24,63.7875299456909
1172,-8.136793,-3.761517,4.412963,-0.034972,0.008399,0.103084,32.24,63.7894897865853
1182,-8.139186,-3.760919,4.422534,-0.030543,0.022297,0.112399,32.24,63.7451414900284
1192,-8.175676,-3.759723,4.429713,-0.028253,0.035277,0.119882,32.25,63.7908383843254
1202,-8.2014,-3.752544,4.436892,-0.028711,0.046731,0.124769,32.25,63.8054514302802
1212,-8.274979,-3.744768,4.436294,-0.031612,0.057269,0.124922,32.2,63.967999928718
1222,-8.290532,-3.745964,4.441677,-0.043677,0.071471,0.117286,32.23,63.9770485992385
1232,-8.327023,-3.731009,4.432106,-0.051771,0.076053,0.109498,32.23,64.0928835174581
1242,-8.349755,-3.739383,4.42732,-0.061697,0.078343,0.098502,32.21,64.1766801321248
1252,-8.340781,-3.735196,4.424329,-0.072082,0.079412,0.084758,32.21,64.1675343488647
1262,-8.366504,-3.750151,4.414758,-0.084147,0.07926,0.071166,32.28,64.2886333291749
1272,-8.359326,-3.744169,4.398606,-0.095295,0.077274,0.055741,32.28,64.3486855078753
1282,-8.363514,-3.756134,4.381258,-0.106138,0.073762,0.040928,32.23,64.4581430475497
1292,-8.355738,-3.757928,4.365107,-0.11637,0.069944,0.026114,32.23,64.5249399833527
1302,-8.3348,-3.744169,4.353741,-0.125686,0.06521,0.011606,32.25,64.522791774658
1312,-8.325229,-3.75733,4.328616,-0.134543,0.060323,-0.000916,32.25,64.6432609571274
1322,-8.301898,-3.768696,4.308277,-0.141721,0.054978,-0.010996,32.25,64.707376308327
1332,-8.286345,-3.775276,4.28734,-0.147066,0.047953,-0.020159,32.25,64.7873310736838
1342,-8.258228,-3.765705,4.27717,-0.149967,0.042761,-0.02474,32.21,64.7679822031958
1352,-8.238488,-3.777071,4.255635,-0.151647,0.03543,-0.028253,32.21,64.8471935213526
1362,-8.222337,-3.795615,4.235895,-0.150426,0.028253,-0.028863,32.22,64.9327312645058
1372,-8.208578,-3.784847,4.222734,-0.147219,0.020311,-0.025809,32.22,64.959819918272
1382,-8.188239,-3.786044,4.198207,-0.141263,0.01237,-0.021686,32.26,65.0439968560211
1392,-8.166105,-3.790829,4.176074,-0.134543,-0.004276,-0.006567,32.26,65.1158242827276
1402,-8.142776,-3.795615,4.169494,-0.114995,-0.012217,0.003512,32.25,65.1037794051773
1412,-8.157133,-3.78724,4.157529,-0.104153,-0.020922,0.014966,32.27,65.1896310338842
1422,-8.152347,-3.789035,4.161717,-0.092393,-0.030391,0.027794,32.27,65.15894570371
1432,-8.146963,-3.78066,4.148556,-0.080329,-0.039401,0.040164,32.22,65.2076508905438
1442,-8.149356,-3.777071,4.147958,-0.06857,-0.050091,0.054367,32.22,65.212399814179
1452,-8.149954,-3.767499,4.152145,-0.056352,-0.060628,0.068875,32.23,65.181936975446
1462,-8.148758,-3.758526,4.170092,-0.045357,-0.071166,0.082314,32.23,65.0758369748313
1472,-8.157133,-3.760321,4.175476,-0.034972,-0.081703,0.09728,32.25,65.0679657729194
1482,-8.170293,-3.754339,4.174279,-0.026725,-0.091783,0.112094,32.25,65.097271946107
1492,-8.192427,-3.75075,4.190431,-0.019395,-0.102625,0.124006,32.24,65.0580132711099
1502,-8.194819,-3.74058,4.198207,-0.013439,-0.111177,0.136834,32.24,65.0123742501377
1512,-8.210971,-3.722036,4.22393,-0.008705,-0.120799,0.147371,32.25,64.8952687736649
1522,-8.230712,-3.714857,4.235895,-0.006414,-0.128893,0.156687,32.25,64.8696564247517
1532,-8.234302,-3.699902,4.256832,-0.004887,-0.136681,0.163712,32.23,64.7538501236658
1542,-8.279764,-3.699304,4.282554,-0.005956,-0.143095,0.167835,32.23,64.7214314425317
1552,-8.28455,-3.689135,4.316652,-0.008705,-0.149967,0.168141,32.28,64.5460980257277
1562,-8.344969,-3.67418,4.339982,-0.012217,-0.155007,0.160352,32.28,64.5465290678202
1572,-8.352147,-3.67059,4.365705,-0.023671,-0.165239,0.150578,32.22,64.4274290905773
1582,-8.367702,-3.643671,4.39083,-0.032834,-0.168599,0.13775,32.24,64.3076697178537
1592,-8.378469,-3.649653,4.402793,-0.041386,-0.171195,0.121409,32.24,64.2768019309924
1602,-8.38804,-3.651447,4.429713,-0.051007,-0.173486,0.102167,32.25,64.1633149828666
1612,-8.382656,-3.637091,4.442276,-0.062003,-0.173486,0.081398,32.25,64.0733535591014
1622,-8.371889,-3.643671,4.466204,-0.071777,-0.172264,0.058948,32.23,63.9341722332049
1632,-8.365308,-3.64068,4.472784,-0.082314,-0.169057,0.036805,32.23,63.8829324245023
1642,-8.346166,-3.638287,4.485346,-0.092241,-0.163254,0.014661,32.23,63.7732729943089
1652,-8.303694,-3.639483,4.501498,-0.102014,-0.155771,-0.006261,32.23,63.595108874469
1662,-8.277969,-3.640081,4.506283,-0.111788,-0.144622,-0.026725,32.27,63.5120074973067
1672,-8.231908,-3.644269,4.515256,-0.120188,-0.130267,-0.043219,32.27,63.363680992896
1682,-8.190034,-3.64068,4.518846,-0.127365,-0.114079,-0.056658,32.24,63.2436839939825
1692,-8.170892,-3.642474,4.515256,-0.133321,-0.095142,-0.066584,32.24,63.2188765313423
1702,-8.126624,-3.64068,4.508676,-0.138056,-0.073304,-0.074984,32.25,63.1461672093814
1712,-8.088339,-3.655635,4.497908,-0.141721,-0.05116,-0.078496,32.25,63.1266361150422
1732,-8.036894,-3.675375,4.469792,-0.144622,-0.004123,-0.07758,32.24,63.1706253136403
1742,-8.027322,-3.681956,4.451249,-0.142637,0.042761,-0.067806,32.22,63.2508984082905
1752,-8.024929,-3.67418,4.439284,-0.140957,0.064446,-0.060476,32.22,63.2987284321303
1762,-8.039885,-3.696911,4.415954,-0.13775,0.083841,-0.052382,32.22,63.4795401090434
1772,-8.03809,-3.699304,4.400999,-0.133779,0.102625,-0.042302,32.22,63.555488385176
1782,-8.04826,-3.707081,4.395017,-0.128282,0.118202,-0.032834,32.22,63.6187353554427
1792,-8.076375,-3.716652,4.363312,-0.124311,0.129809,-0.022907,32.25,63.8590002397224
1802,-8.099705,-3.729812,4.349553,-0.119577,0.139277,-0.013286,32.25,63.9982519812483
1812,-8.123035,-3.727419,4.326224,-0.113926,0.14508,-0.00336,32.28,64.1703370923346
1822,-8.145168,-3.72383,4.311867,-0.10965,0.148135,0.004429,32.28,64.2916090683594
1832,-8.170293,-3.736991,4.296911,-0.106443,0.147677,0.011912,32.25,64.4398197064363
1842,-8.194819,-3.754937,4.28076,-0.101556,0.143706,0.0197,32.25,64.5972276209753
1852,-8.220542,-3.741776,4.268795,-0.098807,0.137445,0.026725,32.25,64.7033318527979
1862,-8.233105,-3.751348,4.256832,-0.097586,0.12874,0.032529,32.25,64.8030178113024
1872,-8.262416,-3.745964,4.247859,-0.095906,0.117897,0.038332,32.26,64.909010896618
1882,-8.27139,-3.75733,4.236493,-0.09499,0.105832,0.044593,32.26,64.9990388223562
1892,-8.288737,-3.765705,4.226323,-0.095448,0.091935,0.050244,32.26,65.0981127978964
1902,-8.310272,-3.778865,4.214957,-0.095295,0.07758,0.055741,32.26,65.2169598718487
1912,-8.325229,-3.778267,4.217948,-0.095906,0.04612,0.064904,32.25,65.233400554313
1922,-8.332406,-3.775874,4.211368,-0.09728,0.029932,0.067348,32.25,65.2806155574825
1932,-8.34796,-3.784847,4.205984,-0.098197,0.013134,0.069639,32.25,65.3508594145502
1942,-8.362316,-3.793222,4.204788,-0.098655,-0.004581,0.069791,32.23,65.3961453838972
1952,-8.36112,-3.795615,4.197011,-0.098655,-0.021838,0.069639,32.23,65.4360364784526
1962,-8.37129,-3.804588,4.200002,-0.099724,-0.039859,0.067653,32.21,65.4511785012266
1972,-8.359925,-3.8004,4.208377,-0.099266,-0.057421,0.063835,32.21,65.3795044565383
1982,-8.38445,-3.805784,4.211368,-0.099266,-0.074526,0.058032,32.26,65.422007776442
1992,-8.373683,-3.811767,4.219743,-0.098197,-0.092393,0.051465,32.26,65.3616477047847
2002,-8.365907,-3.812963,4.221537,-0.096517,-0.108887,0.043066,32.26,65.3368751344837
2012,-8.35813,-3.809972,4.231109,-0.095295,-0.124311,0.034361,32.26,65.2679300378211
2022,-8.327621,-3.813561,4.240082,-0.092393,-0.138056,0.025351,32.24,65.1593013890027
2032,-8.320443,-3.812365,4.238885,-0.090408,-0.150578,0.014966,32.24,65.1487098680802
2042,-8.298308,-3.82074,4.258028,-0.087965,-0.162032,0.006261,32.24,65.0102637618003
2052,-8.286943,-3.816552,4.271188,-0.08491,-0.171348,-0.002902,32.24,64.9134095952719
2062,-8.257033,-3.81715,4.281956,-0.082009,-0.178373,-0.01069,32.21,64.7928192135731
2072,-8.22473,-3.799803,4.295117,-0.077427,-0.182954,-0.015577,32.21,64.6356991635321
2082,-8.169695,-3.805784,4.320241,-0.073915,-0.184481,-0.020769,32.22,64.3891361688181
2092,-8.134401,-3.795615,4.325625,-0.066432,-0.180053,-0.01909,32.21,64.2710308509199
2102,-8.117052,-3.795017,4.338786,-0.06353,-0.173791,-0.014813,32.21,64.1628925751231
2112,-8.086544,-3.782454,4.34058,-0.059559,-0.164323,-0.007636,32.25,64.0706699352476
2122,-8.058429,-3.78066,4.350152,-0.05681,-0.154243,0.001527,32.25,63.9545795182868
2132,-8.04467,-3.766303,4.366303,-0.053145,-0.142026,0.011912,32.25,63.8234274836468
2142,-8.026724,-3.772285,4.363312,-0.049327,-0.129045,0.02474,32.25,63.8039363140751
2152,-8.039286,-3.762714,4.371687,-0.044746,-0.11469,0.039554,32.24,63.7791047053582
2162,-8.036894,-3.750151,4.381856,-0.041692,-0.101098,0.05452,32.24,63.7071093749889
2172,-8.035697,-3.74716,4.375875,-0.039095,-0.086896,0.07086,32.25,63.7321522494341
2182,-8.037491,-3.743571,4.386642,-0.036499,-0.073762,0.087354,32.25,63.6765122580669
2192,-8.055437,-3.726821,4.387838,-0.034819,-0.061697,0.102473,32.25,63.6939813450845
2202,-8.073982,-3.716054,4.387838,-0.034667,-0.050702,0.116981,32.25,63.7255598395053
2212,-8.07817,-3.71725,4.397409,-0.032834,-0.039248,0.131641,32.25,63.6869977425184
2222,-8.096714,-3.695715,4.405785,-0.033139,-0.029932,0.142637,32.25,63.6638478182546
2232,-8.134999,-3.697509,4.411169,-0.035277,-0.020617,0.152105,32.23,63.7268710456966
2242,-8.147561,-3.680759,4.420142,-0.038026,-0.011454,0.160963,32.23,63.6921638675482
2252,-8.205587,-3.659224,4.422534,-0.040928,-0.003512,0.165544,32.26,63.7917723571396
2262,-8.24148,-3.657429,4.435695,-0.050549,0.012523,0.165392,32.27,63.8051884717602
2272,-8.268997,-3.655635,4.456632,-0.057116,0.019395,0.159894,32.27,63.7597062319468
2282,-8.295319,-3.647858,4.443472,-0.064294,0.025656,0.150731,32.24,63.8792927383708
2292,-8.325827,-3.64068,4.45065,-0.072235,0.032681,0.139125,32.24,63.9052657815731
2302,-8.350353,-3.640081,4.45065,-0.080176,0.038179,0.123547,32.24,63.9605434834725
2312,-8.374879,-3.638885,4.454239,-0.088881,0.04383,0.10568,32.24,63.9968507912067
2322,-8.383853,-3.628117,4.444668,-0.097433,0.048106,0.085063,32.23,64.0551308966836
2332,-8.396414,-3.63051,4.431507,-0.106138,0.051313,0.062308,32.23,64.1526143537569
2342,-8.410173,-3.643671,4.439284,-0.113316,0.054672,0.037568,32.22,64.1570320832868
2352,-8.419147,-3.652644,4.423133,-0.120188,0.056505,0.013439,32.22,64.2677171098594
2362,-8.398808,-3.633501,4.408776,-0.126449,0.057421,-0.011454,32.29,64.27632740595
2372,-8.389236,-3.650251,4.400401,-0.1321,0.057574,-0.034819,32.29,64.3137299734172
2382,-8.370691,-3.649653,4.38066,-0.135459,0.057116,-0.053451,32.24,64.3720954740411
2392,-8.336594,-3.663411,4.35733,-0.138972,0.055131,-0.071013,32.24,64.4283464931638
2402,-8.316854,-3.667599,4.345366,-0.140194,0.05284,-0.085063,32.23,64.4495134969751
2412,-8.279166,-3.676572,4.323233,-0.139583,0.050549,-0.0956,32.23,64.4875870002561
2422,-8.207382,-3.702295,4.281358,-0.138056,0.047037,-0.100029,32.28,64.5686050465744
2432,-8.175676,-3.708875,4.252046,-0.132558,0.039095,-0.094837,32.28,64.6564553889424
2442,-8.139785,-3.716652,4.233501,-0.128282,0.035736,-0.083383,32.27,64.6805117885733
2452,-8.136793,-3.731607,4.216752,-0.124158,0.030391,-0.071013,32.24,64.7768499851862
2462,-8.110473,-3.73041,4.198207,-0.118966,0.024435,-0.055131,32.24,64.8138544757301
2472,-8.087142,-3.736991,4.196413,-0.112094,0.019242,-0.035736,32.23,64.777661148974
2482,-8.085348,-3.751946,4.183252,-0.105222,0.012217,-0.015119,32.23,64.8584895936652
2492,-8.083553,-3.753142,4.171886,-0.09896,0.005345,0.00504,32.22,64.9156162305658
2502,-8.102098,-3.760321,4.168297,-0.092699,-0.001985,0.025045,32.22,64.9834121131406
2512,-8.115258,-3.75733,4.16411,-0.085827,-0.010996,0.04444,32.22,65.0316846626415
2522,-8.128419,-3.762714,4.162315,-0.079565,-0.020922,0.062003,32.22,65.0759080916776
2532,-8.155338,-3.760321,4.179065,-0.074373,-0.03146,0.076358,32.3,65.0451655268798
2542,-8.185248,-3.75733,4.182654,-0.069944,-0.041844,0.088423,32.3,65.089493521498
2552,-8.212766,-3.762115,4.19402,-0.066279,-0.052687,0.096211,32.25,65.0956332327143
2562,-8.235497,-3.768696,4.208975,-0.063072,-0.063683,0.101251,32.25,65.0743638700116
2572,-8.247462,-3.763312,4.225725,-0.062156,-0.074526,0.102931,32.22,65.0082204837214
2582,-8.270193,-3.756732,4.239483,-0.06185,-0.086132,0.101709,32.22,64.9803197524541
2592,-8.28156,-3.75733,4.268795,-0.062461,-0.096059,0.096975,32.26,64.8543945855775
2602,-8.325827,-3.758526,4.291527,-0.063377,-0.114385,0.081092,32.26,64.8360498054053
2612,-8.330612,-3.75733,4.295117,-0.068722,-0.121715,0.071471,32.25,64.8269491780119
2622,-8.336594,-3.754937,4.320241,-0.072693,-0.129351,0.059865,32.23,64.7088933591876
2632,-8.334201,-3.744768,4.341179,-0.076664,-0.134696,0.048869,32.23,64.5862911348081
2642,-8.33121,-3.743571,4.348357,-0.081245,-0.138514,0.038026,32.2,64.5417456210901
2652,-8.327023,-3.734598,4.359125,-0.085674,-0.141568,0.028253,32.2,64.4684163349418
2662,-8.313264,-3.746562,4.381856,-0.089339,-0.141873,0.019242,32.25,64.3335936827087
2672,-8.300702,-3.74058,4.383651,-0.093462,-0.142332,0.010232,32.25,64.2902575352466
2682,-8.3013,-3.741776,4.389035,-0.097128,-0.142179,0.003207,32.22,64.265309881957
2692,-8.287541,-3.752544,4.393821,-0.100182,-0.140804,-0.002749,32.22,64.2209002537999
2702,-8.282756,-3.733402,4.399803,-0.10232,-0.138208,-0.008247,32.24,64.1601084789042
2712,-8.261221,-3.738786,4.408776,-0.104305,-0.134848,-0.012828,32.24,64.0710972531222
2722,-8.257033,-3.74716,4.408776,-0.104763,-0.129962,-0.015577,32.24,64.0702078820985
2732,-8.232506,-3.738786,4.408776,-0.105069,-0.124617,-0.018937,32.24,64.0059631761276
2742,-8.219944,-3.749553,4.418945,-0.104153,-0.117592,-0.020922,32.23,63.9364823124927
2752,-8.204391,-3.746562,4.422534,-0.103084,-0.109498,-0.020159,32.23,63.8795230413255
2762,-8.189436,-3.737589,4.430909,-0.101862,-0.100029,-0.019853,32.25,63.7930105487429
2772,-8.152946,-3.741776,4.429115,-0.100182,-0.089644,-0.01741,32.25,63.722718029215
2782,-8.148159,-3.744169,4.435695,-0.096517,-0.065515,-0.014508,32.24,63.6804301752304
2792,-8.128419,-3.742973,4.432106,-0.094379,-0.051924,-0.010996,32.23,63.6519950547724
2802,-8.106883,-3.752544,4.4339,-0.09163,-0.037415,-0.005956,32.23,63.6031332969524
2812,-8.099107,-3.751946,4.423133,-0.089492,-0.021838,0.000916,32.22,63.6399180102862
2822,-8.087142,-3.741179,4.418945,-0.086896,-0.006567,0.007789,32.22,63.6221932899941
2832,-8.061419,-3.750151,4.416552,-0.084299,0.00901,0.016646,32.24,63.5844143892449
2842,-8.066205,-3.753142,4.406384,-0.08262,0.023976,0.025656,32.24,63.6513485729243
2852,-8.06441,-3.750151,4.398606,-0.080023,0.038026,0.035736,32.25,63.6841928730552
2862,-8.070992,-3.745365,4.38425,-0.076969,0.05284,0.046426,32.25,63.7686455148759
2872,-8.065607,-3.744768,4.371687,-0.075595,0.064294,0.058338,32.23,63.8206805292061
2882,-8.068,-3.761517,4.355535,-0.074373,0.074984,0.068417,32.23,63.9280393861784
2892,-8.08475,-3.748357,4.345366,-0.072846,0.08491,0.079107,32.23,64.0053123323821
2902,-8.102098,-3.753741,4.332206,-0.071471,0.092699,0.089186,32.23,64.1191521250492
2912,-8.12124,-3.761517,4.32742,-0.070097,0.097433,0.098502,32.25,64.1958872124839
2922,-8.145168,-3.76391,4.308876,-0.07025,0.099113,0.10736,32.25,64.3489184454619
2932,-8.169096,-3.749553,4.298108,-0.069944,0.099418,0.114995,32.25,64.4438929694183
2942,-8.21157,-3.756134,4.273581,-0.070402,0.098044,0.121104,32.25,64.6731183761879
2952,-8.240881,-3.74716,4.265805,-0.07254,0.087506,0.128587,32.27,64.7695546863209
2962,-8.255836,-3.734598,4.255037,-0.074373,0.078954,0.129962,32.3,64.8458757699292
2972,-8.28156,-3.739383,4.263412,-0.076511,0.069791,0.129503,32.3,64.8642603956907
2982,-8.306085,-3.738786,4.256233,-0.078954,0.057269,0.126449,32.25,64.9548237751388
2992,-8.333005,-3.742374,4.244269,-0.08094,0.044746,0.121104,32.25,65.0791453046006
3002,-8.358727,-3.73041,4.242475,-0.084147,0.030543,0.114079,32.21,65.1328664023239
3012,-8.385049,-3.729214,4.243671,-0.087201,0.015119,0.104153,32.21,65.1828539482868
3022,-8.398808,-3.726821,4.244868,-0.089797,0,0.093768,32.24,65.2042707759742
3032,-8.410771,-3.728616,4.252644,-0.092241,-0.016341,0.080329,32.24,65.1920170278108
3042,-8.428718,-3.726223,4.252046,-0.095142,-0.032376,0.065973,32.23,65.2316582548797
3052,-8.432905,-3.713063,4.249653,-0.096975,-0.048869,0.049786,32.23,65.2404231732439
3062,-8.437093,-3.708875,4.256832,-0.09896,-0.06521,0.033445,32.23,65.2087052383126
3072,-8.426325,-3.701697,4.25743,-0.099724,-0.08094,0.016188,32.23,65.1754403107021
3082,-8.417951,-3.710072,4.260421,-0.099113,-0.096364,-0.000916,32.29,65.1499148745831
3092,-8.403594,-3.71067,4.259823,-0.098349,-0.111483,-0.017257,32.29,65.1223243362092
3102,-8.370691,-3.712464,4.265206,-0.096517,-0.124311,-0.031001,32.26,65.0245640586392
3112,-8.337193,-3.7005,4.276572,-0.093768,-0.134696,-0.041844,32.26,64.8807866715284
3122,-8.254042,-3.708277,4.289733,-0.090255,-0.150273,-0.055894,32.23,64.6359024800078
3132,-8.22473,-3.707081,4.295715,-0.081703,-0.154091,-0.058032,32.25,64.5380438638622
3142,-8.181659,-3.70409,4.305884,-0.076205,-0.155312,-0.054978,32.25,64.3851071675927
3152,-8.142178,-3.704688,4.312464,-0.071471,-0.153022,-0.049022,32.24,64.2618163305577
3162,-8.097312,-3.707081,4.313661,-0.066279,-0.14844,-0.039095,32.24,64.1554417235432
3172,-8.07458,-3.712464,4.322036,-0.060781,-0.142026,-0.026573,32.23,64.0651953342041
3182,-8.058429,-3.698706,4.336392,-0.055894,-0.133779,-0.01069,32.23,63.9384128409169
3192,-8.030313,-3.711268,4.336392,-0.051465,-0.123395,0.006872,32.25,63.886590938475
3202,-8.023134,-3.70409,4.347759,-0.046884,-0.111788,0.025045,32.25,63.8028153112907
3213,-8.036295,-3.702295,4.354339,-0.044288,-0.100182,0.043982,32.22,63.797237997071
3222,-8.023732,-3.702893,4.370491,-0.04215,-0.088881,0.061087,32.22,63.6843795030117
3232,-8.038688,-3.698706,4.376472,-0.041997,-0.075747,0.078496,32.26,63.6837044084308
3242,-8.053642,-3.698107,4.393223,-0.041692,-0.063683,0.093921,32.26,63.630979456175
3252,-8.085946,-3.696313,4.392624,-0.043677,-0.051618,0.104763,32.27,63.7075273250081
3262,-8.109276,-3.68734,4.412365,-0.046884,-0.040012,0.114079,32.27,63.6502117773667
3272,-8.134401,-3.690331,4.422534,-0.051465,-0.028863,0.11973,32.27,63.6593521394301
3282,-8.161918,-3.686741,4.439284,-0.056352,-0.018173,0.12202,32.27,63.6333008937007
3292,-8.216354,-3.684349,4.435097,-0.062003,-0.009468,0.115912,32.24,63.778067353706
3302,-8.247462,-3.682554,4.443472,-0.078954,0.007789,0.108429,32.27,63.8048721207975
3312,-8.277372,-3.68375,4.445267,-0.086896,0.016035,0.096364,32.27,63.8654137786036
3322,-8.299506,-3.68375,4.436294,-0.094837,0.022449,0.082467,32.21,63.9615955349681
3332,-8.316854,-3.689733,4.439284,-0.103542,0.028405,0.067195,32.21,63.9918146042368
3342,-8.318647,-3.692724,4.443472,-0.111636,0.034361,0.050091,32.25,63.9775970771617
3352,-8.343773,-3.694518,4.430909,-0.119119,0.039401,0.031307,32.25,64.1000834247977
3362,-8.346764,-3.696313,4.42074,-0.125686,0.042913,0.013439,32.29,64.1602995613936
3372,-8.345568,-3.702295,4.409972,-0.132252,0.045662,-0.005651,32.29,64.2183419769588
3382,-8.349755,-3.708875,4.412963,-0.137445,0.0478,-0.024587,32.23,64.2190894758169
3392,-8.340781,-3.708875,4.377669,-0.141873,0.047953,-0.043066,32.23,64.3787710417728
3402,-8.353344,-3.727419,4.369295,-0.14447,0.047647,-0.057574,32.27,64.4679369210965
3412,-8.340183,-3.732205,4.338786,-0.14615,0.046578,-0.072388,32.27,64.599307727967
3422,-8.326425,-3.737589,4.328018,-0.147371,0.043677,-0.084605,32.23,64.6292931145056
3432,-8.333005,-3.738786,4.318447,-0.14676,0.039706,-0.093615,32.23,64.6941165238695
3442,-8.306684,-3.748955,4.303492,-0.144317,0.034819,-0.099876,32.28,64.7227894275079
3452,-8.278568,-3.768098,4.278367,-0.141568,0.0281,-0.102625,32.28,64.8091966539276
3462,-8.230712,-3.772285,4.244269,-0.137139,0.020769,-0.103084,32.28,64.8840720145373
3472,-8.217552,-3.779463,4.242475,-0.126755,0.005345,-0.092088,32.28,64.8715656547946
3482,-8.193623,-3.789633,4.224528,-0.120493,-0.003818,-0.081856,32.27,64.9223242468401
3492,-8.179267,-3.788436,4.213761,-0.113621,-0.012828,-0.069944,32.21,64.9454548210164
3502,-8.15773,-3.799204,4.217948,-0.107054,-0.022144,-0.053756,32.21,64.8869738515068
3512,-8.138588,-3.792624,4.198207,-0.099724,-0.031612,-0.036957,32.22,64.9409151963429
3522,-8.111669,-3.812365,4.195815,-0.092546,-0.039554,-0.017562,32.22,64.9141921869468
3532,-8.112864,-3.81057,4.194618,-0.084452,-0.0478,0.003818,32.21,64.921249983591
3542,-8.105686,-3.802794,4.203591,-0.076053,-0.055741,0.02642,32.21,64.8501056608454
3552,-8.099107,-3.812963,4.197011,-0.069333,-0.063683,0.046578,32.27,64.8806109991011
3562,-8.096116,-3.802195,4.196413,-0.061545,-0.070555,0.067348,32.27,64.8658077574343
3572,-8.096714,-3.811767,4.210171,-0.054978,-0.076511,0.087506,32.24,64.8050040199004
3582,-8.102695,-3.81057,4.220341,-0.047953,-0.083078,0.106138,32.24,64.7638176623666
3592,-8.100902,-3.811168,4.23051,-0.043066,-0.087201,0.122937,32.27,64.707217315964
3602,-8.117651,-3.806383,4.251448,-0.038485,-0.090561,0.137292,32.27,64.6302881517155
3612,-8.132008,-3.801597,4.259224,-0.033445,-0.09331,0.149509,32.25,64.6168833246699
3622,-8.146963,-3.799803,4.277769,-0.030238,-0.095906,0.158061,32.25,64.5520139957837
3632,-8.164909,-3.779463,4.312464,-0.027794,-0.096364,0.163865,32.25,64.3911157674649
3642,-8.208578,-3.781856,4.323831,-0.025656,-0.095142,0.166155,32.25,64.4329722305264
3652,-8.222337,-3.769294,4.353143,-0.026267,-0.093157,0.163101,32.24,64.2999217916326
3662,-8.245667,-3.757928,4.362714,-0.027489,-0.090103,0.157756,32.24,64.2915379577749
3672,-8.252846,-3.756732,4.378268,-0.02978,-0.087201,0.149509,32.24,64.2266970892187
3682,-8.278568,-3.743571,4.380062,-0.031612,-0.082467,0.138666,32.25,64.2619453167779
3692,-8.297711,-3.745964,4.396811,-0.035583,-0.078038,0.125838,32.25,64.2218004482508
3702,-8.307282,-3.726223,4.403392,-0.039859,-0.073457,0.111483,32.23,64.1897728557839
3712,-8.320443,-3.719045,4.408178,-0.043371,-0.068722,0.094684,32.23,64.1877587754391
3722,-8.325827,-3.728018,4.421339,-0.048411,-0.065057,0.077122,32.22,64.1419077720198
3732,-8.334201,-3.714857,4.421339,-0.053145,-0.060476,0.059865,32.22,64.1475205274008
3742,-8.334201,-3.701099,4.417151,-0.058032,-0.057574,0.041539,32.28,64.1550423327121
3752,-8.325229,-3.698706,4.423133,-0.063377,-0.053603,0.023518,32.28,64.1019631849855
3762,-8.342576,-3.696313,4.432704,-0.068264,-0.050396,0.005498,32.24,64.0900569201769
3772,-8.324032,-3.682554,4.424329,-0.072693,-0.046884,-0.010996,32.24,64.0769792833953
3782,-8.31446,-3.675974,4.424329,-0.077733,-0.043524,-0.025809,32.23,64.0486980798989
3792,-8.293524,-3.682554,4.423731,-0.082314,-0.040775,-0.038637,32.23,64.0108295681162
3802,-8.277372,-3.67059,4.411169,-0.087354,-0.037721,-0.0478,32.24,64.0261647666262
3812,-8.222935,-3.663411,4.405785,-0.092088,-0.03375,-0.056963,32.24,63.921987831961
3822,-8.196614,-3.672385,4.399803,-0.09896,-0.022449,-0.056963,32.21,63.9014676212095
3832,-8.1679,-3.656831,4.396214,-0.102167,-0.01573,-0.053298,32.2,63.8376698755971
3842,-8.154739,-3.655036,4.392624,-0.104763,-0.008705,-0.047037,32.2,63.8238766120862
3852,-8.126624,-3.674777,4.383053,-0.106901,-0.000916,-0.037721,32.27,63.8288069203734
3862,-8.112864,-3.656831,4.380062,-0.10797,0.007025,-0.02642,32.27,63.7935468026508
3872,-8.10808,-3.664608,4.360919,-0.109192,0.015424,-0.013439,32.22,63.8898931762703
3882,-8.098508,-3.674777,4.360321,-0.109192,0.025045,0.001527,32.22,63.8814807733542
3892,-8.085946,-3.67059,4.356134,-0.10797,0.032834,0.016646,32.25,63.8696745290523
3902,-8.100902,-3.681358,4.348955,-0.106901,0.040928,0.032223,32.25,63.9530008187945
3912,-8.096714,-3.690929,4.332804,-0.104153,0.047953,0.046578,32.25,64.0373939538823
3922,-8.110473,-3.690331,4.33041,-0.101404,0.054672,0.060476,32.25,64.0809169452513
3932,-8.135597,-3.707679,4.314259,-0.098502,0.059559,0.072388,32.27,64.24057940462
3942,-8.137392,-3.690331,4.301099,-0.095448,0.06353,0.083994,32.27,64.2951352146601
3952,-8.164311,-3.70409,4.307679,-0.09163,0.066279,0.092241,32.25,64.3364336237212
3962,-8.179864,-3.705286,4.289135,-0.087506,0.067195,0.097433,32.25,64.4692187327319
3972,-8.205587,-3.707081,4.285545,-0.081856,0.067653,0.102473,32.2,64.5477010838569
3982,-8.245667,-3.721437,4.274179,-0.077733,0.065057,0.103847,32.2,64.7109079378099
3992,-8.266006,-3.72383,4.267599,-0.070097,0.055741,0.101862,32.21,64.7926187815919
4002,-8.283952,-3.718446,4.266403,-0.06689,0.049022,0.096669,32.22,64.8332376204216
4012,-8.3013,-3.72383,4.262215,-0.064599,0.040775,0.089034,32.22,64.8985821406462
4022,-8.325229,-3.73041,4.255037,-0.062614,0.031307,0.079718,32.25,64.9948021315262
4032,-8.33121,-3.729214,4.246064,-0.061392,0.020617,0.070402,32.25,65.0530406032111
4042,-8.35155,-3.736392,4.24068,-0.060781,0.008552,0.057574,32.21,65.1322945585141
4052,-8.36471,-3.732205,4.243671,-0.063072,-0.004276,0.044899,32.21,65.1414937916507
4062,-8.372486,-3.732205,4.236493,-0.063988,-0.017868,0.031001,32.29,65.1953857004681
4072,-8.388638,-3.741776,4.249653,-0.066737,-0.031612,0.016646,32.29,65.1720507975971
4082,-8.393424,-3.742973,4.249653,-0.07025,-0.046426,0.001527,32.25,65.1835950884866
4092,-8.376674,-3.738187,4.259823,-0.075289,-0.060934,-0.013286,32.25,65.0902932317608
4102,-8.385049,-3.742973,4.25085,-0.080329,-0.076053,-0.028711,32.22,65.1592665585413
4112,-8.373085,-3.747759,4.261019,-0.085521,-0.090866,-0.041692,32.22,65.0856494859406
4122,-8.36471,-3.745365,4.274778,-0.091324,-0.104763,-0.054062,32.22,64.9943716856121
4132,-8.343175,-3.75075,4.271188,-0.096517,-0.118202,-0.063988,32.22,64.9709885864241
4142,-8.332406,-3.74716,4.268795,-0.101709,-0.130572,-0.072082,32.26,64.9561595601959
4152,-8.270193,-3.754937,4.286742,-0.106291,-0.140804,-0.07758,32.26,64.7342254405439
4162,-8.244471,-3.749553,4.294518,-0.110567,-0.158978,-0.08094,32.27,64.6314627247029
4172,-8.217552,-3.753142,4.294518,-0.115148,-0.165239,-0.077733,32.27,64.5750029901351
4182,-8.197212,-3.76391,4.294518,-0.115454,-0.16921,-0.07254,32.27,64.5405070825689
4192,-8.166704,-3.772883,4.31725,-0.114843,-0.171042,-0.06353,32.25,64.3635233084164
4202,-8.139785,-3.769294,4.313661,-0.112246,-0.170584,-0.05284,32.25,64.3175472166602
4212,-8.112267,-3.763312,4.323233,-0.109498,-0.168293,-0.040928,32.25,64.1990851497448
4222,-8.080563,-3.771687,4.336991,-0.104305,-0.163406,-0.025198,32.25,64.0641138155332
4232,-8.07817,-3.768696,4.345366,-0.098197,-0.15684,-0.008858,32.28,64.0119234260723
4242,-8.051848,-3.768696,4.358526,-0.090255,-0.147982,0.008247,32.28,63.8830012605438
4252,-8.039286,-3.778865,4.366303,-0.082009,-0.137597,0.025962,32.25,63.8246041376785
4262,-8.045268,-3.772285,4.369893,-0.073915,-0.124922,0.043066,32.25,63.8126459233833
4272,-8.029117,-3.774678,4.390232,-0.065057,-0.110261,0.059407,32.24,63.6722598575134
4282,-8.032706,-3.766901,4.406384,-0.055436,-0.09331,0.076969,32.24,63.5883833092922
4292,-8.033303,-3.765705,4.400999,-0.047037,-0.076816,0.091324,32.22,63.6163697798902
4302,-8.035098,-3.75733,4.424329,-0.03879,-0.05849,0.105527,32.22,63.4906174614104
4312,-8.062616,-3.761517,4.435097,-0.031612,-0.039554,0.117286,32.26,63.5037782916869
4322,-8.063214,-3.751348,4.452445,-0.025351,-0.0197,0.125686,32.26,63.4046896153686
4332,-8.118848,-3.744768,4.462016,-0.021075,-0.000611,0.137445,32.23,63.4781010412344
4342,-8.137392,-3.726223,4.472784,-0.016035,0.036041,0.138514,32.21,63.4462112399139
4352,-8.173882,-3.726223,4.466204,-0.017104,0.053603,0.137903,32.21,63.5645651029352
4362,-8.210373,-3.732804,4.465605,-0.019242,0.068722,0.132405,32.23,63.6587038818702
4372,-8.242676,-3.72383,4.453641,-0.023213,0.082161,0.124617,32.23,63.7844887024925
4382,-8.274979,-3.720839,4.466802,-0.028863,0.093004,0.115606,32.26,63.7882241616263
4392,-8.295319,-3.728616,4.445267,-0.034972,0.101098,0.102473,32.26,63.9519272937868
4402,-8.327023,-3.714259,4.436892,-0.042913,0.107207,0.086132,32.23,64.0516815737662
4412,-8.346764,-3.713063,4.421937,-0.052382,0.109498,0.069333,32.23,64.1709374802355
4422,-8.359925,-3.711866,4.419543,-0.061239,0.110108,0.05284,32.23,64.2114498543772
4432,-8.373085,-3.727419,4.400999,-0.07086,0.10797,0.035125,32.23,64.3505169896968
4442,-8.369495,-3.716652,4.372285,-0.08094,0.102473,0.016646,32.26,64.4779555177837
4452,-8.378469,-3.715455,4.353143,-0.090103,0.096669,-0.000458,32.26,64.5942746255776
4462,-8.374281,-3.722036,4.337589,-0.098197,0.088728,-0.016646,32.25,64.6708654478524
4472,-8.350951,-3.725027,4.322036,-0.106138,0.080023,-0.029322,32.25,64.7017980124622
4482,-8.335996,-3.720241,4.305286,-0.112857,0.070402,-0.041386,32.21,64.7499047522722
4492,-8.328817,-3.723232,4.275376,-0.118813,0.059559,-0.04948,32.21,64.8908034044765
4502,-8.275578,-3.726821,4.251448,-0.123547,0.050091,-0.054825,32.21,64.9003976382451
4512,-8.252247,-3.729812,4.244269,-0.129198,0.029932,-0.056963,32.26,64.8889492225051
4522,-8.235497,-3.727419,4.23051,-0.129809,0.019853,-0.05284,32.26,64.9208872610243
4532,-8.227122,-3.732804,4.218546,-0.129351,0.011606,-0.047037,32.23,64.9699891405449
4542,-8.19781,-3.746562,4.208975,-0.127365,0.002749,-0.039095,32.23,64.9688249769392
4552,-8.169695,-3.742374,4.207779,-0.124006,-0.004429,-0.028405,32.25,64.9083625119536
4562,-8.163713,-3.748955,4.208975,-0.119882,-0.012065,-0.016952,32.25,64.8955092347135
4572,-8.154739,-3.74716,4.182654,-0.113926,-0.020617,-0.004429,32.26,65.0115724058019
4582,-8.143373,-3.744169,4.193422,-0.107512,-0.027336,0.009468,32.26,64.9267444360546
4592,-8.158927,-3.741179,4.186243,-0.100029,-0.034667,0.024129,32.23,64.9959571819326
4602,-8.142178,-3.738187,4.187439,-0.092546,-0.043219,0.038026,32.23,64.9493432314394
4612,-8.154739,-3.727419,4.186243,-0.084299,-0.05116,0.051771,32.24,64.9726195078626
4622,-8.155338,-3.744768,4.191029,-0.074831,-0.058032,0.066584,32.24,64.9665494380903
4632,-8.161918,-3.742973,4.191627,-0.066584,-0.066279,0.079565,32.23,64.9762167493565
4642,-8.179864,-3.732804,4.203591,-0.057421,-0.073915,0.091019,32.23,64.9431549999022
4652,-8.194221,-3.73041,4.205984,-0.048717,-0.081551,0.100793,32.22,64.9601321678846
4662,-8.202596,-3.725027,4.22094,-0.04047,-0.090103,0.109192,32.22,64.8952460384501
4672,-8.243872,-3.725625,4.244269,-0.032681,-0.097433,0.11637,32.22,64.8661834492849
4682,-8.258827,-3.717848,4.252644,-0.018937,-0.113621,0.124464,32.22,64.848145717391
4692,-8.266603,-3.726223,4.271787,-0.015272,-0.120493,0.124006,32.21,64.7746776656829
4702,-8.283354,-3.707081,4.290331,-0.012217,-0.126755,0.121715,32.21,64.6970178862676
4712,-8.300103,-3.692724,4.302295,-0.009163,-0.1321,0.118355,32.21,64.6583751851172
4722,-8.305488,-3.705286,4.323233,-0.008552,-0.137292,0.111483,32.23,64.5751338947131
4732,-8.312068,-3.708875,4.346562,-0.008705,-0.141263,0.103084,32.23,64.473671022765
4742,-8.319845,-3.692126,4.354339,-0.011301,-0.144317,0.092699,32.22,64.4345451083532
4752,-8.315658,-3.692724,4.38425,-0.015119,-0.146302,0.079565,32.22,64.2727011876023
4762,-8.321041,-3.692126,4.393821,-0.019853,-0.14615,0.065973,32.22,64.2353374674353
4772,-8.326425,-3.686144,4.411767,-0.026114,-0.144011,0.051465,32.22,64.1499687473547
4782,-8.31147,-3.681358,4.438088,-0.033292,-0.14111,0.035736,32.25,63.9772484690454
4792,-8.300103,-3.685545,4.457231,-0.041844,-0.13607,0.021533,32.25,63.8582189510896
4802,-8.297711,-3.698107,4.466204,-0.051771,-0.12874,0.005192,32.23,63.8199098892556
4812,-8.279764,-3.680759,4.468596,-0.061392,-0.118966,-0.009927,32.23,63.7490606834393
4822,-8.265409,-3.692724,4.475775,-0.07254,-0.108123,-0.024129,32.26,63.6918501802424
4832,-8.248059,-3.686144,4.488935,-0.082772,-0.096059,-0.036957,32.26,63.5782180532301
4842,-8.243872,-3.689733,4.494917,-0.092699,-0.082772,-0.048564,32.24,63.5418373547277
4852,-8.190034,-3.685545,4.49731,-0.102931,-0.052229,-0.065515,32.24,63.4004216272237
4862,-8.17149,-3.699304,4.48415,-0.121715,-0.036499,-0.072082,32.24,63.438893587617
4872,-8.159525,-3.705286,4.476971,-0.130114,-0.020922,-0.076358,32.21,63.4540686005073
4882,-8.148159,-3.709473,4.466802,-0.136528,-0.005345,-0.076664,32.21,63.4841179819146
4892,-8.130812,-3.715455,4.444668,-0.14111,0.009774,-0.076816,32.24,63.5637062564751
4902,-8.103892,-3.720839,4.438088,-0.144164,0.02474,-0.073304,32.24,63.540662589728
4912,-8.103294,-3.739982,4.418945,-0.145997,0.039095,-0.067959,32.25,63.6583885693189
4922,-8.096116,-3.736991,4.408178,-0.145997,0.052687,-0.059101,32.25,63.6941064873091
4932,-8.087741,-3.739982,4.385446,-0.144775,0.064599,-0.049786,32.25,63.7954397900325
4942,-8.081161,-3.734,4.372883,-0.141873,0.075595,-0.037568,32.25,63.8389165759761
4952,-8.090134,-3.745964,4.349553,-0.136987,0.085674,-0.023671,32.22,63.9933950847902
4962,-8.081758,-3.748357,4.333402,-0.131947,0.093768,-0.008247,32.22,64.0606258466729
4972,-8.088937,-3.760919,4.314857,-0.125533,0.100487,0.006414,32.26,64.1869010318636
4982,-8.094321,-3.766303,4.30409,-0.118813,0.10568,0.021075,32.26,64.2609390277647
4992,-8.119445,-3.778865,4.288536,-0.110261,0.108581,0.036041,32.25,64.4121442767678
5002,-8.140981,-3.774678,4.269992,-0.10232,0.109345,0.049786,32.25,64.5528175179629
5012,-8.163713,-3.767499,4.262215,-0.094379,0.108581,0.062461,32.26,64.6368441081013
5022,-8.223534,-3.778267,4.24726,-0.085521,0.105374,0.081703,32.26,64.8587494069775
5032,-8.246264,-3.779463,4.238287,-0.07086,0.09163,0.087659,32.22,64.9566709885956
5042,-8.268398,-3.759723,4.232305,-0.06353,0.082467,0.091019,32.23,65.0165513675379
5052,-8.286943,-3.765106,4.224528,-0.057421,0.071471,0.092088,32.23,65.102886438254
5062,-8.313862,-3.765705,4.22393,-0.05116,0.059712,0.092241,32.2,65.1653666375591
5072,-8.338987,-3.77049,4.223332,-0.046578,0.044899,0.088423,32.2,65.227811986814
5082,-8.352147,-3.779463,4.221537,-0.043066,0.031001,0.081856,32.26,65.2743823431771
5092,-8.353942,-3.788436,4.225127,-0.040012,0.015424,0.076205,32.26,65.2685485871701
5102,-8.356335,-3.783651,4.224528,-0.039248,-0.000305,0.068111,32.27,65.2721210865037
5112,-8.362316,-3.786044,4.231109,-0.038485,-0.016188,0.059254,32.27,65.2534970625194
5122,-8.35813,-3.78724,4.24068,-0.038943,-0.031612,0.049786,32.27,65.1963540374642
5132,-8.359925,-3.772285,4.234698,-0.039401,-0.045968,0.041081,32.27,65.2163832184939
5142,-8.342576,-3.776472,4.240082,-0.041997,-0.060628,0.032529,32.23,65.1551079066742
5152,-8.343773,-3.77408,4.245465,-0.045204,-0.074678,0.024129,32.23,65.1276294263963
5162,-8.309675,-3.775874,4.237091,-0.047953,-0.087506,0.016341,32.24,65.0982888965077
5172,-8.297112,-3.773481,4.25384,-0.051313,-0.09896,0.010385,32.24,64.9819477266404
5182,-8.282157,-3.768696,4.250251,-0.053451,-0.109192,0.006261,32.25,64.9628785665573
5192,-8.240881,-3.765705,4.265206,-0.056352,-0.118202,0.002902,32.25,64.7914140999781
5202,-8.220542,-3.769892,4.268795,-0.06185,-0.13271,0.002138,32.21,64.7319358614881
5214,-8.215756,-3.742973,4.272983,-0.063072,-0.137597,0.004123,32.25,64.6721516978489
5222,-8.184052,-3.756134,4.291527,-0.065057,-0.141721,0.008094,32.25,64.5184777167481
5232,-8.17448,-3.753142,4.307081,-0.067501,-0.143859,0.01237,32.25,64.413223537621
5242,-8.163713,-3.746562,4.305884,-0.067653,-0.144011,0.018479,32.25,64.3883062964922
5252,-8.162517,-3.739982,4.322634,-0.067501,-0.144164,0.024893,32.23,64.2919417735152
5262,-8.138588,-3.739383,4.317849,-0.067042,-0.14111,0.031918,32.23,64.2617963485672
5272,-8.133802,-3.725027,4.336392,-0.06689,-0.136223,0.039859,32.28,64.1396655325192
5282,-8.117052,-3.727419,4.352544,-0.065668,-0.130725,0.048106,32.28,64.0200655063903
5292,-8.117052,-3.714259,4.362116,-0.064446,-0.123242,0.0562,32.22,63.9565896981432
5302,-8.11466,-3.720839,4.380062,-0.063225,-0.115148,0.062461,32.22,63.8651148180426
5312,-8.116454,-3.714259,4.387838,-0.060934,-0.10568,0.068722,32.24,63.8220853436025
5322,-8.130214,-3.701099,4.396811,-0.058796,-0.094531,0.074678,32.24,63.793652150618
5332,-8.146365,-3.696911,4.406981,-0.057574,-0.08323,0.080176,32.21,63.7741366161355
5342,-8.154739,-3.697509,4.406981,-0.055741,-0.071471,0.083383,32.21,63.79411175621
5352,-8.156534,-3.698107,4.41416,-0.054214,-0.059865,0.084758,32.23,63.761918197683
5362,-8.167302,-3.681358,4.435097,-0.052076,-0.047953,0.085368,32.23,63.6616593023126
5372,-8.197212,-3.671786,4.430909,-0.051618,-0.023213,0.083536,32.25,63.7424191542844
5382,-8.208578,-3.675375,4.433302,-0.049327,-0.012523,0.079718,32.27,63.7600876899606
5392,-8.22473,-3.669394,4.433302,-0.048564,-0.001374,0.076053,32.27,63.7911421508397
5402,-8.244471,-3.677171,4.44407,-0.049175,0.008858,0.070708,32.24,63.7894368301968
5412,-8.254042,-3.677171,4.436892,-0.049786,0.017868,0.063072,32.24,63.8480663472939
5422,-8.266006,-3.673581,4.431507,-0.050702,0.02642,0.056352,32.23,63.8993069531239
5432,-8.278568,-3.663411,4.424329,-0.052534,0.033903,0.046731,32.23,63.9543742785609
5442,-8.28455,-3.667001,4.427918,-0.055131,0.040012,0.038026,32.24,63.9533250225843
5452,-8.306085,-3.665206,4.409972,-0.057727,0.043982,0.028405,32.24,64.0921414130699
5462,-8.292925,-3.67059,4.412963,-0.061239,0.047342,0.018173,32.25,64.0523821594016
5472,-8.288737,-3.672385,4.390232,-0.065821,0.04948,0.008399,32.25,64.1609230630324
5482,-8.297711,-3.681358,4.386642,-0.070097,0.050244,-0.00168,32.25,64.2086133106237
5492,-8.292327,-3.68375,4.372285,-0.073762,0.04948,-0.010996,32.25,64.2723703393007
5502,-8.289934,-3.697509,4.365705,-0.078191,0.049175,-0.020006,32.26,64.3145073123153
5512,-8.289336,-3.684947,4.348357,-0.08323,0.047037,-0.027642,32.26,64.3895866199353
5522,-8.278568,-3.698706,4.335794,-0.087506,0.043982,-0.034056,32.25,64.4437339991557
5532,-8.263015,-3.708875,4.329215,-0.091935,0.04215,-0.039859,32.25,64.4528929223574
5542,-8.236693,-3.719045,4.318447,-0.096211,0.03879,-0.048258,32.25,64.4595555763953
5552,-8.221739,-3.723232,4.323831,-0.104763,0.033445,-0.048258,32.23,64.4023683034797
5562,-8.212168,-3.724428,4.308876,-0.108276,0.031612,-0.046426,32.23,64.459321160108
5572,-8.196614,-3.734,4.291527,-0.111177,0.029932,-0.045051,32.24,64.5239625949462
5582,-8.178668,-3.731607,4.291527,-0.112705,0.0281,-0.040928,32.24,64.4811087261874
5592,-8.155936,-3.748357,4.271787,-0.113774,0.027947,-0.034361,32.22,64.5497816241935
5602,-8.158329,-3.75733,4.271787,-0.114232,0.026573,-0.027794,32.22,64.5644472469418
5612,-8.160722,-3.754339,4.260421,-0.113926,0.025656,-0.020769,32.24,64.6258852071832
5622,-8.151749,-3.760919,4.254438,-0.112705,0.023976,-0.012217,32.24,64.6437253058578
5632,-8.158329,-3.766901,4.253242,-0.109803,0.021533,-0.003818,32.24,64.6708860100224
5642,-8.172088,-3.765705,4.234099,-0.106138,0.018479,0.005803,32.24,64.8001391892057
5652,-8.168499,-3.778267,4.229912,-0.102473,0.014355,0.014355,32.27,64.8268904224753
5662,-8.167302,-3.780062,4.216752,-0.096059,0.008247,0.022449,32.27,64.8947369415571
5672,-8.194221,-3.783053,4.205984,-0.090255,0.002596,0.030391,32.26,65.0135632468731
5682,-8.217552,-3.786642,4.205984,-0.083383,-0.006414,0.03711,32.26,65.0685976074751
5692,-8.226524,-3.778865,4.202394,-0.076511,-0.016035,0.043219,32.24,65.0991438992749
5702,-8.234302,-3.783651,4.207779,-0.070097,-0.02642,0.048411,32.24,65.0930236924892
5712,-8.26481,-3.773481,4.214957,-0.062461,-0.038179,0.051618,32.24,65.1124013061416
5722,-8.277372,-3.77408,4.219144,-0.048564,-0.063225,0.055436,32.24,65.1187781510662
5732,-8.283354,-3.768696,4.229912,-0.041844,-0.075595,0.057116,32.25,65.0707223962884
5742,-8.298907,-3.778267,4.246662,-0.038179,-0.088881,0.055894,32.27,65.0277082622201
5752,-8.300702,-3.768696,4.254438,-0.03375,-0.10064,0.053603,32.27,64.9819657279025
5762,-8.308478,-3.761517,4.264608,-0.031001,-0.111636,0.051313,32.25,64.9394303699216
5772,-8.309675,-3.750151,4.277769,-0.029016,-0.122478,0.047953,32.25,64.8629462614258
5782,-8.31147,-3.75075,4.299902,-0.0281,-0.131336,0.043982,32.25,64.7536167195563
5792,-8.293524,-3.747759,4.320241,-0.028253,-0.138972,0.04047,32.25,64.6063319345368
5802,-8.301898,-3.744768,4.334598,-0.029932,-0.144775,0.036194,32.23,64.5482499581839
5812,-8.285149,-3.736991,4.356732,-0.031001,-0.148746,0.031765,32.23,64.3895290056257
5822,-8.277372,-3.739383,4.369295,-0.033903,-0.15012,0.027184,32.26,64.310130698683
5832,-8.260024,-3.732804,4.383651,-0.037568,-0.149509,0.023366,32.26,64.1908319150035
5842,-8.244471,-3.731009,4.402793,-0.041386,-0.146302,0.020311,32.21,64.0557601948695
5852,-8.223534,-3.732804,4.418945,-0.044899,-0.140957,0.016952,32.21,63.9272949359032
5862,-8.208578,-3.72383,4.429713,-0.048564,-0.133016,0.016188,32.25,63.8286705154862
5872,-8.182856,-3.734598,4.432106,-0.052687,-0.123242,0.01405,32.25,63.7686356726243
5882,-8.173882,-3.732205,4.460222,-0.057421,-0.111788,0.012981,32.27,63.6014720264349
5892,-8.141579,-3.722036,4.455436,-0.060476,-0.083994,0.015882,32.27,63.540418066574
5902,-8.119445,-3.73041,4.459025,-0.066126,-0.067806,0.016188,32.27,63.4794630202041
5912,-8.107481,-3.732804,4.457829,-0.067501,-0.050855,0.019242,32.24,63.4603013044032
5922,-8.102098,-3.741776,4.460222,-0.067653,-0.033292,0.02306,32.24,63.4451037936333
5932,-8.098508,-3.741179,4.451847,-0.067806,-0.015272,0.02642,32.21,63.4791396512086
5942,-8.096116,-3.731009,4.45065,-0.067653,0.002749,0.031001,32.21,63.4687812874547
5952,-8.083553,-3.731607,4.431507,-0.066279,0.020769,0.03543,32.24,63.5387398476911
5962,-8.09133,-3.723232,4.433302,-0.064752,0.03711,0.039401,32.24,63.5386143134615
5972,-8.08475,-3.726821,4.415356,-0.063225,0.052993,0.04444,32.22,63.6197491268874
5982,-8.114061,-3.72383,4.409972,-0.062308,0.067653,0.047953,32.22,63.7123891088789
5992,-8.117651,-3.73041,4.400401,-0.06017,0.081398,0.052993,32.23,63.7770693617187
6002,-8.137392,-3.729214,4.389633,-0.059559,0.091935,0.055283,32.23,63.876879828977
6012,-8.165507,-3.728018,4.369893,-0.058948,0.101098,0.058032,32.26,64.0419459145006
6022,-8.17807,-3.729214,4.354938,-0.058338,0.108429,0.059865,32.26,64.1490286843358
6032,-8.199007,-3.732804,4.346562,-0.059101,0.112857,0.060018,32.27,64.2435107392201
6042,-8.236693,-3.713063,4.34417,-0.060018,0.11469,0.059407,32.27,64.3208459956774
6052,-8.263614,-3.714857,4.314857,-0.062308,0.113163,0.05681,32.24,64.5342355008413
6062,-8.306684,-3.71067,4.305884,-0.063835,0.109956,0.049327,32.24,64.6723593036396
6072,-8.319246,-3.722634,4.295715,-0.070708,0.094531,0.042761,32.23,64.7644035135557
6082,-8.349156,-3.705884,4.279563,-0.073609,0.084452,0.035888,32.27,64.8970353653001
6092,-8.356335,-3.714857,4.268795,-0.077427,0.071319,0.029169,32.27,64.9769698242111
6102,-8.365907,-3.707081,4.249055,-0.081551,0.056963,0.020617,32.23,65.0919917957103
6112,-8.369495,-3.706482,4.253242,-0.085216,0.040317,0.012217,32.23,65.0776976981183
6122,-8.38146,-3.713063,4.24068,-0.087506,0.023518,0.004734,32.27,65.1748424324125
6132,-8.365308,-3.716652,4.235296,-0.090713,0.006872,-0.002749,32.27,65.1708590695593
6142,-8.350951,-3.716652,4.234698,-0.091783,-0.010537,-0.008247,32.24,65.1426154206872
6152,-8.349156,-3.706482,4.224528,-0.093157,-0.026725,-0.013897,32.24,65.1813377717626
6162,-8.319246,-3.72383,4.223332,-0.09331,-0.042455,-0.017257,32.26,65.139036528186
6172,-8.301898,-3.719643,4.22752,-0.092393,-0.057421,-0.0197,32.26,65.0752045744564
6182,-8.280961,-3.726223,4.22094,-0.08995,-0.069944,-0.020311,32.25,65.0697903575639
6192,-8.249854,-3.728018,4.226323,-0.087201,-0.081245,-0.017868,32.25,64.975033007835
6202,-8.234302,-3.728616,4.219743,-0.082161,-0.091477,-0.01573,32.25,64.9754498675206
6212,-8.210373,-3.732205,4.232903,-0.076816,-0.09896,-0.011301,32.25,64.857467359763
6222,-8.182258,-3.732205,4.242475,-0.071013,-0.105374,-0.006261,32.25,64.7448985594866
6232,-8.161918,-3.735795,4.245465,-0.063988,-0.109956,0.001069,32.25,64.687422897636
6242,-8.140981,-3.734,4.265805,-0.049022,-0.113774,0.016646,32.24,64.5323790091027
6252,-8.13799,-3.734598,4.280162,-0.041233,-0.113774,0.026114,32.19,64.4514173427742
6262,-8.122437,-3.739982,4.281358,-0.033598,-0.112094,0.034056,32.19,64.4155645410845
6272,-8.130812,-3.731009,4.304688,-0.027184,-0.109039,0.042455,32.25,64.303747976204
6282,-8.119445,-3.735196,4.322634,-0.021075,-0.104458,0.049786,32.25,64.188947317223
6292,-8.132008,-3.731009,4.338188,-0.016188,-0.099571,0.055589,32.22,64.132519030022
6302,-8.151151,-3.723232,4.348955,-0.012828,-0.093615,0.060781,32.22,64.1123489350626
6312,-8.154141,-3.716054,4.361517,-0.010537,-0.086437,0.065057,32.25,64.0467250979115
6322,-8.15773,-3.726223,4.381258,-0.009621,-0.078954,0.068111,32.25,63.96364142274
6332,-8.166704,-3.731607,4.399205,-0.010843,-0.071624,0.068875,32.23,63.8973941637936
6342,-8.194221,-3.723232,4.40399,-0.013286,-0.063683,0.06857,32.23,63.9270842620319
6352,-8.196614,-3.720241,4.409972,-0.017257,-0.055283,0.067195,32.24,63.8987372089452
6362,-8.216354,-3.711268,4.414758,-0.021991,-0.046884,0.064904,32.24,63.9100686791316
6372,-8.236095,-3.709473,4.424329,-0.029016,-0.039401,0.058796,32.28,63.9043359968913
6382,-8.25464,-3.705884,4.421937,-0.035277,-0.032376,0.053298,32.28,63.9552002081085
6392,-8.255836,-3.713063,4.432704,-0.043219,-0.025198,0.046731,32.24,63.9102779698031
6402,-8.259426,-3.704688,4.434498,-0.051618,-0.01909,0.039401,32.24,63.9007284995743
6412,-8.277372,-3.711268,4.436294,-0.061087,-0.00901,0.020311,32.22,63.9391718063075
6422,-8.297112,-3.705884,4.416552,-0.079412,-0.004887,0.010385,32.27,64.0791539654839
6432,-8.295319,-3.713661,4.421937,-0.087354,-0.000916,0.000916,32.27,64.0555094160849
6442,-8.294122,-3.714857,4.407579,-0.094684,0.002138,-0.008399,32.25,64.1272498894656
6452,-8.296515,-3.714857,4.409972,-0.101556,0.004123,-0.016799,32.25,64.1204442585079
6462,-8.279764,-3.713661,4.396811,-0.107054,0.005498,-0.025809,32.24,64.1486020031181
6472,-8.283354,-3.724428,4.380062,-0.111025,0.007025,-0.032681,32.24,64.2532941821433
6482,-8.276175,-3.729812,4.377669,-0.114995,0.007789,-0.039401,32.23,64.2548391923318
6492,-8.257033,-3.729812,4.367499,-0.116981,0.007483,-0.044746,32.23,64.2638482204672
6502,-8.255239,-3.741776,4.354938,-0.117439,0.007789,-0.048258,32.21,64.3364788485816
6512,-8.236095,-3.729214,4.348357,-0.116217,0.007941,-0.05116,32.21,64.3144034006546
6522,-8.214561,-3.741776,4.341777,-0.11469,0.007789,-0.051924,32.25,64.3125901853335
6532,-8.2014,-3.736991,4.34058,-0.11133,0.008552,-0.052076,32.25,64.2841090383157
6542,-8.193025,-3.749553,4.323831,-0.107818,0.009927,-0.049786,32.26,64.364650318172
6552,-8.179267,-3.754937,4.326224,-0.103389,0.011301,-0.047189,32.26,64.3267938912747
6562,-8.155936,-3.761517,4.323233,-0.097891,0.013134,-0.041081,32.23,64.2963576301575
6572,-8.14457,-3.759723,4.313063,-0.092546,0.01573,-0.034667,32.23,64.3214643578457
6582,-8.128419,-3.771687,4.312464,-0.086285,0.0197,-0.016646,32.21,64.3005268487938
6592,-8.125427,-3.765705,4.302295,-0.073151,0.026267,-0.006414,32.25,64.3402872121226
6602,-8.124829,-3.774678,4.296313,-0.066737,0.029932,0.004887,32.25,64.3794577694667
6612,-8.122437,-3.773481,4.285545,-0.060628,0.033598,0.016035,32.25,64.4288156565747
6622,-8.117052,-3.786044,4.278965,-0.054825,0.035888,0.0281,32.25,64.46412223934
6632,-8.123632,-3.775874,4.279563,-0.049175,0.037874,0.039554,32.25,64.465168562149
6642,-8.140383,-3.78066,4.27717,-0.044135,0.037721,0.050244,32.25,64.520357694083
6652,-8.156534,-3.771687,4.259224,-0.039554,0.037415,0.060018,32.24,64.6406659864579
6662,-8.166105,-3.779463,4.261617,-0.03543,0.035277,0.068722,32.24,64.6576783920946
6672,-8.188239,-3.771089,4.256832,-0.030696,0.031154,0.07758,32.29,64.7233314457048
6682,-8.20798,-3.779463,4.246662,-0.027184,0.025809,0.083841,32.29,64.8286231123817
6692,-8.214561,-3.772285,4.235296,-0.024893,0.017868,0.089034,32.23,64.8949414166878
6702,-8.24148,-3.768696,4.239483,-0.022297,0.00901,0.09331,32.23,64.9290562912847
6712,-8.258228,-3.774678,4.236493,-0.020159,-0.000458,0.095448,32.29,64.9874774659332
6722,-8.277372,-3.77408,4.237091,-0.019395,-0.011606,0.096517,32.29,65.0258238389231
6732,-8.287541,-3.768696,4.238287,-0.019242,-0.022907,0.0956,32.25,65.036557062223
6742,-8.304291,-3.754937,4.237689,-0.020159,-0.035888,0.092852,32.25,65.0626784299078
6752,-8.320443,-3.744768,4.256832,-0.020464,-0.047953,0.088117,32.23,64.9891914918212
6762,-8.318049,-3.742374,4.267599,-0.025045,-0.07254,0.076664,32.23,64.9260605130585
6772,-8.325827,-3.739982,4.273581,-0.028558,-0.084147,0.06857,32.23,64.9099857448227
6782,-8.321639,-3.729214,4.283751,-0.032376,-0.095448,0.059254,32.24,64.8377634445219
6792,-8.335996,-3.71725,4.296911,-0.036499,-0.104916,0.050855,32.24,64.789973875371
6802,-8.337193,-3.72383,4.315455,-0.041081,-0.113163,0.040928,32.25,64.7039124045002
6812,-8.315658,-3.718446,4.320839,-0.045509,-0.120035,0.031612,32.25,64.6231718072964
6822,-8.303095,-3.716054,4.34058,-0.050244,-0.12538,0.021838,32.23,64.4914636898775
6832,-8.29472,-3.71067,4.353741,-0.05452,-0.12874,0.012217,32.23,64.3998158516416
6842,-8.279764,-3.70409,4.357928,-0.060018,-0.13042,0.003512,32.2,64.3381199239856
6852,-8.257631,-3.714857,4.368098,-0.063835,-0.130572,-0.003207,32.2,64.2469124482136
6862,-8.23789,-3.703491,4.374678,-0.067348,-0.12874,-0.009468,32.26,64.1568524343903
6872,-8.229516,-3.696313,4.385446,-0.070708,-0.124769,-0.01405,32.26,64.075154013811
6882,-8.201998,-3.68734,4.397409,-0.072998,-0.118966,-0.017715,32.24,63.9415593786824
6892,-8.181061,-3.697509,4.398606,-0.074526,-0.110567,-0.018784,32.24,63.8978632033368
6902,-8.177471,-3.684947,4.408178,-0.075747,-0.101556,-0.019242,32.21,63.8272966221153
6912,-8.145766,-3.685545,4.413561,-0.075747,-0.090408,-0.017715,32.21,63.7269196941054
6922,-8.108678,-3.681358,4.413561,-0.073915,-0.07926,-0.013744,32.27,63.6363088911818
6932,-8.097312,-3.688536,4.434498,-0.072693,-0.052534,-0.004276,32.27,63.5093202350573
6942,-8.087142,-3.698706,4.427918,-0.066737,-0.038026,0.003207,32.26,63.5303485435252
6952,-8.090134,-3.685545,4.428516,-0.06353,-0.022144,0.010385,32.21,63.5202069417196
6962,-8.090732,-3.68375,4.422534,-0.059865,-0.007025,0.018937,32.21,63.5505904376589
6972,-8.085946,-3.695116,4.424329,-0.055436,0.008705,0.027336,32.25,63.5422495154094
6982,-8.102098,-3.68734,4.414758,-0.051007,0.023824,0.035277,32.25,63.6211245032466
6992,-8.103892,-3.688536,4.426124,-0.047953,0.038485,0.042761,32.24,63.567898980432
7002,-8.11466,-3.677171,4.419543,-0.044593,0.052382,0.049633,32.24,63.6149421080732
7012,-8.14457,-3.691527,4.400401,-0.041539,0.064904,0.055283,32.23,63.7982682566919
7022,-8.173882,-3.696313,4.399803,-0.038943,0.076664,0.059254,32.23,63.8739520776453
7032,-8.179864,-3.705286,4.391428,-0.037874,0.086896,0.062614,32.23,63.9401442844585
7042,-8.215158,-3.708277,4.384848,-0.037263,0.094531,0.062461,32.23,64.0577858584284
7052,-8.233703,-3.708277,4.373481,-0.038179,0.100029,0.061392,32.25,64.1583883178949
7062,-8.255836,-3.713063,4.375276,-0.039554,0.103542,0.058185,32.25,64.2041949941223
7072,-8.286345,-3.715455,4.359723,-0.042761,0.104458,0.052382,32.22,64.3551537681463
7082,-8.297112,-3.719045,4.348955,-0.046731,0.103236,0.045051,32.22,64.4381213527869
7092,-8.327023,-3.728018,4.319045,-0.050702,0.099266,0.03543,32.28,64.6671180846239
7102,-8.347363,-3.728018,4.313661,-0.055283,0.085827,0.014355,32.28,64.7397318763213
7112,-8.36471,-3.718446,4.302295,-0.067653,0.076511,0.002443,32.22,64.8268451777654
7122,-8.362915,-3.736991,4.285545,-0.073304,0.065363,-0.00901,32.23,64.9269745532165
7132,-8.359925,-3.726821,4.281956,-0.080634,0.054214,-0.020922,32.23,64.9288864640829
7142,-8.365907,-3.738187,4.274778,-0.085674,0.041081,-0.032987,32.23,64.9899686721922
7152,-8.34796,-3.734598,4.27059,-0.090866,0.027642,-0.043371,32.23,64.9686767839156
7162,-8.340781,-3.743571,4.244868,-0.096517,0.012981,-0.052382,32.26,65.0942224998099
7172,-8.319246,-3.753142,4.237689,-0.101251,-0.000611,-0.060781,32.26,65.0936250993271
7182,-8.297711,-3.764508,4.235296,-0.103847,-0.014203,-0.065973,32.25,65.0701349040922
7192,-8.28455,-3.762714,4.222734,-0.107207,-0.027642,-0.068875,32.25,65.1045631904742
7202,-8.274979,-3.772285,4.226922,-0.108123,-0.040775,-0.070555,32.24,65.0714411975462
7215,-8.252247,-3.77408,4.222734,-0.107818,-0.052993,-0.068875,32.24,65.0450873627015
7222,-8.22772,-3.775276,4.214359,-0.107207,-0.06521,-0.066584,32.24,65.0358799758802
7232,-8.203793,-3.777669,4.216154,-0.103694,-0.074526,-0.060628,32.24,64.9762068709286
7242,-8.181061,-3.773481,4.216752,-0.098807,-0.083536,-0.051924,32.22,64.9185152815254
7252,-8.168499,-3.772883,4.22752,-0.094226,-0.091019,-0.043066,32.22,64.8338294090617
7262,-8.146963,-3.781258,4.236493,-0.088423,-0.097433,-0.031765,32.24,64.7476584926342
7272,-8.121839,-3.774678,4.237689,-0.080787,-0.101098,-0.004581,32.24,64.6783531559435
7282,-8.105088,-3.781856,4.255635,-0.064446,-0.105985,0.009316,32.24,64.5544433862827
7292,-8.106883,-3.77049,4.273581,-0.055283,-0.107054,0.023518,32.22,64.4528674500164
7302,-8.107481,-3.77049,4.268198,-0.045357,-0.10568,0.038179,32.22,64.482305420572
7312,-8.109874,-3.77408,4.281358,-0.036499,-0.104,0.052076,32.23,64.4228579953574
7322,-8.111669,-3.767499,4.291527,-0.027489,-0.101709,0.065515,32.23,64.3670214307882
7332,-8.129017,-3.765705,4.313063,-0.019853,-0.098044,0.077274,32.21,64.2924847842897
7342,-8.135597,-3.762714,4.325027,-0.011759,-0.09331,0.087659,32.21,64.2422004522503
7352,-8.153543,-3.759125,4.338188,-0.005192,-0.08827,0.09499,32.2,64.2110181074932
7362,-8.15773,-3.75733,4.354339,0.000611,-0.082009,0.101556,32.2,64.1351607377188
7372,-8.184649,-3.74716,4.363312,0.004887,-0.076816,0.105527,32.23,64.139435811506
7382,-8.196614,-3.735795,4.381258,0.007636,-0.07025,0.108123,32.23,64.062436394028
7392,-8.225926,-3.735196,4.383651,0.008858,-0.06353,0.108734,32.25,64.1161256562939
7402,-8.230712,-3.741776,4.404588,0.010079,-0.057269,0.104916,32.25,64.0264189707896
7412,-8.246863,-3.726223,4.398008,0.007636,-0.051465,0.099418,32.23,64.0807791882464
7422,-8.263015,-3.725027,4.405187,0.005192,-0.045968,0.094073,32.23,64.0794325580771
7432,-8.283354,-3.722036,4.430311,0.002902,-0.039554,0.085674,32.24,63.9942291679723
7442,-8.289336,-3.706482,4.430909,-0.002138,-0.034667,0.076205,32.24,63.9889353826317
7452,-8.298308,-3.716652,4.430909,-0.014966,-0.026267,0.053756,32.25,64.0195988321528
7462,-8.305488,-3.702295,4.4339,-0.022602,-0.021838,0.043066,32.26,64.0061039453342
7472,-8.292925,-3.702295,4.429115,-0.030391,-0.017868,0.030391,32.26,64.0019790185751
7482,-8.285748,-3.711268,4.427918,-0.03879,-0.013134,0.020464,32.25,64.000898963345
7492,-8.270791,-3.71067,4.425525,-0.045968,-0.009316,0.008705,32.25,63.9785247016408
7502,-8.255836,-3.715455,4.424927,-0.054825,-0.00504,-0.000764,32.24,63.9524453528701
7512,-8.248658,-3.699902,4.426124,-0.062614,0.000458,-0.008705,32.24,63.9140263473446
7522,-8.238488,-3.705286,4.412365,-0.069028,0.005498,-0.015882,32.24,63.9667324648534
7532,-8.235497,-3.70409,4.409374,-0.075747,0.011301,-0.022144,32.24,63.9740019553492
7542,-8.217552,-3.705286,4.412963,-0.083078,0.016341,-0.025656,32.23,63.9158354087142
7552,-8.210971,-3.707679,4.406384,-0.08827,0.023366,-0.0281,32.23,63.9369969959922
7562,-8.187043,-3.711866,4.389035,-0.091477,0.029932,-0.029474,32.24,63.9757441212088
7572,-8.170892,-3.706482,4.383053,-0.09499,0.036041,-0.029169,32.24,63.963959717923
7582,-8.161918,-3.711866,4.374678,-0.096975,0.043524,-0.027031,32.24,63.9921921980929
7592,-8.154141,-3.718446,4.367499,-0.098197,0.049786,-0.02474,32.24,64.0183087024391
7602,-8.152347,-3.727419,4.354938,-0.097738,0.057421,-0.019548,32.23,64.0885023412942
7612,-8.140981,-3.722036,4.329813,-0.097738,0.063225,-0.015424,32.23,64.1870567719478
7622,-8.165507,-3.724428,4.325625,-0.0956,0.072082,-0.003818,32.24,64.2670943948281
7632,-8.160722,-3.733402,4.311867,-0.089492,0.075747,0.002138,32.27,64.336857825595
7642,-8.180463,-3.723232,4.304688,-0.085827,0.078191,0.008247,32.27,64.4082669619525
7652,-8.183454,-3.726223,4.281358,-0.081092,0.079107,0.013134,32.26,64.5391639354642
7662,-8.19781,-3.722036,4.269393,-0.076511,0.07758,0.018326,32.26,64.6293036548792
7672,-8.201998,-3.727419,4.267599,-0.071777,0.074831,0.023213,32.23,64.653492750115
7682,-8.228318,-3.723232,4.252644,-0.066584,0.069639,0.027031,32.23,64.7857132478507
7692,-8.234302,-3.725625,4.246662,-0.061392,0.063225,0.029932,32.26,64.8325028900966
7702,-8.245667,-3.736392,4.231707,-0.056352,0.055589,0.032987,32.26,64.946182408363
7712,-8.256434,-3.72383,4.22752,-0.050549,0.045204,0.035125,32.23,64.979179165828
7722,-8.280362,-3.725027,4.214359,-0.045662,0.034056,0.035736,32.23,65.1014470915843
7732,-8.287541,-3.721437,4.204189,-0.041692,0.020769,0.035277,32.25,65.1664787435273
7742,-8.307282,-3.722036,4.206582,-0.037721,0.00672,0.035277,32.25,65.1978806880936
7752,-8.309077,-3.726821,4.205984,-0.034667,-0.008094,0.035125,32.25,65.2095959132711
7762,-8.312068,-3.72383,4.205984,-0.03146,-0.024282,0.033903,32.25,65.2132019750957
7772,-8.312666,-3.731607,4.211967,-0.029169,-0.039401,0.031307,32.28,65.1911192018027
7782,-8.315059,-3.735795,4.228117,-0.027489,-0.055131,0.029474,32.28,65.1168594486245
7792,-8.30788,-3.727419,4.232903,-0.026878,-0.070097,0.024129,32.23,65.0681258429313
7802,-8.297711,-3.721437,4.246662,-0.027184,-0.097891,0.023213,32.2,64.9686812798979
7812,-8.288737,-3.725625,4.256832,-0.027642,-0.110261,0.02138,32.2,64.9004360227235
7822,-8.276773,-3.726223,4.268795,-0.027947,-0.120951,0.019853,32.24,64.8127115595329
7832,-8.272586,-3.73041,4.277769,-0.029627,-0.130572,0.017868,32.24,64.7612359972614
7842,-8.25464,-3.732205,4.290929,-0.031765,-0.137292,0.016646,32.23,64.6551336052786
7852,-8.234302,-3.731009,4.301697,-0.034972,-0.141873,0.014355,32.23,64.5528396788662
7862,-8.231908,-3.731009,4.333402,-0.037568,-0.14447,0.013744,32.25,64.3838297726737
7872,-8.217552,-3.736991,4.338188,-0.039859,-0.145844,0.012675,32.25,64.3329277686346
7882,-8.204391,-3.720839,4.35733,-0.043219,-0.143859,0.010996,32.23,64.1878641748433
7892,-8.193623,-3.734598,4.365705,-0.045815,-0.139735,0.010232,32.23,64.1344565290786
7902,-8.177471,-3.720241,4.378866,-0.047953,-0.133627,0.01069,32.24,64.014919985761
7912,-8.166704,-3.728018,4.400401,-0.050396,-0.125686,0.009927,32.24,63.8874797116755
7922,-8.161918,-3.732804,4.406981,-0.053451,-0.114995,0.009316,32.24,63.847659826854
7932,-8.149954,-3.732205,4.422534,-0.056352,-0.103542,0.009468,32.24,63.7395190733719
7942,-8.148758,-3.729214,4.432106,-0.057574,-0.090408,0.010232,32.24,63.6844099052129
7952,-8.13799,-3.725027,4.435097,-0.057879,-0.076664,0.010079,32.24,63.6397022027921
7962,-8.148159,-3.726821,4.432704,-0.060018,-0.062919,0.010232,32.24,63.6774239562296
7972,-8.148758,-3.73041,4.43749,-0.062461,-0.03375,0.011606,32.24,63.6580243496407
7982,-8.160124,-3.728018,4.4339,-0.062461,-0.019242,0.011606,32.21,63.7001768060313
7992,-8.152347,-3.713661,4.434498,-0.062919,-0.006109,0.011454,32.26,63.6640012156168
8002,-8.172088,-3.720241,4.442276,-0.063835,0.006872,0.011912,32.26,63.6766373408782
8012,-8.180463,-3.726821,4.424329,-0.063225,0.018173,0.011301,32.25,63.7948703091575
8022,-8.191828,-3.735196,4.417151,-0.063225,0.028711,0.012065,32.25,63.8665196738657
8032,-8.192427,-3.732804,4.406981,-0.063225,0.037874,0.011454,32.21,63.9175842594686
8042,-8.194819,-3.724428,4.402196,-0.063988,0.045509,0.011301,32.21,63.9389101480545
8052,-8.212168,-3.732804,4.386044,-0.063072,0.051924,0.010996,32.24,64.0701254791176
8062,-8.2349,-3.731009,4.38724,-0.063835,0.05681,0.010079,32.24,64.1137524525452
8072,-8.22772,-3.722634,4.37408,-0.063835,0.060323,0.009163,32.22,64.1564396197955
8082,-8.22473,-3.725027,4.371687,-0.063835,0.062919,0.008247,32.22,64.164415526602
8092,-8.244471,-3.735196,4.365107,-0.064294,0.063835,0.007636,32.19,64.2532910727518
8102,-8.255836,-3.724428,4.351348,-0.065363,0.064294,0.006109,32.19,64.3386218462309
8112,-8.26481,-3.731009,4.343571,-0.065821,0.063072,0.005803,32.23,64.4054333957021
8122,-8.249256,-3.736392,4.339384,-0.065515,0.062308,0.005192,32.23,64.3975127779622
8132,-8.253444,-3.74716,4.32742,-0.066584,0.060018,0.004276,32.21,64.4794224633684
8142,-8.252846,-3.744768,4.306482,-0.066584,0.053451,0.002749,32.21,64.5835461582712
8152,-8.233703,-3.751348,4.307679,-0.065668,0.049938,0.003512,32.23,64.541285244317
8162,-8.24148,-3.746562,4.290331,-0.064446,0.046273,0.003818,32.21,64.6433945420046
8172,-8.230114,-3.753741,4.281956,-0.063072,0.041692,0.003818,32.21,64.6686551560325
8182,-8.23131,-3.758526,4.265805,-0.062156,0.03711,0.004123,32.21,64.7597975322709
8192,-8.225328,-3.762714,4.271188,-0.06017,0.032834,0.005345,32.21,64.7228709721339
8202,-8.212168,-3.753741,4.262814,-0.058338,0.0281,0.007025,32.25,64.7278547647722
8212,-8.221739,-3.762115,4.259224,-0.055589,0.023213,0.00901,32.25,64.7762910859809
8222,-8.207382,-3.760919,4.258626,-0.053451,0.018326,0.012217,32.23,64.7462483953507
8232,-8.19781,-3.765705,4.256832,-0.050244,0.013592,0.014813,32.23,64.7391393524716
8242,-8.202596,-3.760919,4.243073,-0.047953,0.007636,0.018479,32.25,64.816408917752
8252,-8.204391,-3.759723,4.245465,-0.04444,0.002291,0.021838,32.25,64.8067441242959
8262,-8.202596,-3.764508,4.243671,-0.041386,-0.00336,0.02474,32.2,64.8169581327297
8272,-8.201998,-3.760321,4.240082,-0.038332,-0.010079,0.028405,32.2,64.8300257731265
8282,-8.198408,-3.76391,4.252644,-0.035125,-0.015577,0.032834,32.26,64.7603942174394
8292,-8.202596,-3.753741,4.245465,-0.032987,-0.022449,0.036957,32.26,64.7966587532555
8302,-8.212168,-3.748357,4.256832,-0.031001,-0.029016,0.041081,32.23,64.753426896083
8312,-8.230114,-3.751946,4.258028,-0.029016,-0.03543,0.0478,32.23,64.790779857115
8322,-8.233703,-3.746562,4.262814,-0.027336,-0.048106,0.050396,32.23,64.7684947946175
8332,-8.236693,-3.743571,4.261617,-0.025962,-0.054367,0.053298,32.24,64.778321357174
8342,-8.254042,-3.738187,4.283751,-0.025351,-0.059865,0.054214,32.24,64.696919676555
8352,-8.258228,-3.723232,4.285545,-0.026267,-0.066432,0.053451,32.28,64.6819198562264
8362,-8.263614,-3.729812,4.293322,-0.027794,-0.072388,0.053756,32.28,64.6603679213932
8372,-8.273782,-3.722634,4.302295,-0.029322,-0.077274,0.053298,32.26,64.6295299148378
8382,-8.278568,-3.718446,4.307679,-0.031154,-0.082314,0.052534,32.26,64.6082551162781
8392,-8.273185,-3.708875,4.325625,-0.032987,-0.087201,0.049786,32.28,64.4941910151326
8402,-8.28156,-3.703491,4.311268,-0.034972,-0.091477,0.046273,32.28,64.5814776224644
8412,-8.263614,-3.704688,4.328018,-0.037263,-0.096059,0.042608,32.23,64.4561845383023
8422,-8.275578,-3.693322,4.342375,-0.039859,-0.098502,0.038485,32.23,64.3977676588054
8432,-8.27139,-3.693322,4.346562,-0.042455,-0.10064,0.034667,32.24,64.3668115289392
8442,-8.268398,-3.690331,4.353143,-0.04444,-0.101556,0.029627,32.24,64.3232252714488
8452,-8.255836,-3.686144,4.36391,-0.047037,-0.101709,0.025045,32.23,64.2352586646352
8462,-8.251051,-3.684947,4.371089,-0.04948,-0.099571,0.020311,32.23,64.1863050467347
8472,-8.240881,-3.695116,4.381856,-0.051313,-0.097891,0.014966,32.25,64.1182337735468
8482,-8.222337,-3.684349,4.387838,-0.052382,-0.094531,0.01069,32.25,64.0342425497144
8492,-8.212168,-3.685545,4.398606,-0.05452,-0.082314,0.003054,32.25,63.9568685491795
8502,-8.213365,-3.672385,4.412365,-0.054825,-0.075136,-0.001527,32.2,63.8754227535039
8512,-8.182856,-3.690331,4.41057,-0.055131,-0.066279,-0.002443,32.2,63.8329942175913
8522,-8.183454,-3.699902,4.415954,-0.054978,-0.057421,-0.004581,32.21,63.8166499808421
8532,-8.176275,-3.699304,4.418347,-0.054214,-0.046884,-0.005192,32.21,63.7871947228835
8542,-8.158329,-3.690331,4.429115,-0.053756,-0.035888,-0.005956,32.21,63.6809937708226
8552,-8.152946,-3.705884,4.425525,-0.053298,-0.023366,-0.006109,32.21,63.7033165058714
8562,-8.148758,-3.703491,4.419543,-0.051924,-0.010843,-0.006109,32.23,63.7218852431768
8572,-8.140981,-3.705884,4.42732,-0.052076,0.002138,-0.004581,32.23,63.6663790089791
8582,-8.146963,-3.705884,4.423731,-0.051007,0.014508,-0.001527,32.24,63.6986995231265
8592,-8.142776,-3.721437,4.423731,-0.051007,0.027336,0,32.24,63.7054178443368
8602,-8.151151,-3.722036,4.423133,-0.050855,0.039095,0.001069,32.2,63.7284724474188
8612,-8.150552,-3.720241,4.408776,-0.050702,0.049938,0.003207,32.2,63.7990654830659
8622,-8.16132,-3.731607,4.409374,-0.051771,0.059865,0.00504,32.25,63.8327201998687
8632,-8.170293,-3.728616,4.394419,-0.05284,0.069333,0.007025,32.25,63.9271220020046
8642,-8.19123,-3.733402,4.385446,-0.054062,0.077885,0.007483,32.29,64.0261415885746
8652,-8.193025,-3.738187,4.36391,-0.054978,0.084147,0.008858,32.29,64.1460647498773
8662,-8.215756,-3.735795,4.349553,-0.057269,0.092241,0.010232,32.23,64.2690695288355
8672,-8.233105,-3.74716,4.341777,-0.062461,0.092852,0.009163,32.25,64.3598861197397
8682,-8.240283,-3.744169,4.325027,-0.064752,0.091783,0.007941,32.25,64.4592256283627
8692,-8.257033,-3.755535,4.314857,-0.066279,0.089492,0.006261,32.23,64.5606338095998
8702,-8.273782,-3.757928,4.298706,-0.069333,0.084758,0.004123,32.23,64.6835172234759
8712,-8.280362,-3.755535,4.279563,-0.071777,0.078343,0.003054,32.19,64.7943781669232
8722,-8.285748,-3.762115,4.275376,-0.07422,0.071013,-0.000916,32.19,64.834468856087
8732,-8.291729,-3.755535,4.254438,-0.075136,0.061239,-0.003207,32.22,64.9491507923998
8742,-8.300103,-3.761517,4.241877,-0.077122,0.049175,-0.005956,32.22,65.0383838358551
8752,-8.302496,-3.765106,4.238885,-0.077427,0.037568,-0.008858,32.27,65.0626482681811
8762,-8.304291,-3.753741,4.22752,-0.078649,0.023366,-0.012065,32.27,65.1140834250971
8772,-8.304291,-3.756134,4.222135,-0.078343,0.008858,-0.014966,32.21,65.1443143507951
8782,-8.297711,-3.772285,4.219743,-0.078496,-0.00504,-0.016952,32.21,65.1583195665092
8792,-8.296515,-3.775874,4.211967,-0.076816,-0.020006,-0.017562,32.21,65.1995360765331
8802,-8.286345,-3.767499,4.21735,-0.076053,-0.035888,-0.018021,32.21,65.1411434976812
8812,-8.273782,-3.769294,4.222135,-0.073151,-0.050396,-0.018631,32.29,65.0906406902392
8822,-8.259426,-3.76391,4.223332,-0.07086,-0.063225,-0.017257,32.29,65.0475552444073
8832,-8.242078,-3.762115,4.225725,-0.068264,-0.075136,-0.011759,32.22,64.9951571287188
8842,-8.225328,-3.763312,4.240082,-0.060018,-0.095448,-0.009621,32.22,64.8848042402676
8852,-8.20798,-3.755535,4.248456,-0.056505,-0.102778,-0.003818,32.22,64.7949150542061
8862,-8.193623,-3.762714,4.258626,-0.051618,-0.108734,0.002443,32.25,64.7174260003959
8872,-8.184052,-3.754339,4.266403,-0.046884,-0.111788,0.009163,32.25,64.6470459092799
8882,-8.175079,-3.756134,4.276572,-0.042608,-0.113468,0.015882,32.25,64.5759499747976
8892,-8.145168,-3.748357,4.298706,-0.037568,-0.113163,0.024129,32.25,64.385498127139
8902,-8.151151,-3.746562,4.316054,-0.032681,-0.110872,0.032376,32.22,64.307125031985
8912,-8.142776,-3.760321,4.322634,-0.028253,-0.107207,0.040928,32.22,64.2683895138772
8922,-8.132008,-3.74058,4.331607,-0.023671,-0.101862,0.049327,32.21,64.1766820857773
8932,-8.133802,-3.741179,4.351946,-0.019242,-0.0956,0.058032,32.21,64.076020794639
8942,-8.138588,-3.744169,4.35733,-0.01573,-0.08827,0.065821,32.27,64.0622455767626
8952,-8.136793,-3.744169,4.373481,-0.012828,-0.079718,0.072693,32.27,63.974658361561
8962,-8.151151,-3.737589,4.378866,-0.009927,-0.070708,0.079107,32.25,63.9728250822444
8972,-8.148159,-3.732205,4.382454,-0.00733,-0.060934,0.083994,32.25,63.9418011138539
8982,-8.16132,-3.728616,4.394419,-0.006109,-0.05116,0.087506,32.28,63.9065488752019
8992,-8.177471,-3.725027,4.396811,-0.004734,-0.041539,0.090408,32.28,63.9275089359072
9002,-8.201998,-3.715455,4.409972,-0.004734,-0.032223,0.091783,32.23,63.9060962701452
9012,-8.230712,-3.713063,4.412963,-0.007941,-0.015272,0.088423,32.23,63.9539210326022
9022,-8.245069,-3.707081,4.41416,-0.011148,-0.008705,0.083383,32.23,63.974389687359
9032,-8.252247,-3.702893,4.417749,-0.014813,-0.001833,0.077733,32.22,63.9681002742126
9042,-8.275578,-3.697509,4.416552,-0.018937,0.003818,0.07086,32.22,64.0218299336758
9052,-8.27139,-3.708277,4.412365,-0.024282,0.008552,0.062766,32.21,64.0446560465332
9062,-8.277372,-3.706482,4.40399,-0.030543,0.012675,0.053909,32.21,64.0992026716748
9072,-8.290532,-3.7005,4.41057,-0.037415,0.014813,0.044135,32.23,64.0893391005062
9082,-8.291729,-3.691527,4.405187,-0.043371,0.017104,0.03375,32.23,64.1104834296804
9092,-8.300702,-3.694518,4.399803,-0.051465,0.017715,0.022144,32.24,64.1613037049755
9102,-8.286943,-3.687938,4.396214,-0.058032,0.01741,0.010537,32.24,64.1418948104945
9112,-8.310272,-3.692724,4.378268,-0.065668,0.016952,0.000458,32.24,64.2911642028336
9122,-8.291131,-3.706482,4.374678,-0.073151,0.016341,-0.009163,32.24,64.2802519489088
9132,-8.282157,-3.705286,4.37408,-0.079565,0.015577,-0.017104,32.23,64.2618885495478
9142,-8.274979,-3.702295,4.365705,-0.08491,0.014661,-0.025504,32.23,64.2856244739802
9152,-8.273185,-3.707081,4.355535,-0.089797,0.01405,-0.032681,32.21,64.3386092925998
9162,-8.249854,-3.708277,4.35733,-0.095142,0.013439,-0.037415,32.21,64.2779813553982
9172,-8.222935,-3.704688,4.34417,-0.099266,0.012675,-0.041692,32.23,64.281202783998
9182,-8.210373,-3.719045,4.331607,-0.102014,0.012523,-0.044593,32.23,64.3322834715839
9192,-8.192427,-3.717848,4.324429,-0.105527,0.012981,-0.044135,32.2,64.3275533542594
9202,-8.184649,-3.714259,4.319643,-0.106291,0.014355,-0.041997,32.26,64.3310154591347
9216,-8.166704,-3.722634,4.316054,-0.10568,0.015577,-0.039554,32.26,64.3175585973294
9222,-8.169096,-3.728616,4.304688,-0.103084,0.017257,-0.032834,32.23,64.3881102934814
9232,-8.158927,-3.727419,4.302894,-0.099724,0.018937,-0.026725,32.23,64.3731606709223
9242,-8.158927,-3.722036,4.295117,-0.096059,0.020617,-0.021228,32.26,64.4079939503151
9252,-8.148758,-3.726821,4.297509,-0.091477,0.021228,-0.013592,32.26,64.3774712597179
9262,-8.149954,-3.747759,4.290331,-0.086285,0.02306,-0.004734,32.18,64.439221580409
9272,-8.154739,-3.729812,4.282554,-0.080023,0.023518,0.003054,32.18,64.4718810386649
9282,-8.164311,-3.733402,4.268795,-0.072846,0.022144,0.010996,32.21,64.5687736836849
9292,-8.1679,-3.741179,4.263412,-0.066584,0.021838,0.018021,32.21,64.6128658053205
9302,-8.17149,-3.739982,4.27059,-0.060018,0.019548,0.025351,32.21,64.5823513960956
9312,-8.185248,-3.735196,4.25384,-0.053451,0.016646,0.03207,32.21,64.6954538879358
9322,-8.203793,-3.745365,4.249055,-0.045968,0.012217,0.038332,32.23,64.7721326694466
9332,-8.212766,-3.748357,4.253242,-0.040775,0.006567,0.041539,32.23,64.773401772611
9342,-8.233703,-3.741776,4.246064,-0.034972,-0.000305,0.046578,32.24,64.8505425550619
9352,-8.242078,-3.739982,4.245465,-0.029627,-0.007941,0.050396,32.24,64.8704166774718
9362,-8.26481,-3.748955,4.238885,-0.022907,-0.025656,0.051924,32.22,64.963784635981
9372,-8.2678,-3.738786,4.246662,-0.020311,-0.035736,0.051465,32.22,64.9199248645277
9382,-8.27139,-3.737589,4.25384,-0.0197,-0.046273,0.050244,32.22,64.889496040711
9392,-8.280961,-3.735196,4.25384,-0.018784,-0.056047,0.048411,32.24,64.9082536761506
9402,-8.286943,-3.735196,4.261617,-0.0197,-0.066737,0.045662,32.24,64.8812557837421
9412,-8.277969,-3.742374,4.27717,-0.021075,-0.076511,0.043371,32.22,64.7882429660197
9422,-8.279166,-3.735795,4.289135,-0.023518,-0.085979,0.039554,32.22,64.722566262291
9432,-8.276773,-3.734598,4.3005,-0.026573,-0.094684,0.036346,32.23,64.6574509596887
9442,-8.278568,-3.737589,4.309474,-0.030085,-0.102778,0.033292,32.23,64.6182222589424
9452,-8.267202,-3.728018,4.314857,-0.034514,-0.108581,0.029322,32.21,64.5555150228347
9462,-8.257033,-3.723232,4.325625,-0.040164,-0.113316,0.025962,32.21,64.4724524874583
9472,-8.260024,-3.728018,4.339384,-0.044593,-0.116523,0.022449,32.24,64.4131891005973
9482,-8.246264,-3.723232,4.354938,-0.049786,-0.117133,0.019548,32.24,64.2973837012897
9492,-8.231908,-3.724428,4.365107,-0.055589,-0.116523,0.017104,32.24,64.2138885168761
9502,-8.222337,-3.727419,4.383651,-0.061545,-0.113163,0.012981,32.24,64.0999715774573
9512,-8.210373,-3.722634,4.401597,-0.065821,-0.109803,0.011606,32.25,63.9756595728712
9522,-8.192427,-3.734598,4.411169,-0.070555,-0.102625,0.010079,32.25,63.8979577140554
9532,-8.183454,-3.728616,4.425525,-0.079107,-0.086285,0.008399,32.22,63.7974854900428
9542,-8.173284,-3.726821,4.42074,-0.082772,-0.0759,0.00672,32.22,63.7967901085844
9552,-8.173284,-3.726821,4.429115,-0.084758,-0.064446,0.007178,32.22,63.7538024826884
9562,-8.169695,-3.726223,4.44407,-0.085827,-0.052229,0.006261,32.21,63.6682097436452
9572,-8.160124,-3.721437,4.432106,-0.086743,-0.039248,0.005498,32.21,63.702453530916
9582,-8.158329,-3.732804,4.430311,-0.087048,-0.025504,0.007178,32.2,63.7195078339729
9592,-8.152946,-3.736392,4.427918,-0.086285,-0.013134,0.006567,32.2,63.7231743919019
9602,-8.147561,-3.732804,4.424329,-0.085063,0.000916,0.007483,32.28,63.7254052574917
9612,-8.15773,-3.733402,4.421339,-0.08262,0.012981,0.007483,32.28,63.7648416808377
9622,-8.155936,-3.734,4.414758,-0.079412,0.025809,0.00901,32.21,63.7951698821659
9632,-8.155936,-3.74058,4.400999,-0.076358,0.037263,0.009468,32.21,63.8728825343288
9642,-8.172686,-3.725027,4.393821,-0.073151,0.047342,0.011912,32.25,63.9319327002943
9652,-8.1679,-3.731607,4.385446,-0.06918,0.055894,0.013439,32.25,63.9709766172441
9662,-8.179267,-3.729214,4.377071,-0.065363,0.062766,0.013897,32.22,64.0376079632803
9672,-8.176275,-3.738786,4.355535,-0.061087,0.068722,0.016493,32.22,64.1518071294373
9682,-8.19123,-3.735795,4.35075,-0.056963,0.072846,0.018631,32.22,64.2073638778867
9692,-8.206185,-3.738786,4.324429,-0.053756,0.075595,0.021228,32.22,64.3801478845713
9702,-8.222935,-3.741179,4.311268,-0.047189,0.076511,0.027489,32.21,64.4882568942311
9712,-8.227122,-3.748357,4.289733,-0.045204,0.07422,0.028863,32.21,64.6162681642239
9722,-8.228318,-3.739982,4.292126,-0.043371,0.069944,0.031001,32.21,64.5980450473624
9732,-8.239684,-3.74716,4.278965,-0.04215,0.065057,0.033139,32.21,64.6987714570306
9742,-8.246863,-3.739383,4.273581,-0.041539,0.058032,0.034819,32.21,64.7347464302635
9752,-8.256434,-3.74058,4.262814,-0.041233,0.050091,0.037568,32.23,64.8129321018398
9762,-8.270791,-3.751348,4.267001,-0.042302,0.041386,0.037721,32.23,64.8338765397633
9772,-8.276773,-3.737589,4.263412,-0.043219,0.031765,0.039095,32.26,64.8518858925692
9782,-8.276773,-3.739383,4.256233,-0.045204,0.021075,0.037721,32.26,64.890800510255
9792,-8.292925,-3.745964,4.254438,-0.046884,0.010232,0.037568,32.27,64.9422563925421
9802,-8.28455,-3.746562,4.252644,-0.049786,-0.000458,0.035888,32.27,64.9336783014688
9812,-8.295916,-3.751946,4.253242,-0.052534,-0.011606,0.033292,32.26,64.9609644040987
9822,-8.282157,-3.739383,4.25743,-0.055741,-0.02306,0.030543,32.26,64.8965002022482
9832,-8.282157,-3.736991,4.256832,-0.058796,-0.033598,0.027794,32.24,64.8972084270816
9842,-8.282157,-3.736991,4.258028,-0.061697,-0.044593,0.025045,32.24,64.8910243895237
9852,-8.275578,-3.738786,4.25743,-0.064446,-0.053909,0.021686,32.24,64.8813727019687
9862,-8.2678,-3.748955,4.273581,-0.067501,-0.062919,0.01909,32.24,64.7908544314845
9872,-8.253444,-3.734598,4.278965,-0.06918,-0.077274,0.01237,32.25,64.7167147219204
9882,-8.249854,-3.725027,4.283153,-0.070708,-0.082467,0.010537,32.24,64.6774211538376
9892,-8.229516,-3.728616,4.281358,-0.071624,-0.087659,0.008399,32.24,64.6449236056831
9902,-8.218149,-3.732804,4.290331,-0.070402,-0.090408,0.008247,32.23,64.5772701648459
9912,-8.196015,-3.728616,4.299902,-0.068722,-0.093157,0.00733,32.23,64.4736929131147
9922,-8.198408,-3.729214,4.307679,-0.066584,-0.093768,0.008705,32.24,64.4394175212864
9932,-8.19123,-3.718446,4.304688,-0.064599,-0.094073,0.009468,32.24,64.4276775818832
9942,-8.181659,-3.721437,4.308876,-0.06185,-0.093462,0.011301,32.23,64.387412628447
9952,-8.173284,-3.709473,4.326224,-0.058338,-0.090713,0.013897,32.23,64.2662020020157
9962,-8.176275,-3.71725,4.329813,-0.054672,-0.08659,0.017257,32.23,64.2624431458926
9972,-8.1679,-3.712464,4.335197,-0.051313,-0.082467,0.022755,32.23,64.2105738209792
9982,-8.178668,-3.708277,4.347759,-0.0478,-0.078496,0.027031,32.22,64.1657925457486
9992,-8.166105,-3.704688,4.34417,-0.04444,-0.072235,0.031918,32.22,64.1519837263791
10002,-8.168499,-3.696911,4.360919,-0.040928,-0.065973,0.036194,32.21,64.0627850026685
10012,-8.179267,-3.706482,4.366303,-0.038332,-0.060781,0.040623,32.21,64.0695307404153
10022,-8.17807,-3.691527,4.373481,-0.036346,-0.054214,0.04444,32.22,64.0142705606397
10032,-8.181659,-3.707679,4.376472,-0.034667,-0.047953,0.047342,32.22,64.0237922723663
10042,-8.213962,-3.690929,4.381856,-0.034361,-0.041997,0.05116,32.23,64.0526196496015
10052,-8.218747,-3.695116,4.377669,-0.034972,-0.031154,0.05116,32.25,64.0893685961709
10062,-8.226524,-3.699902,4.396214,-0.036041,-0.025656,0.050091,32.25,64.0167177478136
10072,-8.235497,-3.692126,4.392624,-0.038943,-0.021533,0.047037,32.23,64.0476437278353
10082,-8.233105,-3.699304,4.399803,-0.040928,-0.016799,0.04444,32.23,64.0127010070002
10092,-8.247462,-3.697509,4.394419,-0.044899,-0.013134,0.040928,32.25,64.0711758959115
10102,-8.250452,-3.69392,4.395017,-0.048411,-0.008705,0.036957,32.25,64.0712538968157
10112,-8.258827,-3.70409,4.396811,-0.052534,-0.005651,0.029932,32.23,64.0914490165479
10122,-8.248059,-3.705286,4.395615,-0.056658,-0.002902,0.023824,32.23,64.074337889138
10132,-8.258827,-3.714259,4.396811,-0.060781,0.000611,0.017562,32.22,64.1018099029822
10142,-8.263614,-3.708875,4.398606,-0.064904,0.002902,0.010385,32.22,64.0979903665855
10152,-8.252247,-3.718446,4.395017,-0.06918,0.005956,0.003207,32.27,64.1003513087838
10162,-8.246863,-3.73041,4.380062,-0.073151,0.008705,-0.002138,32.27,64.1770454800332
10172,-8.245069,-3.719643,4.374678,-0.075747,0.011301,-0.007789,32.21,64.1896103220616
10182,-8.232506,-3.718446,4.376472,-0.07926,0.013744,-0.012217,32.21,64.1507102447848
10192,-8.2349,-3.735795,4.365705,-0.081398,0.016952,-0.016188,32.26,64.2292243462201
10202,-8.23131,-3.734,4.352544,-0.083383,0.019853,-0.020159,32.26,64.2869550853643
10212,-8.203793,-3.759125,4.339384,-0.084605,0.022755,-0.021686,32.26,64.3185184429159
10222,-8.199606,-3.750151,4.342973,-0.085827,0.028253,-0.023366,32.26,64.2812878698833
10232,-8.19781,-3.760321,4.339982,-0.085063,0.030696,-0.021686,32.21,64.3031776735116
10242,-8.190632,-3.753741,4.331607,-0.084758,0.032834,-0.0197,32.28,64.3233997286115
10252,-8.189436,-3.759125,4.323831,-0.083383,0.034514,-0.017257,32.28,64.3664499628377
10262,-8.184052,-3.764508,4.307679,-0.081703,0.035888,-0.013439,32.21,64.4434436903815
10272,-8.190034,-3.762714,4.30409,-0.080634,0.036194,-0.009316,32.21,64.4736137839877
10282,-8.198408,-3.764508,4.292724,-0.078802,0.036041,-0.005651,32.24,64.5530911567148
10292,-8.202596,-3.762115,4.292126,-0.076816,0.034667,-0.001527,32.24,64.5631055892132
10302,-8.203793,-3.757928,4.292126,-0.074067,0.032376,0.003054,32.23,64.5614887848282
10312,-8.208578,-3.763312,4.278965,-0.071929,0.029016,0.007025,32.23,64.6458729299417
10322,-8.227122,-3.766303,4.267001,-0.069944,0.025809,0.010537,32.25,64.7521971153454
10332,-8.230114,-3.772883,4.262814,-0.068264,0.020159,0.013592,32.25,64.7872154835491
10342,-8.239087,-3.773481,4.252046,-0.066279,0.013744,0.017104,32.21,64.8634748389636
10352,-8.255239,-3.769892,4.256832,-0.065057,0.00672,0.019395,32.21,64.8707490459354
10362,-8.257033,-3.766303,4.262215,-0.063072,-0.001374,0.021075,32.26,64.8432439584206
10372,-8.25464,-3.773481,4.250251,-0.060934,-0.010843,0.023366,32.26,64.9071095511838
10382,-8.260024,-3.749553,4.24068,-0.058796,-0.020006,0.023366,32.27,64.9445240146646
10392,-8.270791,-3.75075,4.249653,-0.057727,-0.038485,0.025198,32.27,64.9229991356396
10402,-8.258228,-3.747759,4.252046,-0.054978,-0.048869,0.025198,32.27,64.8798669818831
10412,-8.260622,-3.754339,4.248456,-0.052993,-0.058948,0.02642,32.2,64.9103523124674
10422,-8.249854,-3.749553,4.251448,-0.050855,-0.067195,0.0281,32.2,64.8662416486762
10432,-8.242676,-3.744768,4.255037,-0.049633,-0.076816,0.028558,32.21,64.8269186160931
10442,-8.242676,-3.746562,4.261617,-0.047189,-0.084758,0.02978,32.21,64.7946299059972
10452,-8.224131,-3.739982,4.271787,-0.044899,-0.09163,0.031307,32.28,64.6940059670802
10462,-8.228917,-3.737589,4.277769,-0.043219,-0.097128,0.033292,32.28,64.6712650674546
10472,-8.203195,-3.738786,4.274179,-0.040623,-0.101098,0.036041,32.23,64.6335968262273
10482,-8.200802,-3.733402,4.287939,-0.03879,-0.104153,0.039859,32.23,64.5513615875751
10492,-8.204391,-3.725625,4.307081,-0.036652,-0.105527,0.04383,32.25,64.452319236273
10502,-8.188837,-3.725027,4.318447,-0.034667,-0.106138,0.046731,32.25,64.3577658546995
10512,-8.186445,-3.731009,4.33041,-0.033292,-0.104,0.050244,32.25,64.2966274266217
10522,-8.17149,-3.73041,4.348955,-0.031765,-0.100945,0.053603,32.25,64.1661972576943
10532,-8.163115,-3.720839,4.355535,-0.030391,-0.096517,0.057421,32.26,64.1031495383472
10542,-8.163115,-3.720241,4.37408,-0.028253,-0.091324,0.061239,32.26,64.0067552602578
10552,-8.176873,-3.71725,4.398008,-0.027794,-0.083536,0.063835,32.24,63.9118680199324
10562,-8.176275,-3.711866,4.394419,-0.028558,-0.076205,0.067501,32.24,63.9233572052144
10572,-8.175676,-3.702893,4.415356,-0.030085,-0.058338,0.068264,32.23,63.8049299452259
10582,-8.194819,-3.702295,4.418945,-0.031765,-0.048564,0.066279,32.29,63.8299196525978
10592,-8.204391,-3.701099,4.421937,-0.033445,-0.038332,0.064904,32.29,63.8353209799097
10602,-8.213962,-3.703491,4.432704,-0.035583,-0.027947,0.063072,32.24,63.8046071573701
10612,-8.216953,-3.698107,4.423731,-0.038485,-0.018326,0.060323,32.24,63.8518627768189
10622,-8.226524,-3.695116,4.427918,-0.040623,-0.009316,0.054825,32.24,63.8492845501008
10632,-8.234302,-3.701099,4.424329,-0.043982,0,0.04948,32.24,63.8916237097509
10642,-8.246863,-3.686741,4.420142,-0.049175,0.007941,0.04444,32.23,63.9270564731168
10652,-8.252247,-3.694518,4.420142,-0.05284,0.015882,0.038179,32.23,63.9473004250537
10662,-8.254042,-3.702295,4.414758,-0.056658,0.023671,0.030849,32.25,63.9868774379367
10672,-8.260622,-3.699304,4.408776,-0.060476,0.02978,0.024435,32.25,64.0294059414651
10682,-8.258228,-3.715455,4.405785,-0.065057,0.03375,0.016799,32.23,64.0557416970718
10692,-8.256434,-3.696911,4.40399,-0.06857,0.038179,0.00901,32.23,64.0419376652265
10702,-8.257033,-3.702295,4.386044,-0.072388,0.040775,0.00168,32.24,64.1407263818549
10712,-8.279764,-3.698706,4.365705,-0.076358,0.042608,-0.004581,32.24,64.2927963584265
10722,-8.272586,-3.707679,4.363312,-0.079565,0.043371,-0.010537,32.24,64.2979432787069
10732,-8.255239,-3.704688,4.352544,-0.082772,0.04444,-0.016952,32.24,64.3111093844265
10742,-8.256434,-3.713063,4.328018,-0.087965,0.043371,-0.026573,32.25,64.4485039400492
10752,-8.255836,-3.71067,4.322634,-0.089644,0.041081,-0.030391,32.23,64.4724887298949
10762,-8.245069,-3.707679,4.314857,-0.090713,0.037568,-0.032681,32.23,64.4853997899368
10772,-8.233703,-3.724428,4.315455,-0.091935,0.035277,-0.032681,32.23,64.4737484021551
10782,-8.2349,-3.725027,4.302894,-0.092546,0.031918,-0.034667,32.23,64.5419252419777
10792,-8.228917,-3.729214,4.292126,-0.092546,0.028558,-0.034514,32.23,64.5884500715186
10802,-8.22772,-3.746562,4.282554,-0.092088,0.024587,-0.033598,32.23,64.6529256405657
10812,-8.210971,-3.731607,4.285545,-0.091019,0.020922,-0.030238,32.25,64.584755267211
10822,-8.209177,-3.741179,4.271188,-0.089492,0.016035,-0.028405,32.25,64.664936826245
10832,-8.209177,-3.737589,4.261019,-0.087812,0.011148,-0.02474,32.25,64.7140674300441
10842,-8.200203,-3.732804,4.266403,-0.084147,0.007636,-0.019242,32.25,64.6611702947064
10852,-8.193623,-3.74716,4.255037,-0.081398,0.003207,-0.015882,32.24,64.7201730965124
10862,-8.195418,-3.747759,4.262215,-0.07758,-0.001527,-0.010843,32.24,64.6874864338286
10872,-8.196015,-3.753741,4.253242,-0.074526,-0.006872,-0.005345,32.23,64.7415644975474
10882,-8.197212,-3.748955,4.244868,-0.069944,-0.011912,0.000305,32.23,64.7828999652424
10892,-8.200203,-3.751946,4.249055,-0.065668,-0.017257,0.00672,32.22,64.770835481603
10902,-8.189436,-3.754339,4.243073,-0.061239,-0.022297,0.012828,32.22,64.7804070148415
10912,-8.197212,-3.754937,4.252644,-0.056352,-0.032376,0.025198,32.22,64.7485632582769
10922,-8.212168,-3.754937,4.255635,-0.046578,-0.037568,0.030543,32.28,64.7663344263583
10932,-8.209177,-3.759723,4.263412,-0.04215,-0.044288,0.03543,32.28,64.7241860230518
10942,-8.200802,-3.754937,4.258626,-0.037874,-0.049786,0.040775,32.27,64.7254827310108
10952,-8.217552,-3.768696,4.262215,-0.03375,-0.054367,0.045509,32.27,64.758176443141
10962,-8.222935,-3.769294,4.275376,-0.02978,-0.059407,0.048564,32.26,64.702562844739
10972,-8.230114,-3.744768,4.271188,-0.027184,-0.064904,0.051924,32.26,64.715299888386
10982,-8.239684,-3.754937,4.288536,-0.024587,-0.070402,0.054825,32.21,64.6571640143865
10992,-8.243275,-3.747759,4.295117,-0.023366,-0.074678,0.055131,32.21,64.6238830203504
11002,-8.240881,-3.738187,4.311268,-0.020922,-0.077885,0.05681,32.23,64.525435050244
11012,-8.245667,-3.739982,4.306482,-0.020922,-0.082314,0.057116,32.23,64.5626616540004
11022,-8.253444,-3.739982,4.321437,-0.021533,-0.08491,0.056047,32.21,64.5029469014816
11032,-8.255239,-3.739982,4.342973,-0.02306,-0.087354,0.054825,32.21,64.396136250582
11042,-8.255836,-3.728616,4.34058,-0.024893,-0.089492,0.052076,32.25,64.3982396109697
11052,-8.250452,-3.729812,4.356134,-0.027336,-0.090103,0.048411,32.25,64.3073772223523
11062,-8.250452,-3.736392,4.359723,-0.030543,-0.089644,0.045204,32.27,64.2956454838479
11072,-8.246863,-3.726821,4.39083,-0.034972,-0.087659,0.041081,32.27,64.1181660858394
11082,-8.235497,-3.731009,4.396811,-0.038943,-0.086285,0.031612,32.27,64.0660332033183
11092,-8.234302,-3.725027,4.40399,-0.04948,-0.079107,0.026573,32.21,64.0203776276846
11102,-8.232506,-3.715455,4.406384,-0.054825,-0.07422,0.022449,32.21,63.9941769534523
11112,-8.237292,-3.725027,4.417749,-0.060628,-0.068111,0.01909,32.27,63.9567430397184
11122,-8.220542,-3.721437,4.41416,-0.065668,-0.060781,0.014661,32.27,63.9332135915089
11132,-8.206783,-3.717848,4.412365,-0.07086,-0.052076,0.010996,32.26,63.9072519180899
11142,-8.196015,-3.726821,4.421339,-0.075289,-0.042608,0.00672,32.26,63.8458982027477
11152,-8.196015,-3.724428,4.420142,-0.07926,-0.03375,0.004734,32.24,63.8495427364155
11162,-8.194221,-3.725625,4.423731,-0.083536,-0.025198,0.002291,32.24,63.8282739631006
11172,-8.182856,-3.726223,4.421339,-0.085368,-0.014355,0.000611,32.21,63.8150841446911
11182,-8.172088,-3.713063,4.413561,-0.086132,-0.004276,0.000458,32.21,63.8165174121918
11192,-8.167302,-3.71725,4.406981,-0.085216,0.005498,0.000916,32.27,63.8437245025713
11202,-8.164909,-3.721437,4.406384,-0.086132,0.015272,0.000764,32.27,63.8456783999206
11212,-8.162517,-3.735795,4.386044,-0.084758,0.024435,0.001985,32.2,63.9599582108106
11222,-8.159525,-3.728616,4.383053,-0.082772,0.032834,0.003665,32.2,63.9610034942953
11232,-8.166105,-3.731607,4.38066,-0.079871,0.040317,0.005956,32.26,63.9915326185829
11242,-8.1679,-3.734598,4.355535,-0.0759,0.047037,0.009316,32.26,64.1283873049685
11252,-8.173284,-3.729214,4.341179,-0.071929,0.053451,0.012828,32.23,64.2092286607064
11262,-8.176275,-3.735795,4.329215,-0.06353,0.060476,0.018631,32.26,64.284715770319
11272,-8.196614,-3.732205,4.323831,-0.058796,0.063072,0.021991,32.26,64.3548762577866
11282,-8.204391,-3.728018,4.312464,-0.053756,0.063988,0.025809,32.23,64.4269134856345
11292,-8.206783,-3.734598,4.299902,-0.048411,0.063377,0.028253,32.23,64.5040411857962
11302,-8.213962,-3.738187,4.293921,-0.044288,0.061697,0.030238,32.23,64.5547843135428
11312,-8.215158,-3.74058,4.290331,-0.040317,0.057879,0.031765,32.23,64.5784917743605
11322,-8.242078,-3.736991,4.284349,-0.036805,0.053603,0.032987,32.23,64.6659662240748
11332,-8.248059,-3.739982,4.284947,-0.034667,0.048564,0.034361,32.23,64.6792271948929
11342,-8.258827,-3.734598,4.268795,-0.033139,0.041692,0.034819,32.24,64.7812825876448
11352,-8.249854,-3.733402,4.269393,-0.03146,0.03375,0.034514,32.24,64.757048813278
11362,-8.266603,-3.732205,4.266403,-0.032223,0.024435,0.032223,32.26,64.808511460067
11372,-8.267202,-3.746562,4.263412,-0.032529,0.016188,0.03146,32.26,64.8396925934942
11382,-8.278568,-3.74058,4.26401,-0.033445,0.007178,0.030085,32.25,64.8557516891858
11392,-8.271988,-3.732804,4.259224,-0.034667,-0.00168,0.028405,32.25,64.8581787142657
11402,-8.292327,-3.734598,4.265206,-0.037415,-0.011606,0.025198,32.26,64.8740111783446
11412,-8.285149,-3.739383,4.261617,-0.040164,-0.02138,0.023366,32.26,64.8814644344741
11422,-8.28156,-3.737589,4.269393,-0.04383,-0.031154,0.019548,32.25,64.8315679903812
11432,-8.280362,-3.732804,4.261617,-0.048258,-0.049938,0.01405,32.25,64.8643285345634
11442,-8.271988,-3.729812,4.284349,-0.055894,-0.058185,0.010843,32.28,64.7253261816909
11452,-8.272586,-3.723232,4.278965,-0.060323,-0.065515,0.008552,32.24,64.747875209692
11462,-8.255836,-3.725027,4.289135,-0.064294,-0.071624,0.005803,32.24,64.6598395734226
11472,-8.254042,-3.722634,4.292724,-0.067195,-0.078038,0.004276,32.3,64.6348832568509
11482,-8.260024,-3.719643,4.297509,-0.070555,-0.082314,0.00168,32.3,64.6205181831731
11492,-8.231908,-3.718446,4.302894,-0.072235,-0.085521,0.001222,32.23,64.5285414617911
11502,-8.227122,-3.710072,4.310072,-0.073762,-0.087506,0.001222,32.23,64.4721823420985
11512,-8.215756,-3.722036,4.326822,-0.075442,-0.088881,0.000611,32.25,64.3722114460618
11522,-8.210373,-3.714857,4.332206,-0.076053,-0.089339,0.000611,32.25,64.324902769756
11532,-8.206185,-3.717848,4.321437,-0.075747,-0.087506,0.002291,32.2,64.37414371874
11542,-8.192427,-3.716054,4.335794,-0.074678,-0.085368,0.004581,32.2,64.266941085527
11552,-8.185846,-3.720839,4.342375,-0.073304,-0.082467,0.005956,32.22,64.2229249623029
11562,-8.17149,-3.71067,4.34417,-0.069639,-0.078649,0.008399,32.22,64.1704630916674
11572,-8.17448,-3.721437,4.347759,-0.066584,-0.074526,0.011301,32.29,64.1698724094828
11582,-8.170892,-3.715455,4.351946,-0.062766,-0.068111,0.015577,32.29,64.1338533291601
11592,-8.165507,-3.708277,4.362714,-0.059101,-0.062003,0.019395,32.25,64.058456721037
11602,-8.167302,-3.726223,4.359723,-0.054214,-0.055283,0.02642,32.25,64.0966738616344
11612,-8.166105,-3.71725,4.369295,-0.045662,-0.041081,0.029016,32.21,64.0351753878694
11622,-8.172088,-3.720839,4.360919,-0.040775,-0.033445,0.031918,32.24,64.0958198161536
11632,-8.173882,-3.717848,4.374678,-0.036652,-0.026267,0.034972,32.24,64.0258137449667
11642,-8.190034,-3.717848,4.373481,-0.032987,-0.020159,0.037263,32.21,64.0688739509533
11652,-8.192427,-3.716054,4.373481,-0.030085,-0.013592,0.038485,32.21,64.072475468916
11662,-8.195418,-3.724428,4.372883,-0.027794,-0.007178,0.040928,32.23,64.0910374869611
11672,-8.20798,-3.734,4.378866,-0.026878,-0.001833,0.041997,32.23,64.0987314056948
11682,-8.219944,-3.725027,4.382454,-0.025504,0.002596,0.041692,32.24,64.0982205517473
11692,-8.227122,-3.725027,4.381856,-0.025198,0.007178,0.041081,32.24,64.1175938130852
11702,-8.232506,-3.719045,4.371089,-0.02642,0.011301,0.040775,32.2,64.1789821595248
11712,-8.240881,-3.721437,4.37408,-0.028863,0.01405,0.037568,32.2,64.1850339014165
11722,-8.243872,-3.726821,4.375276,-0.031307,0.015424,0.033903,32.22,64.1911666242098
11732,-8.236693,-3.729214,4.37408,-0.034514,0.015882,0.030696,32.22,64.1835140317472
11742,-8.250452,-3.728616,4.365705,-0.03879,0.016646,0.027489,32.24,64.2569967059434
11752,-8.26481,-3.735196,4.370491,-0.043677,0.016646,0.022755,32.24,64.2715018118214
11762,-8.260622,-3.739383,4.35733,-0.048717,0.017257,0.018326,32.26,64.3338586645714
11772,-8.263614,-3.737589,4.355535,-0.054367,0.016646,0.012523,32.26,64.3479715586985
11782,-8.268997,-3.747759,4.362714,-0.064599,0.013592,0.001527,32.23,64.3335648976667
11792,-8.263614,-3.738786,4.347161,-0.070708,0.011912,-0.003665,32.26,64.3921893473196
11802,-8.258827,-3.744768,4.348357,-0.075289,0.010079,-0.008094,32.26,64.3813847709969
11812,-8.252846,-3.748955,4.342973,-0.079412,0.008858,-0.012065,32.25,64.3998997797097
11822,-8.257631,-3.746562,4.342973,-0.083536,0.007483,-0.01573,32.25,64.4081924428424
11832,-8.252846,-3.760321,4.334598,-0.086132,0.005803,-0.019548,32.23,64.4545438658482
11842,-8.234302,-3.752544,4.32742,-0.088881,0.00504,-0.02138,32.23,64.4420279773519
11852,-8.234302,-3.759125,4.319045,-0.089644,0.003818,-0.022755,32.25,64.4919219365318
11862,-8.222935,-3.760321,4.307679,-0.090713,0.003512,-0.024587,32.25,64.5263590693902
11872,-8.210971,-3.748955,4.312464,-0.089186,0.003512,-0.024435,32.25,64.4631747881451
11882,-8.197212,-3.761517,4.311268,-0.08827,0.001985,-0.023213,32.25,64.4513665098108
11892,-8.199606,-3.756134,4.293921,-0.085521,0.001069,-0.021533,32.24,64.5409714877895
11902,-8.197212,-3.757928,4.295117,-0.082009,0.001222,-0.018784,32.24,64.531253398347
11912,-8.190632,-3.760919,4.289135,-0.078343,-0.000153,-0.015424,32.23,64.5505709323691
11922,-8.177471,-3.754339,4.284947,-0.074526,-0.001374,-0.011606,32.23,64.5359811515433
11932,-8.184649,-3.764508,4.286742,-0.068417,-0.001833,-0.006567,32.27,64.5532626228662
11942,-8.170293,-3.752544,4.271787,-0.063072,-0.003512,-0.000764,32.27,64.5863747606214
11952,-8.182856,-3.747759,4.267001,-0.057574,-0.007941,0.010232,32.21,64.6345061920939
11962,-8.17448,-3.755535,4.272983,-0.045662,-0.010385,0.016341,32.2,64.5926361417182
11972,-8.190632,-3.751348,4.262215,-0.04047,-0.014203,0.022755,32.2,64.6804605162707
11982,-8.197212,-3.752544,4.262814,-0.034667,-0.017868,0.029016,32.21,64.6932732701498
11992,-8.19781,-3.737589,4.262215,-0.030238,-0.02138,0.034056,32.21,64.6824520127507
12002,-8.193623,-3.754339,4.25743,-0.025656,-0.025809,0.040012,32.22,64.7150699540559
12012,-8.209774,-3.741179,4.26401,-0.022144,-0.030696,0.045357,32.22,64.703521485114
12022,-8.209774,-3.737589,4.274179,-0.018937,-0.035277,0.048717,32.27,64.6470991400658
12032,-8.219944,-3.725625,4.281956,-0.017104,-0.040775,0.053756,32.27,64.617376868721
12042,-8.219944,-3.735196,4.291527,-0.016188,-0.045662,0.057879,32.25,64.5775345445884
12052,-8.23131,-3.732205,4.295117,-0.014813,-0.050396,0.060018,32.25,64.5813704622864
12062,-8.234302,-3.716652,4.290929,-0.014661,-0.054978,0.062003,32.22,64.593979909287
12072,-8.230712,-3.722634,4.308876,-0.014813,-0.059101,0.06353,32.22,64.4991883472554
12082,-8.226524,-3.708875,4.319045,-0.016952,-0.062461,0.064904,32.22,64.42324982852
12092,-8.231908,-3.71725,4.329813,-0.019395,-0.065973,0.063225,32.22,64.3883163063123
12102,-8.246863,-3.701099,4.33041,-0.022297,-0.068417,0.062308,32.27,64.4025532469713
12112,-8.25464,-3.701099,4.345366,-0.024282,-0.070402,0.060934,32.27,64.3430509803097
12122,-8.248059,-3.701697,4.355535,-0.027031,-0.069639,0.056352,32.23,64.2764765149643
12132,-8.247462,-3.684349,4.36391,-0.034972,-0.069486,0.053451,32.27,64.2144592358939
12142,-8.248059,-3.704688,4.371687,-0.038943,-0.066126,0.049633,32.27,64.1964960072838
12152,-8.252247,-3.701099,4.38066,-0.042455,-0.062766,0.044746,32.23,64.1562727254565
12162,-8.226524,-3.699304,4.388436,-0.045968,-0.058948,0.040164,32.23,64.0560407270602
12172,-8.228917,-3.699902,4.404588,-0.050091,-0.053756,0.035888,32.27,63.9792169484281
12182,-8.232506,-3.698706,4.408178,-0.052382,-0.048106,0.030696,32.27,63.9677792128838
12192,-8.220542,-3.698107,4.40399,-0.055436,-0.040775,0.025504,32.2,63.9613046095739
12202,-8.212168,-3.69392,4.405785,-0.058338,-0.034056,0.020311,32.2,63.9286165950155
12212,-8.223534,-3.699304,4.415356,-0.060781,-0.026573,0.015272,32.23,63.9110924560367
12222,-8.219944,-3.707081,4.41057,-0.062156,-0.019242,0.011148,32.23,63.9354274616735
12232,-8.221739,-3.707679,4.411169,-0.063988,-0.01069,0.006567,32.21,63.9370761437104
12242,-8.215158,-3.716054,4.407579,-0.065515,-0.002291,0.000916,32.21,63.9490901095002
12252,-8.223534,-3.720241,4.406384,-0.066126,0.003971,-0.002902,32.23,63.9786561789645
12262,-8.216354,-3.712464,4.393223,-0.066737,0.011759,-0.005345,32.23,64.0217936410814
12272,-8.209774,-3.718446,4.389633,-0.06689,0.018784,-0.008247,32.24,64.0314026982388
12282,-8.207382,-3.706482,4.375276,-0.067806,0.025351,-0.010537,32.24,64.087452039392
12292,-8.210971,-3.719643,4.374678,-0.067501,0.031307,-0.016341,32.26,64.1122529320664
12302,-8.208578,-3.722036,4.35733,-0.068111,0.040012,-0.017104,32.24,64.1985988553302
12312,-8.212168,-3.731009,4.356134,-0.068875,0.042608,-0.017715,32.24,64.2221295881216
12322,-8.218747,-3.723232,4.339982,-0.068417,0.045051,-0.018784,32.25,64.3122762991661
12332,-8.217552,-3.736991,4.335197,-0.068111,0.045662,-0.019548,32.25,64.3483518125185
12342,-8.22473,-3.735196,4.318447,-0.068264,0.045968,-0.018173,32.24,64.4491059659586
12352,-8.222935,-3.732804,4.308277,-0.069028,0.044288,-0.018326,32.24,64.4951685331677
12362,-8.236095,-3.738786,4.296313,-0.068417,0.040928,-0.018326,32.21,64.5925693017806
12372,-8.231908,-3.739383,4.298108,-0.067959,0.038026,-0.017257,32.21,64.5745343341211
12382,-8.24148,-3.737589,4.277769,-0.068111,0.033903,-0.016493,32.21,64.6992795878329
12392,-8.243275,-3.743571,4.276572,-0.067195,0.028863,-0.014508,32.21,64.7155150918073
12402,-8.243275,-3.743571,4.261019,-0.066584,0.021686,-0.013134,32.27,64.7960409637079
12412,-8.240881,-3.75075,4.268198,-0.066279,0.014813,-0.011148,32.27,64.7607911141735
12422,-8.245069,-3.753142,4.26401,-0.06521,0.007025,-0.010843,32.25,64.7941876132442
12432,-8.236693,-3.762714,4.258626,-0.063225,-0.000153,-0.008247,32.25,64.8131803580303
12442,-8.243275,-3.762115,4.246064,-0.062156,-0.007789,-0.005192,32.25,64.8922519301799
12452,-8.246264,-3.751348,4.229912,-0.059559,-0.016799,-0.003054,32.25,64.9718243672853
12462,-8.295916,-3.704688,4.168297,-0.049633,-0.020769,-0.007941,32.2,65.3551044233965
12472,-8.181061,-3.749553,4.258626,0.004429,-0.017715,-0.051465,32.2,64.6758754242647
12482,-8.178668,-3.765705,4.263412,0.006872,-0.02138,-0.044593,32.23,64.6622322748072
12492,-8.182258,-3.750151,4.269992,0.009316,-0.024587,-0.036499,32.27,64.6200777470349
12502,-8.180463,-3.754937,4.266403,0.011606,-0.028711,-0.0281,32.27,64.6396260643285
12512,-8.17807,-3.758526,4.271787,0.014203,-0.031612,-0.020922,32.25,64.6099797774547
12522,-8.17807,-3.763312,4.290331,0.017104,-0.034056,-0.01405,32.25,64.5186543022735
12532,-8.175079,-3.76391,4.297509,0.019242,-0.036041,-0.007636,32.24,64.475331540845
12542,-8.1679,-3.752544,4.296911,0.020769,-0.037874,-0.002138,32.24,64.4505034846884
12552,-8.17448,-3.762115,4.30409,0.022449,-0.038943,0.002138,32.25,64.4380156520632
12562,-8.185846,-3.776472,4.322036,0.02474,-0.039095,0.007025,32.25,64.3856183972996
12572,-8.200802,-3.766303,4.332804,0.026725,-0.038179,0.010996,32.29,64.353139509916
12582,-8.208578,-3.761517,4.335794,0.027947,-0.038026,0.014203,32.29,64.3502789962738
12592,-8.204989,-3.762714,4.35075,0.029016,-0.036805,0.01573,32.26,64.2663486453828
12602,-8.2014,-3.764508,4.356134,0.029322,-0.034208,0.016035,32.26,64.2323756749202
12612,-8.215158,-3.760321,4.361517,0.029169,-0.031612,0.016799,32.24,64.2314093019238
12622,-8.213962,-3.751348,4.37408,0.029322,-0.028711,0.016493,32.24,64.1548412917633
12632,-8.228318,-3.745964,4.376472,0.028711,-0.025504,0.015882,32.24,64.16948866738
12642,-8.228318,-3.736991,4.375875,0.026725,-0.018631,0.012523,32.24,64.1633205193996
12652,-8.236693,-3.747759,4.394419,0.02474,-0.014813,0.009621,32.22,64.0982456512221
12662,-8.225926,-3.731009,4.397409,0.022755,-0.011148,0.007025,32.26,64.0412231835595
12672,-8.239087,-3.753142,4.389633,0.020617,-0.007178,0.003971,32.26,64.133729566361
12682,-8.242676,-3.732205,4.390232,0.01909,-0.003818,0.001527,32.23,64.1172624959464
12692,-8.246863,-3.732804,4.383651,0.017715,-0.001222,-0.003665,32.23,64.1610908709725
12702,-8.245069,-3.731009,4.38425,0.015272,0,-0.010232,32.24,64.1521225882976
12712,-8.22473,-3.72383,4.387838,0.013897,0.00336,-0.014203,32.24,64.0802155153873
12722,-8.229516,-3.726821,4.387838,0.012065,0.007025,-0.018021,32.2,64.0941642224554
12732,-8.210971,-3.733402,4.382454,0.008705,0.011454,-0.0197,32.2,64.0864679073058
12742,-8.224131,-3.736991,4.392624,0.007178,0.014966,-0.020769,32.23,64.0678566519215
12752,-8.214561,-3.729812,4.387838,0.004734,0.019395,-0.021686,32.23,64.0632614374966
12762,-8.214561,-3.724428,4.377669,0.002291,0.022449,-0.022907,32.26,64.10996231929
12772,-8.206783,-3.735795,4.378866,0.001374,0.026267,-0.023366,32.26,64.0978674785034
12782,-8.208578,-3.73041,4.368696,-0.001222,0.029474,-0.023824,32.23,64.1486959510198
12792,-8.202596,-3.719643,4.362714,-0.001833,0.032376,-0.023518,32.23,64.1548083082445
12802,-8.199606,-3.72383,4.354339,-0.002596,0.035583,-0.022144,32.25,64.1955024793838
12812,-8.193025,-3.729812,4.350152,-0.00336,0.038332,-0.01909,32.25,64.2083364779939
12822,-8.192427,-3.723232,4.350152,-0.002291,0.041997,-0.017562,32.22,64.2001837983136
12832,-8.199606,-3.731607,4.334,-0.001527,0.044135,-0.015119,32.27,64.3084764679972
12842,-8.179864,-3.735795,4.32742,0.000916,0.044593,-0.012523,32.27,64.3021330714818
12852,-8.185248,-3.738786,4.325625,0.002443,0.045968,-0.010079,32.23,64.3266935559421
12862,-8.190632,-3.725625,4.319643,0.004734,0.046578,-0.007025,32.23,64.3562504820537
12872,-8.213962,-3.726223,4.308876,0.007789,0.045509,-0.005956,32.25,64.465191154101
12882,-8.221739,-3.732205,4.307679,0.012065,0.042302,-0.005345,32.25,64.4949634056155
12892,-8.221739,-3.721437,4.303492,0.015577,0.038026,-0.007025,32.29,64.5056493215162
12902,-8.213365,-3.720839,4.307081,0.020006,0.033139,-0.009163,32.29,64.4676397327377
12912,-8.210373,-3.731009,4.3005,0.024129,0.029322,-0.009927,32.25,64.5053453464575
12922,-8.210373,-3.729812,4.307679,0.027794,0.026267,-0.007636,32.25,64.4669734096913
12932,-8.218149,-3.725027,4.302295,0.031307,0.022755,-0.005956,32.28,64.5074287097753
12942,-8.220542,-3.726223,4.299304,0.033292,0.019853,-0.006261,32.28,64.5294956932401
12952,-8.208578,-3.737589,4.317849,0.034514,0.017562,-0.006261,32.23,64.4183090948308
12962,-8.226524,-3.74058,4.311867,0.036805,0.01573,-0.004581,32.23,64.4926037564149
12972,-8.222935,-3.72383,4.31725,0.03711,0.012523,-0.004429,32.26,64.4396586723918
12982,-8.2349,-3.73041,4.328616,0.036805,0.009927,-0.006567,32.26,64.4146229914799
12992,-8.250452,-3.726821,4.332206,0.034361,0.005956,-0.011301,32.21,64.4274250106136
13002,-8.252247,-3.721437,4.329215,0.03146,0.003665,-0.014966,32.29,64.4414037921343
13012,-8.251051,-3.728018,4.331009,0.028863,0.001222,-0.018173,32.29,64.4361483249258
13022,-8.249854,-3.720241,4.339982,0.025504,-0.000153,-0.022602,32.22,64.3793701834213
13032,-8.249256,-3.711268,4.34058,0.021838,-0.002596,-0.025962,32.22,64.3658449549649
13042,-8.240881,-3.715455,4.345366,0.017715,-0.004581,-0.029474,32.23,64.3265731281247
13052,-8.249256,-3.708277,4.347759,0.012675,-0.005651,-0.033445,32.23,64.3258606210708
13062,-8.248059,-3.716652,4.342375,0.007941,-0.007178,-0.036041,32.29,64.3593688724966
13072,-8.232506,-3.720241,4.342375,0.004123,-0.008247,-0.038637,32.29,64.327954535597
13082,-8.233703,-3.717848,4.341777,-0.000764,-0.009774,-0.041539,32.23,64.3312972955545
13092,-8.229516,-3.714259,4.339384,-0.004887,-0.009468,-0.042761,32.23,64.3305202909038
13102,-8.221141,-3.711866,4.344768,-0.009163,-0.009927,-0.044746,32.22,64.2813871870046
13112,-8.219944,-3.708875,4.34417,-0.011912,-0.009316,-0.045662,32.22,64.2787046188754
13122,-8.212168,-3.720241,4.34417,-0.014203,-0.008399,-0.044288,32.24,64.2727335203491
13132,-8.202596,-3.721437,4.342375,-0.015577,-0.008247,-0.04215,32.24,64.2615434172262
13142,-8.200802,-3.71725,4.336991,-0.016188,-0.007025,-0.039859,32.22,64.2809746397389
13152,-8.181061,-3.719643,4.334598,-0.016799,-0.005803,-0.037568,32.22,64.2510258607813
13162,-8.179267,-3.726223,4.334,-0.014661,-0.001374,-0.030849,32.27,64.2568446212485
13172,-8.17149,-3.722634,4.339982,-0.009927,0.001222,-0.026267,32.22,64.2045174271589
13182,-8.170293,-3.725027,4.351946,-0.006261,0.003054,-0.02138,32.22,64.1424240248837
13192,-8.170293,-3.736991,4.342973,-0.002596,0.006109,-0.016646,32.25,64.20123063292
13202,-8.188239,-3.728018,4.342973,0.000916,0.009468,-0.01237,32.25,64.2326831823316
13212,-8.18764,-3.727419,4.337589,0.005192,0.011912,-0.007483,32.23,64.2585207278186
13222,-8.173284,-3.734,4.352544,0.010079,0.015424,-0.003054,32.23,64.1554700818262
13232,-8.176873,-3.736392,4.35075,0.014966,0.01909,0.001527,32.21,64.1753820320697
13242,-8.185248,-3.737589,4.345366,0.019395,0.022602,0.004887,32.21,64.2234402171892
13252,-8.191828,-3.734,4.35075,0.022755,0.025045,0.007941,32.23,64.2068638200526
13262,-8.198408,-3.739982,4.361517,0.026573,0.029322,0.010079,32.23,64.1724716196123
13272,-8.209774,-3.737589,4.359125,0.029474,0.032376,0.010996,32.24,64.2080814788711
13282,-8.216953,-3.742374,4.357928,0.031612,0.034056,0.010996,32.24,64.2354175337441
13292,-8.214561,-3.744768,4.364508,0.032376,0.036652,0.010843,32.26,64.1986172698295
13302,-8.229516,-3.74058,4.368696,0.032529,0.040317,0.009774,32.26,64.2065987730581
13312,-8.23789,-3.736392,4.371089,0.031612,0.041692,0.00733,32.26,64.2089359207523
13322,-8.230712,-3.744169,4.362714,0.030391,0.043066,0.00504,32.26,64.2437287648943
13332,-8.252247,-3.738786,4.362116,0.0281,0.043677,-0.001833,32.2,64.2898414189214
13342,-8.253444,-3.74058,4.361517,0.02138,0.04444,-0.006567,32.22,64.2974411850803
13352,-8.260622,-3.743571,4.354938,0.016952,0.043524,-0.010996,32.22,64.3503991701098
13362,-8.27139,-3.749553,4.355535,0.011606,0.041997,-0.015272,32.22,64.3775689878517
13372,-8.260024,-3.747759,4.352544,0.005651,0.039706,-0.019853,32.22,64.3656105270563
13382,-8.26481,-3.752544,4.347759,0.000764,0.03711,-0.025351,32.21,64.4057743904631
13392,-8.27139,-3.754937,4.337589,-0.004429,0.033903,-0.029474,32.21,64.4751449523822
13402,-8.2678,-3.754937,4.325625,-0.008705,0.029322,-0.03375,32.21,64.5286216915985
13412,-8.265409,-3.756134,4.322036,-0.013439,0.025656,-0.037721,32.21,64.5429633059442
13422,-8.257033,-3.752544,4.312464,-0.018479,0.020769,-0.040928,32.26,64.5699287970097
13432,-8.256434,-3.760321,4.311867,-0.022755,0.015424,-0.04383,32.26,64.5795568319841
13442,-8.251051,-3.762115,4.308277,-0.025962,0.010385,-0.045662,32.23,64.5878838147149
13452,-8.253444,-3.757928,4.304688,-0.028253,0.004429,-0.047647,32.23,64.6074679308965
13462,-8.235497,-3.754339,4.295117,-0.030543,-0.000305,-0.047342,32.26,64.6132149998088
13472,-8.232506,-3.753741,4.289135,-0.031765,-0.005956,-0.047953,32.26,64.636854210272
13482,-8.22473,-3.756134,4.295715,-0.030849,-0.010537,-0.045968,32.23,64.5879142901242
13492,-8.213962,-3.752544,4.278965,-0.02978,-0.014966,-0.043677,32.23,64.646890886476
13502,-8.194221,-3.752544,4.285545,-0.027794,-0.01909,-0.040928,32.21,64.5686182214962
13512,-8.182856,-3.760919,4.279563,-0.02138,-0.026267,-0.033445,32.21,64.5827893520002
13522,-8.187043,-3.741776,4.275974,-0.017104,-0.029474,-0.027947,32.21,64.5911373915286
13532,-8.180463,-3.744169,4.27717,-0.012523,-0.03207,-0.022755,32.27,64.5726126206798
13542,-8.17448,-3.753142,4.286144,-0.007025,-0.034056,-0.017257,32.27,64.5218115922542
13552,-8.172686,-3.747759,4.289135,-0.000916,-0.034819,-0.010232,32.22,64.4966929649107
13562,-8.156534,-3.738187,4.284349,0.005803,-0.035583,-0.004276,32.22,64.4752582653228
13572,-8.158329,-3.732205,4.295715,0.012523,-0.035736,0.002138,32.2,64.4140475965407
13582,-8.160124,-3.74716,4.299902,0.018326,-0.036194,0.007941,32.2,64.4118565894069
13592,-8.165507,-3.739383,4.305286,0.024129,-0.034056,0.014355,32.26,64.3880241337984
13602,-8.155338,-3.733402,4.304688,0.029474,-0.033292,0.021686,32.26,64.3619133117485
13612,-8.169695,-3.722634,4.322634,0.034667,-0.031918,0.027031,32.23,64.2902430689292
13622,-8.170892,-3.719045,4.323233,0.038943,-0.030391,0.031612,32.23,64.2861465711214
13632,-8.173284,-3.725625,4.331607,0.042302,-0.028253,0.035583,32.24,64.2550238801988
13642,-8.182258,-3.71725,4.342973,0.044288,-0.025809,0.038943,32.24,64.2079732256129
13652,-8.199007,-3.707679,4.35075,0.04612,-0.023213,0.041997,32.24,64.1960276492709
13662,-8.196015,-3.711866,4.354339,0.047189,-0.019853,0.04383,32.24,64.1750124343448
13672,-8.203793,-3.694518,4.380062,0.046426,-0.017104,0.044899,32.23,64.0423114512743
13682,-8.213365,-3.695715,4.395615,0.043524,-0.010385,0.042761,32.23,63.9854359314775
13692,-8.22772,-3.701099,4.386044,0.037568,-0.007483,0.040928,32.2,64.0728913487084
13702,-8.229516,-3.7005,4.394419,0.032987,-0.003818,0.037263,32.23,64.0333675252464
13712,-8.240283,-3.694518,4.409374,0.027184,0,0.03146,32.23,63.9751146978351
13722,-8.250452,-3.694518,4.409374,0.021075,0.003665,0.026573,32.23,63.9983095189274
13732,-8.251051,-3.693322,4.415954,0.014203,0.006872,0.02138,32.23,63.9647747124442
13742,-8.256434,-3.701099,4.414758,0.006567,0.011148,0.015577,32.22,63.9911038059351
13752,-8.258827,-3.7005,4.421339,-0.000916,0.015272,0.007941,32.22,63.9622953280933
13762,-8.260622,-3.689135,4.415954,-0.008094,0.018937,0.000153,32.27,63.9823322249178
13772,-8.25165,-3.699304,4.42074,-0.014508,0.022907,-0.007025,32.27,63.9477721926378
13782,-8.260024,-3.696313,4.412365,-0.021228,0.026725,-0.013897,32.23,64.0066375686957
13792,-8.25464,-3.699902,4.412365,-0.027947,0.03146,-0.021228,32.23,63.9980380707322
13802,-8.249854,-3.689135,4.409374,-0.033292,0.036194,-0.027489,32.21,63.9914536760491
13812,-8.240881,-3.704688,4.394419,-0.039248,0.039859,-0.03375,32.21,64.0635369821537
13822,-8.240283,-3.712464,4.399205,-0.042761,0.043524,-0.03879,32.21,64.045600513421
13832,-8.250452,-3.710072,4.393821,-0.045815,0.046731,-0.043677,32.21,64.0938538315588
13842,-8.236693,-3.725027,4.368696,-0.048869,0.049938,-0.048717,32.23,64.2068824434614
13852,-8.222935,-3.729812,4.353741,-0.050702,0.055436,-0.053298,32.23,64.2575864560372
13862,-8.220542,-3.73041,4.337589,-0.050396,0.058032,-0.055131,32.24,64.3360173350846
13872,-8.226524,-3.728018,4.326822,-0.048564,0.059712,-0.057269,32.23,64.4025911980143
13882,-8.202596,-3.729812,4.313661,-0.04444,0.062003,-0.057727,32.23,64.4185132517027
13892,-8.213365,-3.731009,4.292724,-0.038485,0.064599,-0.057116,32.23,64.5523233841161
13902,-8.206185,-3.734,4.290929,-0.032529,0.06689,-0.056963,32.23,64.5485604360329
13912,-8.206783,-3.748357,4.286742,-0.027336,0.068264,-0.05681,32.25,64.5862675138821
13922,-8.208578,-3.742374,4.278965,-0.021075,0.067806,-0.054214,32.25,64.6244807995655
