t_ms,ax,ay,az,gx,gy,gz,temp,ang_deg
12,-7.817351,-3.924827,3.68734,-0.239765,-0.140346,-0.043066,31.86,67.1426114586718
22,-7.800004,-3.947559,3.68734,-0.155465,-0.17654,0.035736,31.82,67.1302776301513
32,-7.783852,-3.939782,3.699902,-0.109498,-0.191506,0.114232,31.86,67.0181792834672
42,-7.768897,-3.939184,3.73041,-0.062614,-0.202349,0.192575,31.86,66.816217451819
52,-7.791629,-3.942773,3.775874,-0.016799,-0.209527,0.26817,31.87,66.6164495922644
62,-7.815557,-3.937988,3.831507,0.026725,-0.211207,0.33903,31.87,66.3559105607191
72,-7.862217,-3.912863,3.905685,0.066432,-0.206931,0.400575,31.87,66.0236869176714
82,-7.933403,-3.891926,3.985844,0.10232,-0.196546,0.452957,31.87,65.7217947042769
92,-8.009974,-3.874578,4.074977,0.130572,-0.181274,0.492357,31.88,65.3935302680489
102,-8.096116,-3.861418,4.155735,0.150273,-0.160199,0.520457,31.88,65.1416153509292
112,-8.17807,-3.826722,4.237091,0.16249,-0.135459,0.533743,31.89,64.8607138570705
122,-8.265409,-3.799803,4.307679,0.166461,-0.106443,0.533591,31.89,64.6611720248025
132,-8.374281,-3.77049,4.392026,0.161574,-0.075289,0.519694,31.88,64.4415791120431
142,-8.452645,-3.768098,4.446463,0.149204,-0.042455,0.493274,31.88,64.3373462408136
152,-8.539985,-3.736392,4.495516,0.128587,-0.009621,0.454331,31.86,64.2534079798654
162,-8.6345,-3.707679,4.537988,0.102014,0.021533,0.402866,31.86,64.2229584275338
172,-8.705688,-3.688536,4.561318,0.06918,0.050091,0.341321,31.87,64.2458860098666
182,-8.830712,-3.668197,4.567898,0.030238,0.075442,0.271224,31.87,64.4662025341549
192,-8.860622,-3.658028,4.542176,-0.056352,0.113468,0.116523,31.85,64.6468466047589
202,-8.877971,-3.649055,4.503891,-0.100945,0.123242,0.034361,31.87,64.8630171027613
212,-8.870792,-3.644867,4.451249,-0.14447,0.127213,-0.043677,31.87,65.1023206436213
222,-8.836096,-3.656831,4.38724,-0.184329,0.124158,-0.115606,31.87,65.3554183893766
232,-8.795418,-3.650849,4.308277,-0.220675,0.114995,-0.18158,31.87,65.657710443971
242,-8.730811,-3.649653,4.237689,-0.251218,0.102014,-0.235794,31.89,65.8762099239921
252,-8.663813,-3.649055,4.1671,-0.274584,0.08491,-0.278555,31.89,66.0939554081234
262,-8.5681,-3.661019,4.073183,-0.290314,0.064752,-0.307876,31.86,66.3872112295879
272,-8.489736,-3.666403,4.022335,-0.299324,0.042761,-0.324522,31.86,66.4928954406205
282,-8.393424,-3.67418,3.959523,-0.301157,0.019853,-0.328035,31.85,66.6284054323786
292,-8.309675,-3.692126,3.89731,-0.297186,-0.002902,-0.318566,31.85,66.7997397033382
302,-8.213962,-3.684947,3.846462,-0.286649,-0.025809,-0.297491,31.86,66.8650126925811
312,-8.129017,-3.698107,3.806981,-0.27153,-0.046731,-0.265268,31.86,66.9123427538529
322,-8.050054,-3.696911,3.787838,-0.249997,-0.066126,-0.221591,31.84,66.8484273823869
332,-7.983054,-3.707679,3.765705,-0.225257,-0.083536,-0.170431,31.84,66.837719849839
342,-7.936993,-3.706482,3.754339,-0.196088,-0.09728,-0.11301,31.87,66.8006104000989
352,-7.902297,-3.703491,3.771089,-0.166766,-0.109498,-0.049022,31.87,66.630205776395
362,-7.856236,-3.696911,3.79741,-0.135307,-0.124006,0.086437,31.86,66.3774287490311
372,-7.861619,-3.688536,3.826123,-0.07086,-0.125533,0.154243,31.88,66.221761342723
382,-7.893922,-3.67418,3.859025,-0.042455,-0.124158,0.217163,31.88,66.0968701246258
392,-7.943573,-3.679563,3.911667,-0.016341,-0.119271,0.275653,31.85,65.9238135029373
402,-7.988439,-3.664608,3.961318,0.006109,-0.109345,0.326966,31.85,65.7380039930806
412,-8.052446,-3.658626,4.023531,0.023518,-0.096517,0.369268,31.87,65.5386211237178
422,-8.130214,-3.641876,4.074379,0.035125,-0.081092,0.399506,31.87,65.4229152212291
432,-8.218149,-3.632305,4.131208,0.043066,-0.063225,0.418595,31.91,65.3077153269381
442,-8.3013,-3.612564,4.182654,0.043371,-0.044746,0.426537,31.91,65.2029041832738
452,-8.389835,-3.611368,4.214957,0.039706,-0.026114,0.422108,31.86,65.2288388979106
462,-8.480165,-3.60718,4.237091,0.031307,-0.008552,0.406684,31.86,65.3079705002772
472,-8.572288,-3.605984,4.259823,0.018937,0.007941,0.382249,31.85,65.3897202741015
482,-8.643474,-3.604787,4.281358,0.002291,0.02138,0.346361,31.85,65.4318519936601
492,-8.71107,-3.608377,4.28734,-0.016341,0.031765,0.301615,31.88,65.5484854758515
502,-8.785248,-3.608377,4.274179,-0.037721,0.037721,0.249997,31.88,65.7705466359483
512,-8.824132,-3.616153,4.272983,-0.061392,0.039248,0.191201,31.86,65.8641146742298
522,-8.860622,-3.608975,4.232903,-0.085521,0.036499,0.126449,31.86,66.1339937682986
532,-8.912666,-3.631108,4.192824,-0.110108,0.029016,-0.010232,31.87,66.4589159782483
542,-8.897711,-3.639483,4.165905,-0.155007,0.00168,-0.07758,31.85,66.5705466496486
552,-8.85105,-3.650251,4.135396,-0.173944,-0.016493,-0.141721,31.85,66.6389888918469
562,-8.797213,-3.658626,4.106682,-0.190743,-0.037415,-0.200975,31.86,66.682658919308
572,-8.729016,-3.678366,4.088736,-0.20464,-0.058185,-0.253051,31.86,66.6526563482851
582,-8.654242,-3.692126,4.067799,-0.215788,-0.078954,-0.29627,31.88,66.6195060780286
592,-8.553144,-3.705884,4.04387,-0.222202,-0.096211,-0.327424,31.88,66.5476865211585
602,-8.458031,-3.713063,4.04387,-0.227242,-0.110719,-0.348804,31.84,66.3570224227238
612,-8.35454,-3.728018,4.043272,-0.230143,-0.119882,-0.357662,31.84,66.1566614600899
622,-8.266006,-3.745964,4.031906,-0.23106,-0.124464,-0.357356,31.85,66.0454853051942
632,-8.153543,-3.759125,4.036692,-0.227547,-0.123395,-0.346208,31.85,65.791247767222
642,-8.082357,-3.771687,4.0337,-0.222508,-0.115759,-0.324217,31.86,65.6649105633845
652,-8.017751,-3.765705,4.043272,-0.214872,-0.104,-0.294284,31.86,65.4655668996093
662,-7.953144,-3.79382,4.042076,-0.207694,-0.087812,-0.255953,31.89,65.358206596339
672,-7.908279,-3.801597,4.040879,-0.196699,-0.067653,-0.211665,31.89,65.2728998236179
682,-7.877172,-3.809972,4.04746,-0.183718,-0.04612,-0.162796,31.85,65.1767629636081
692,-7.859226,-3.815356,4.040879,-0.170126,-0.022297,-0.110414,31.85,65.1778259450202
702,-7.873583,-3.814758,4.040281,-0.155771,0.002291,-0.054367,31.89,65.2126438402241
712,-7.903493,-3.825525,4.032505,-0.127365,0.046426,0.056963,31.91,65.3330968004377
722,-7.949555,-3.814758,4.019942,-0.112094,0.065515,0.111177,31.91,65.4914523352083
732,-7.999206,-3.811168,4.018147,-0.09728,0.080481,0.161574,31.86,65.6067161388171
742,-8.069795,-3.81715,4.009174,-0.084299,0.090255,0.206167,31.86,65.8149606755999
752,-8.143971,-3.827918,4.009772,-0.071166,0.095753,0.246331,31.84,65.9825873918304
762,-8.228318,-3.808775,4.004389,-0.059712,0.095753,0.27886,31.84,66.1718147086347
772,-8.30788,-3.813561,3.993023,-0.050396,0.090866,0.303295,31.88,66.4038461113309
782,-8.390432,-3.792026,3.992425,-0.042455,0.080787,0.320704,31.88,66.5582604237306
792,-8.467003,-3.794419,3.989433,-0.036041,0.065973,0.328645,31.89,66.7336343652114
802,-8.537591,-3.785445,3.98405,-0.031918,0.047342,0.329256,31.89,66.8971068609367
812,-8.595617,-3.769294,3.981657,-0.030391,0.026114,0.321468,31.89,67.0121844389929
822,-8.639286,-3.762115,3.978068,-0.029169,0.001985,0.305891,31.89,67.1119443857924
832,-8.687741,-3.758526,3.981059,-0.029627,-0.024435,0.2839,31.92,67.1899246104702
842,-8.72124,-3.762714,3.985844,-0.032376,-0.050855,0.2558,31.92,67.2352846839343
852,-8.739785,-3.749553,3.994219,-0.036499,-0.076969,0.222508,31.86,67.2178237374065
862,-8.754142,-3.744169,4.006183,-0.041997,-0.10232,0.185398,31.86,67.1804323616729
872,-8.743374,-3.728616,4.028317,-0.048564,-0.12706,0.144317,31.88,67.0327401651315
882,-8.740383,-3.72383,4.048656,-0.055741,-0.168141,0.058338,31.88,66.9188251922355
892,-8.708678,-3.727419,4.062415,-0.071777,-0.184634,0.016341,31.83,66.7879932551168
902,-8.659625,-3.73041,4.079762,-0.080329,-0.197768,-0.026114,31.89,66.6026012772498
912,-8.622537,-3.713661,4.103691,-0.090103,-0.206778,-0.064752,31.89,66.3894380304873
922,-8.575278,-3.720839,4.122834,-0.099418,-0.211207,-0.10064,31.85,66.2000291795997
932,-8.507083,-3.714259,4.14078,-0.107665,-0.210901,-0.131489,31.85,65.9592572919254
942,-8.446664,-3.713661,4.161119,-0.116523,-0.20632,-0.155771,31.87,65.7259416879506
952,-8.386245,-3.704688,4.168896,-0.124769,-0.196393,-0.172875,31.87,65.5478429428816
962,-8.317451,-3.726223,4.173681,-0.131183,-0.182649,-0.18326,31.86,65.3949448158071
972,-8.249854,-3.718446,4.162315,-0.136376,-0.164934,-0.187383,31.86,65.299081741649
982,-8.189436,-3.725027,4.162315,-0.140346,-0.14508,-0.183565,31.86,65.172702619323
992,-8.126026,-3.716054,4.15394,-0.141568,-0.121868,-0.171195,31.86,65.0669531613124
1002,-8.08475,-3.726223,4.140181,-0.142332,-0.099113,-0.152869,31.88,65.0579183635813
1012,-8.044072,-3.722036,4.12044,-0.140346,-0.076664,-0.127365,31.88,65.0672152467005
1022,-8.002197,-3.719643,4.098905,-0.134848,-0.054214,-0.095753,31.86,65.0854070724284
1032,-7.966903,-3.729214,4.074379,-0.128587,-0.033292,-0.058185,31.86,65.1473085619583
1042,-7.953144,-3.726223,4.027719,-0.119424,-0.014508,-0.017715,31.88,65.3641563144809
1052,-7.946565,-3.722634,4.009772,-0.10797,0.00168,0.072998,31.88,65.4425178350044
1062,-7.9681,-3.723232,3.995416,-0.08094,0.025504,0.12034,31.86,65.5686715045611
1073,-7.999804,-3.719643,3.966702,-0.065515,0.032223,0.166155,31.88,65.790207169332
1082,-8.038688,-3.704688,3.964309,-0.050549,0.035125,0.209069,31.88,65.873367433306
1092,-8.085348,-3.713661,3.963113,-0.036346,0.035125,0.24908,31.85,65.9907290008107
1102,-8.140383,-3.698107,3.964907,-0.021228,0.033139,0.284205,31.85,66.0850441069156
1112,-8.202596,-3.68734,3.982853,-0.008552,0.028405,0.311847,31.88,66.1128854355336
1122,-8.262416,-3.668795,4.001996,0.000305,0.023213,0.332463,31.88,66.1218667148776
1132,-8.3348,-3.662215,4.026522,0.008247,0.016646,0.344986,31.89,66.1408568602562
1142,-8.392226,-3.644269,4.064209,0.012675,0.010232,0.347582,31.89,66.0487959244959
1152,-8.472985,-3.644867,4.095914,0.013897,0.004581,0.342237,31.85,66.0556974322794
1162,-8.527422,-3.628117,4.130012,0.010232,-0.000153,0.328035,31.85,65.9793183813519
1172,-8.572288,-3.616751,4.161119,0.003512,-0.003818,0.305738,31.8,65.903979980032
1182,-8.641081,-3.611368,4.205386,-0.005345,-0.005651,0.274431,31.8,65.818227538758
1192,-8.692527,-3.605386,4.241877,-0.016952,-0.006567,0.236558,31.85,65.7362134071358
1202,-8.720044,-3.601198,4.264608,-0.031612,-0.004581,0.19227,31.85,65.6757113578917
1212,-8.75115,-3.598207,4.317849,-0.050091,-0.001374,0.142637,31.88,65.4711233301043
1222,-8.778668,-3.600002,4.333402,-0.069944,0.003207,0.088575,31.88,65.4530054226437
1232,-8.767302,-3.597609,4.34058,-0.113316,0.018479,-0.026267,31.84,65.3910281159358
1242,-8.762517,-3.597609,4.331009,-0.135459,0.028863,-0.084147,31.87,65.4287559387946
1252,-8.722438,-3.604787,4.323233,-0.157603,0.040164,-0.139125,31.87,65.3890115734263
1262,-8.682358,-3.619144,4.306482,-0.179442,0.051771,-0.19059,31.86,65.4006694607336
1272,-8.635098,-3.623332,4.281358,-0.198378,0.064141,-0.236863,31.86,65.4305327691943
1282,-8.576474,-3.642474,4.237091,-0.21533,0.076205,-0.275348,31.85,65.547507304212
1292,-8.503493,-3.654438,4.187439,-0.229074,0.087048,-0.305891,31.85,65.6567191145876
1302,-8.437692,-3.669992,4.123432,-0.239765,0.093921,-0.328035,31.84,65.8610854141132
1312,-8.359925,-3.691527,4.074977,-0.246331,0.099724,-0.340252,31.84,65.9677319883612
1322,-8.301898,-3.705884,4.006183,-0.246331,0.101098,-0.342543,31.88,66.2192034554469
1332,-8.2349,-3.72383,3.942175,-0.243277,0.099113,-0.33567,31.88,66.4336016754234
1342,-8.163713,-3.735795,3.894917,-0.236863,0.093615,-0.318414,31.81,66.5471265901366
1352,-8.103892,-3.756732,3.844069,-0.225867,0.084299,-0.292757,31.81,66.7150978338049
1362,-8.054241,-3.756732,3.783651,-0.210596,0.071777,-0.258854,31.86,66.9387236834944
1372,-8.015956,-3.781856,3.738786,-0.19395,0.057116,-0.217773,31.86,67.1286192228422
1382,-7.986046,-3.78724,3.708277,-0.173791,0.040012,-0.168141,31.86,67.239185368072
1392,-7.951948,-3.796811,3.672385,-0.151647,0.02138,-0.115606,31.86,67.3758812538658
1402,-7.944769,-3.802794,3.669394,-0.103389,-0.018784,0.000764,31.88,67.3834589652136
1412,-7.974679,-3.811767,3.675375,-0.079412,-0.039095,0.060323,31.88,67.4214319766666
1422,-7.998608,-3.817749,3.687938,-0.056352,-0.059101,0.11805,31.88,67.4075862939516
1432,-8.036894,-3.812365,3.705286,-0.034208,-0.078343,0.175318,31.86,67.3860388137152
1442,-8.105088,-3.812365,3.748955,-0.013592,-0.096364,0.227853,31.86,67.2880760775345
1452,-8.176873,-3.806981,3.786044,0.003818,-0.111636,0.274278,31.8,67.229557442299
1462,-8.234302,-3.792026,3.838686,0.01741,-0.126755,0.312152,31.8,67.0502948269325
1472,-8.337791,-3.78724,3.892524,0.027489,-0.139735,0.341168,31.84,66.9716630208335
1482,-8.422137,-3.778865,3.949952,0.032834,-0.151036,0.3598,31.84,66.8339841917769
1492,-8.495118,-3.768098,4.008576,0.033598,-0.160047,0.366672,31.87,66.6675306049075
1502,-8.589635,-3.768098,4.061218,0.029932,-0.166766,0.362549,31.87,66.5885689133671
1512,-8.662616,-3.749553,4.108477,0.023366,-0.173638,0.347582,31.89,66.4787677467108
1522,-8.729615,-3.754937,4.156333,0.011148,-0.178525,0.324064,31.89,66.3766956013759
1532,-8.796017,-3.749553,4.199404,-0.002749,-0.18326,0.28955,31.87,66.2897352267182
1542,-8.836694,-3.738786,4.226922,-0.0197,-0.186619,0.247553,31.87,66.2250760525951
1552,-8.857631,-3.728616,4.251448,-0.039554,-0.189215,0.197157,31.88,66.136411356601
1562,-8.882756,-3.735196,4.291527,-0.060781,-0.190132,0.141568,31.88,65.9938245564234
1572,-8.860024,-3.732205,4.293322,-0.082009,-0.190132,0.021991,31.86,65.935948325563
1582,-8.803793,-3.732205,4.292126,-0.126144,-0.189215,-0.038637,31.87,65.8264650469039
1592,-8.746963,-3.738786,4.275974,-0.14508,-0.185703,-0.094684,31.87,65.7955821488136
1602,-8.665009,-3.745964,4.260421,-0.162185,-0.180511,-0.146455,31.89,65.7097159401198
1612,-8.595018,-3.756134,4.237091,-0.175929,-0.174555,-0.191048,31.89,65.6903843168417
1622,-8.496315,-3.753142,4.216752,-0.186619,-0.166766,-0.227242,31.89,65.582763772908
1632,-8.392825,-3.761517,4.183252,-0.192423,-0.157451,-0.25412,31.89,65.5420772703785
1642,-8.293524,-3.772883,4.156931,-0.193797,-0.146608,-0.270308,31.86,65.4758579423024
1652,-8.189436,-3.778865,4.125825,-0.190437,-0.134238,-0.275348,31.86,65.4184116655638
1662,-8.103294,-3.781856,4.09711,-0.182496,-0.120188,-0.270613,31.89,65.3842288964886
1672,-8.015956,-3.785445,4.069593,-0.17089,-0.104153,-0.254884,31.89,65.3414725056669
1682,-7.93819,-3.790829,4.052843,-0.156229,-0.087048,-0.228769,31.88,65.2638499407467
1692,-7.873583,-3.798008,4.036692,-0.138361,-0.068722,-0.194408,31.88,65.2138449856493
1702,-7.816754,-3.781856,4.018147,-0.117592,-0.049786,-0.151647,31.88,65.1685661503332
1712,-7.777272,-3.798606,4.002594,-0.096059,-0.031307,-0.102625,31.88,65.1822559739853
1722,-7.753344,-3.785445,3.996014,-0.072235,-0.012675,-0.047342,31.91,65.149256169838
1732,-7.738986,-3.778865,4.003192,-0.048411,0.004887,0.010232,31.91,65.0699304025577
1742,-7.780861,-3.762115,4.013362,-0.025198,0.022755,0.13271,31.85,65.0913834467658
1752,-7.825128,-3.751946,4.024727,0.016493,0.055741,0.191506,31.84,65.1191294469301
1762,-7.88136,-3.745964,4.044468,0.033903,0.071929,0.248011,31.84,65.1331740316184
1772,-7.971688,-3.731009,4.071986,0.046884,0.087048,0.298102,31.9,65.172787811154
1782,-8.051848,-3.710072,4.098307,0.057116,0.100335,0.341016,31.9,65.1900091957201
1792,-8.149356,-3.696313,4.133003,0.062003,0.111788,0.373697,31.89,65.2092910553771
1802,-8.260622,-3.684349,4.155136,0.062003,0.121257,0.395077,31.89,65.3267034215992
1812,-8.367103,-3.678366,4.173681,0.057727,0.127518,0.405462,31.87,65.4566040692573
1822,-8.479566,-3.665804,4.191627,0.050244,0.130572,0.40424,31.87,65.5944876184985
1832,-8.577671,-3.6341,4.211368,0.037721,0.129962,0.391259,31.85,65.6737078737596
1842,-8.662019,-3.632305,4.219743,0.022297,0.126907,0.367283,31.85,65.8078018870125
1852,-8.739785,-3.629314,4.221537,0.003818,0.121715,0.332005,31.86,65.9587615906252
1862,-8.807382,-3.613162,4.225725,-0.016493,0.113468,0.287565,31.86,66.0639431670694
1872,-8.863613,-3.620341,4.226922,-0.040164,0.103847,0.234572,31.9,66.1795790885999
1882,-8.900104,-3.600002,4.220341,-0.063683,0.09331,0.174249,31.9,66.2701627877291
1892,-8.930015,-3.608975,4.214359,-0.087965,0.08094,0.109039,31.84,66.3681998600228
1902,-8.937791,-3.605386,4.197609,-0.112094,0.067806,0.041081,31.84,66.4646577156408
1912,-8.894721,-3.61735,4.152744,-0.135612,0.055131,-0.0281,31.86,66.6124516964748
1922,-8.85105,-3.610171,4.122235,-0.177304,0.025656,-0.161421,31.86,66.672295336185
1932,-8.787043,-3.618546,4.091727,-0.193492,0.010843,-0.219148,31.89,66.7045190867268
1942,-8.716455,-3.632305,4.055236,-0.206167,-0.004581,-0.269086,31.88,66.759202360545
1952,-8.624928,-3.646662,4.017549,-0.214414,-0.0197,-0.30696,31.88,66.7789956010023
1962,-8.542974,-3.654438,3.981657,-0.217315,-0.03375,-0.334449,31.87,66.8042111966045
1972,-8.446664,-3.659822,3.955336,-0.216552,-0.047037,-0.350331,31.87,66.7481097687396
1982,-8.348558,-3.686144,3.924827,-0.211054,-0.058948,-0.353691,31.8,66.7291420243068
1992,-8.259426,-3.684349,3.892524,-0.200517,-0.069791,-0.345139,31.8,66.7128518466664
2002,-8.172686,-3.70409,3.872783,-0.187688,-0.077427,-0.325438,31.86,66.654563784023
2012,-8.092526,-3.72383,3.848855,-0.170279,-0.084452,-0.294742,31.86,66.6328587183104
2022,-8.036295,-3.734598,3.845864,-0.15012,-0.087965,-0.2558,31.84,66.5397133828464
2032,-7.970493,-3.737589,3.841677,-0.128893,-0.090255,-0.208916,31.84,66.4240304696663
2042,-7.929216,-3.75733,3.838686,-0.105374,-0.090255,-0.155618,31.88,66.3712333867857
2052,-7.91127,-3.766303,3.830909,-0.080787,-0.089797,-0.098044,31.88,66.384238931241
2062,-7.895118,-3.765106,3.843472,-0.055741,-0.08659,-0.038332,31.84,66.2789413048755
2072,-7.899904,-3.771089,3.867399,-0.031612,-0.083383,0.023976,31.84,66.1644020800332
2082,-7.911868,-3.765106,3.900301,-0.008705,-0.079871,0.08323,31.89,66.0044697954572
2092,-7.999804,-3.774678,3.926622,0.012065,-0.069028,0.191812,31.89,66.0632965102041
2102,-8.047063,-3.768098,3.961318,0.044288,-0.064294,0.237321,31.83,65.9720413039868
2112,-8.112267,-3.766303,3.989433,0.055283,-0.059559,0.27382,31.89,65.9607804416752
2122,-8.181659,-3.76391,4.016951,0.06185,-0.056047,0.302226,31.89,65.9614756916214
2132,-8.27139,-3.768696,4.057031,0.064904,-0.052229,0.31933,31.87,65.9467520278271
2142,-8.338987,-3.756732,4.093522,0.063683,-0.050091,0.32666,31.87,65.8882079791313
2152,-8.430512,-3.742973,4.112664,0.058032,-0.049938,0.323148,31.88,65.9697040495119
2162,-8.501101,-3.744169,4.138387,0.049938,-0.049938,0.309403,31.88,65.9865668480258
2172,-8.571091,-3.732205,4.167699,0.038026,-0.050702,0.28619,31.89,65.9718006622736
2182,-8.616553,-3.731607,4.199404,0.023671,-0.052076,0.255189,31.89,65.9045407063856
2192,-8.675179,-3.731009,4.216752,0.005651,-0.054062,0.214872,31.89,65.9380146917995
2202,-8.70808,-3.728018,4.228716,-0.013744,-0.055741,0.169362,31.89,65.9431088949468
2212,-8.743374,-3.717848,4.258626,-0.034056,-0.058032,0.118508,31.89,65.8566802282934
2222,-8.753544,-3.722634,4.262814,-0.0562,-0.059101,0.064141,31.89,65.8609258701357
2232,-8.752348,-3.717848,4.262814,-0.078343,-0.060323,0.009163,31.85,65.8542416244196
2242,-8.736196,-3.727419,4.272385,-0.100335,-0.060476,-0.045815,31.85,65.7811876140102
2252,-8.715258,-3.726223,4.260421,-0.120188,-0.057727,-0.098655,31.86,65.7967320980193
2262,-8.63151,-3.736991,4.242475,-0.139888,-0.055741,-0.188452,31.86,65.7221786811888
2272,-8.569296,-3.735196,4.23051,-0.170126,-0.046273,-0.224035,31.87,65.6504294178229
2282,-8.525029,-3.755535,4.211967,-0.1799,-0.040012,-0.251829,31.85,65.6702821785306
2292,-8.443074,-3.765106,4.181458,-0.186772,-0.032987,-0.26985,31.85,65.6619757634995
2302,-8.379665,-3.757928,4.153342,-0.189215,-0.024587,-0.277791,31.88,65.6651269340202
2312,-8.299506,-3.760321,4.115655,-0.188605,-0.016035,-0.276722,31.88,65.6916641497661
2322,-8.235497,-3.760919,4.09711,-0.18387,-0.008094,-0.265726,31.88,65.6514108948685
2332,-8.184052,-3.786044,4.055834,-0.175013,-0.000153,-0.246331,31.88,65.7827144206095
2342,-8.112267,-3.78066,4.027121,-0.162796,0.007941,-0.218079,31.89,65.7742410734805
2352,-8.063812,-3.788436,3.985844,-0.147677,0.015577,-0.182496,31.89,65.8974320597785
2362,-8.022536,-3.786642,3.962514,-0.12874,0.022449,-0.140499,31.84,65.9312465813742
2372,-7.991429,-3.785445,3.948756,-0.10965,0.029474,-0.094226,31.84,65.9364778676916
2382,-7.971688,-3.792624,3.936193,-0.088728,0.035125,-0.044135,31.88,65.9688134888392
2392,-7.963314,-3.793222,3.915854,-0.066737,0.039095,0.00672,31.88,66.0614396614386
2402,-7.952547,-3.787838,3.911069,-0.046273,0.043219,0.057116,31.89,66.0584063159887
2412,-7.978269,-3.776472,3.906881,-0.024893,0.046426,0.10736,31.89,66.1253508479907
2422,-7.993822,-3.777071,3.911069,-0.00504,0.047495,0.153938,31.83,66.1369940921375
2432,-8.090134,-3.759723,3.926024,0.012828,0.048258,0.196699,31.83,66.2464919947998
2442,-8.137392,-3.756134,3.930809,0.041692,0.045357,0.262977,31.86,66.3184192392368
2452,-8.2014,-3.737589,3.945765,0.050702,0.041539,0.283594,31.86,66.3566589880447
2462,-8.271988,-3.725027,3.969693,0.057879,0.03711,0.298408,31.86,66.367003429003
2472,-8.337791,-3.728018,3.983452,0.060628,0.03146,0.302531,31.88,66.4357343321167
2482,-8.412566,-3.716054,4.011567,0.059865,0.024282,0.298408,31.88,66.4334740456829
2492,-8.475977,-3.708875,4.033103,0.056505,0.016493,0.286496,31.88,66.4466082578863
2502,-8.529217,-3.690331,4.059424,0.050396,0.008247,0.267559,31.88,66.4038025061749
2512,-8.593225,-3.681956,4.067201,0.040928,-0.000458,0.240681,31.93,66.4885527224646
2522,-8.630314,-3.68375,4.096512,0.028711,-0.00901,0.208,31.93,66.4158503165072
2532,-8.663215,-3.667599,4.116253,0.015119,-0.018326,0.1715,31.85,66.368391467831
2542,-8.699106,-3.66401,4.133601,-0.000764,-0.027489,0.129656,31.85,66.3506042280824
2552,-8.714063,-3.67059,4.149753,-0.018173,-0.035583,0.086437,31.91,66.3048748339959
2562,-8.739785,-3.661617,4.156333,-0.034972,-0.042302,0.042761,31.91,66.316548657823
2572,-8.733803,-3.653242,4.158726,-0.053298,-0.050091,-0.000764,31.84,66.2849258500415
2582,-8.71107,-3.658626,4.168297,-0.071624,-0.056658,-0.042761,31.84,66.1941676264468
2592,-8.679366,-3.661019,4.166502,-0.088117,-0.061697,-0.081245,31.88,66.1397779125805
2602,-8.644073,-3.662813,4.141378,-0.104153,-0.065821,-0.115148,31.88,66.1962305130212
2612,-8.550752,-3.67059,4.124628,-0.118813,-0.071471,-0.167377,31.9,66.0944055929503
2622,-8.499905,-3.677171,4.102495,-0.139277,-0.072693,-0.181885,31.86,66.1077956781057
2632,-8.440084,-3.689733,4.07737,-0.144928,-0.073915,-0.189368,31.86,66.123622816661
2642,-8.379665,-3.694518,4.057031,-0.14676,-0.073915,-0.188757,31.86,66.1063734183852
2652,-8.312666,-3.703491,4.034299,-0.146913,-0.074526,-0.182496,31.86,66.0916771889751
2662,-8.268997,-3.707679,4.012166,-0.143401,-0.07422,-0.168141,31.89,66.119247669291
2672,-8.205587,-3.721437,4.001398,-0.136223,-0.074831,-0.149662,31.89,66.0537755587809
2682,-8.168499,-3.727419,3.981657,-0.125991,-0.074067,-0.123547,31.86,66.0849561676732
2692,-8.129615,-3.731009,3.968496,-0.114079,-0.072693,-0.093768,31.86,66.0750224505336
2702,-8.088937,-3.731607,3.965506,-0.099724,-0.071166,-0.061087,31.87,66.0036196441808
2712,-8.070992,-3.743571,3.955336,-0.084147,-0.06857,-0.026878,31.87,66.031337302259
2722,-8.060224,-3.742973,3.959523,-0.067959,-0.066126,0.00901,31.85,65.9848362983608
2732,-8.045866,-3.745964,3.958327,-0.051465,-0.062461,0.044593,31.85,65.963063146541
2742,-8.062616,-3.741776,3.973282,-0.034667,-0.057727,0.076511,31.87,65.9148650127153
2752,-8.08475,-3.738786,3.985246,-0.018631,-0.052229,0.109192,31.87,65.8958450375699
2762,-8.102098,-3.732205,4.004987,-0.004123,-0.045968,0.135918,31.85,65.8213513329553
2772,-8.134999,-3.732205,4.062415,0.007789,-0.039706,0.157145,31.85,65.5873303531313
2782,-8.235497,-3.717848,4.09711,0.018173,-0.031765,0.185398,31.87,65.6090129964847
2793,-8.298308,-3.705884,4.125825,0.028711,-0.013897,0.189674,31.86,65.5831045381337
2802,-8.342576,-3.701099,4.145566,0.029474,-0.002749,0.187077,31.86,65.5713193851407
2812,-8.38804,-3.698107,4.186243,0.026114,0.008247,0.178067,31.93,65.4556756682841
2822,-8.438289,-3.69392,4.207779,0.019548,0.019853,0.163406,31.93,65.4490045507372
2832,-8.486146,-3.701697,4.222135,0.010232,0.031154,0.142026,31.86,65.4853608245015
2842,-8.522038,-3.69392,4.239483,-0.001374,0.042302,0.116828,31.86,65.4662041529417
2852,-8.560324,-3.689733,4.245465,-0.014355,0.052534,0.089034,31.88,65.5135320584829
2862,-8.59143,-3.680759,4.242475,-0.029932,0.061697,0.05681,31.88,65.5866441365473
2872,-8.6016,-3.689733,4.244269,-0.046273,0.069028,0.023671,31.86,65.6072234243103
2882,-8.605787,-3.679563,4.22752,-0.062614,0.075136,-0.010079,31.86,65.6919683555223
2892,-8.599805,-3.685545,4.200002,-0.07926,0.078954,-0.042302,31.87,65.8248410628261
2902,-8.600404,-3.704688,4.185047,-0.09499,0.081092,-0.073915,31.87,65.9195998485457
2912,-8.577671,-3.695715,4.146163,-0.108887,0.081092,-0.102473,31.89,66.062759501191
2922,-8.562119,-3.71067,4.110869,-0.121257,0.079718,-0.127213,31.89,66.224993835615
2932,-8.529815,-3.718446,4.081557,-0.130725,0.074373,-0.148746,31.87,66.3159505082766
2942,-8.497512,-3.725027,4.048058,-0.13775,0.065821,-0.16585,31.87,66.428285979501
2952,-8.425129,-3.738187,3.976273,-0.140804,0.05681,-0.175929,31.89,66.66478254715
2962,-8.383853,-3.751348,3.941577,-0.138819,0.031765,-0.178067,31.87,66.7739600391411
2972,-8.331809,-3.769294,3.912863,-0.134543,0.017715,-0.171348,31.87,66.8348680263365
2982,-8.296515,-3.762115,3.89073,-0.126755,0.003207,-0.158367,31.88,66.8726734831716
2992,-8.258228,-3.768696,3.866203,-0.117592,-0.012981,-0.140652,31.88,66.9303828014882
3002,-8.225328,-3.775276,3.865605,-0.105985,-0.027794,-0.118202,31.89,66.8715850913552
3012,-8.198408,-3.772285,3.866203,-0.094379,-0.04215,-0.092699,31.89,66.8094420467234
3022,-8.183454,-3.779463,3.861418,-0.08094,-0.055741,-0.064599,31.87,66.8108083644845
3032,-8.170293,-3.784249,3.867399,-0.066737,-0.068111,-0.034361,31.87,66.7557881251916
3042,-8.159525,-3.789035,3.885346,-0.054825,-0.077427,-0.003207,31.88,66.6414786369086
3052,-8.157133,-3.779463,3.897908,-0.041692,-0.08491,0.029016,31.88,66.5596777007413
3062,-8.169096,-3.777071,3.915256,-0.029932,-0.091477,0.060476,31.85,66.489640439404
3072,-8.19123,-3.775276,3.946362,-0.020311,-0.096211,0.088575,31.85,66.3685454916396
3082,-8.201998,-3.768696,3.967898,-0.010843,-0.099113,0.115606,31.85,66.2702735913117
3092,-8.233703,-3.76391,3.983452,-0.002902,-0.100029,0.140194,31.85,66.2503306205713
3102,-8.25165,-3.769294,4.023531,0.002596,-0.09896,0.158978,31.82,66.0816908302146
3112,-8.292925,-3.743571,4.046263,0.007025,-0.096975,0.175318,31.82,66.0249867354157
3122,-8.36112,-3.746562,4.092325,0.009163,-0.094684,0.185398,31.86,65.9318163270051
3132,-8.398808,-3.739383,4.11386,0.009316,-0.087812,0.192728,31.86,65.8930031385831
3142,-8.437093,-3.737589,4.123432,0.005192,-0.082772,0.188757,31.85,65.9228018751362
3152,-8.469396,-3.739383,4.141976,0.001833,-0.079412,0.178525,31.85,65.8969172138424
3162,-8.491529,-3.73041,4.160521,-0.003207,-0.074984,0.165392,31.85,65.8398026291691
3172,-8.522635,-3.725027,4.162315,-0.008399,-0.071624,0.147371,31.85,65.8911937282286
3182,-8.53161,-3.713661,4.168896,-0.014508,-0.067653,0.126602,31.85,65.8658905576877
3192,-8.541181,-3.711268,4.180261,-0.022144,-0.065057,0.103389,31.89,65.8256281401833
3202,-8.534599,-3.705884,4.174878,-0.028253,-0.062003,0.077885,31.89,65.8343939592693
3212,-8.528021,-3.705286,4.165306,-0.035125,-0.059101,0.051924,31.88,65.8690671240405
3222,-8.535797,-3.710072,4.162913,-0.040928,-0.057727,0.025809,31.88,65.9021062541139
3232,-8.509476,-3.707679,4.154539,-0.046884,-0.0562,0.000916,31.85,65.8874587471918
3242,-8.483154,-3.713063,4.153342,-0.051924,-0.053603,-0.023976,31.85,65.8429620756714
3252,-8.451449,-3.718446,4.143172,-0.055589,-0.050549,-0.045509,31.88,65.8332435223491
3262,-8.409575,-3.710072,4.127619,-0.059559,-0.047647,-0.065363,31.88,65.8168655198318
3272,-8.38445,-3.708277,4.124628,-0.061392,-0.043982,-0.080634,31.91,65.7770636840536
3282,-8.332406,-3.728018,4.125226,-0.062766,-0.038943,-0.093768,31.91,65.6811828606966
3292,-8.310871,-3.71725,4.110869,-0.06353,-0.033139,-0.10064,31.88,65.6994049523641
3302,-8.24148,-3.732205,4.099504,-0.063072,-0.027031,-0.102014,31.88,65.6235127438111
3312,-8.201998,-3.725027,4.109673,-0.062003,-0.008858,-0.096364,31.86,65.4769565631032
3322,-8.181659,-3.725625,4.114459,-0.060781,0.001833,-0.086896,31.9,65.4077845464853
3332,-8.168499,-3.723232,4.108477,-0.059101,0.013286,-0.073609,31.9,65.4080325225086
3342,-8.148159,-3.723232,4.112065,-0.056963,0.025962,-0.058032,31.9,65.3443085302457
3352,-8.139186,-3.717848,4.105485,-0.055589,0.039095,-0.040317,31.9,65.3538649797132
3362,-8.148758,-3.713661,4.110271,-0.05452,0.052382,-0.021228,31.84,65.3454726537352
3372,-8.146963,-3.709473,4.115057,-0.054214,0.067042,-0.000305,31.84,65.3120025614462
3382,-8.16132,-3.714259,4.110869,-0.05452,0.081856,0.020464,31.87,65.3706164758028
3392,-8.182856,-3.705884,4.108477,-0.054978,0.094684,0.040928,31.87,65.4222625606915
3402,-8.215158,-3.698706,4.121637,-0.0562,0.107054,0.059712,31.88,65.4167596147069
3412,-8.233105,-3.702295,4.097709,-0.057727,0.118813,0.078038,31.88,65.5854064899954
3422,-8.276175,-3.698706,4.094718,-0.060018,0.128434,0.092699,31.86,65.6911707040323
3432,-8.317451,-3.688536,4.080361,-0.063225,0.134848,0.104153,31.86,65.8457578586387
3442,-8.356335,-3.70409,4.06062,-0.065515,0.138514,0.112399,31.88,66.0470459501371
3452,-8.400601,-3.685545,4.052843,-0.067806,0.138361,0.117439,31.88,66.1642367795153
3462,-8.445468,-3.695715,4.01396,-0.069639,0.135307,0.12034,31.87,66.4709463336941
3472,-8.523234,-3.696911,3.994817,-0.071319,0.127824,0.112094,31.87,66.7327183584183
3482,-8.546564,-3.695715,3.975077,-0.073151,0.102473,0.102473,31.83,66.8821416010621
3492,-8.58126,-3.681358,3.9673,-0.073151,0.084452,0.089492,31.91,66.9805992071648
3502,-8.596813,-3.701697,3.94397,-0.073915,0.063683,0.073304,31.91,67.150962583775
3512,-8.622537,-3.7005,3.936193,-0.072693,0.041233,0.055436,31.82,67.2419576984767
3522,-8.616553,-3.696911,3.916452,-0.070708,0.016493,0.037874,31.82,67.3295224417422
3532,-8.629715,-3.699304,3.906881,-0.069333,-0.009774,0.016188,31.87,67.4075955841734
3542,-8.618947,-3.7005,3.907479,-0.066432,-0.035736,-0.004123,31.87,67.3840671193781
3552,-8.599206,-3.698107,3.90389,-0.06353,-0.062003,-0.025504,31.87,67.3613283318403
3562,-8.575877,-3.70409,3.905685,-0.060628,-0.087659,-0.045051,31.87,67.3104469865359
3572,-8.547761,-3.708875,3.911069,-0.057727,-0.110872,-0.063377,31.87,67.2300090732173
3582,-8.52144,-3.721437,3.920042,-0.05452,-0.132252,-0.078649,31.87,67.1410165478087
3592,-8.488539,-3.705286,3.934398,-0.051618,-0.151036,-0.092088,31.91,66.9847119768202
3602,-8.453244,-3.731607,3.954738,-0.049022,-0.166766,-0.102625,31.91,66.8295422509697
3612,-8.410771,-3.722634,3.964907,-0.047647,-0.178373,-0.109498,31.8,66.6804601902849
3622,-8.376076,-3.728616,3.997808,-0.045509,-0.187688,-0.11301,31.8,66.4409817900045
3633,-8.298907,-3.734598,4.043272,-0.04444,-0.191506,-0.113774,31.87,66.0448411086162
3642,-8.248658,-3.734,4.054638,-0.043371,-0.192423,-0.110719,31.87,65.8768799015862
3652,-8.214561,-3.743571,4.074977,-0.043066,-0.180969,-0.092852,31.85,65.7054569761301
3662,-8.193025,-3.744169,4.096512,-0.042608,-0.169668,-0.078649,31.86,65.5457323092834
3672,-8.159525,-3.746562,4.113262,-0.042913,-0.156229,-0.060934,31.86,65.3865203579793
3682,-8.138588,-3.748955,4.128217,-0.042455,-0.13943,-0.042302,31.85,65.2639686374175
3692,-8.126624,-3.753142,4.123432,-0.043677,-0.121562,-0.022297,31.85,65.2670719361662
3702,-8.111071,-3.748955,4.13719,-0.044135,-0.101556,-0.000305,31.86,65.1557144456985
3712,-8.111071,-3.760919,4.145566,-0.043219,-0.081092,0.022755,31.86,65.1238014285109
3722,-8.118249,-3.762115,4.144369,-0.043371,-0.060934,0.045204,31.86,65.1472583013641
3732,-8.13799,-3.765705,4.14078,-0.043524,-0.040623,0.066279,31.86,65.2135025288886
3742,-8.149954,-3.76391,4.142574,-0.04383,-0.021838,0.086743,31.89,65.2286181402902
3752,-8.170892,-3.757928,4.140181,-0.043677,-0.00504,0.104458,31.89,65.2812288610994
3762,-8.20798,-3.763312,4.128816,-0.044288,0.010079,0.12034,31.83,65.4275567295402
3772,-8.239087,-3.750151,4.126423,-0.044135,0.023213,0.133474,31.83,65.4947563578377
3782,-8.280362,-3.76391,4.126423,-0.043982,0.033139,0.141263,31.88,65.597706092134
3792,-8.313264,-3.759723,4.112664,-0.04383,0.040623,0.146455,31.88,65.7362262279787
3802,-8.346166,-3.747759,4.110271,-0.043066,0.04612,0.148593,31.88,65.8075668069543
3812,-8.390432,-3.750151,4.098905,-0.04383,0.048258,0.145233,31.88,65.963138879773
3822,-8.469396,-3.748357,4.089334,-0.043371,0.047037,0.13042,31.86,66.177239792089
3832,-8.496913,-3.744169,4.08754,-0.04383,0.042608,0.116981,31.88,66.240068655417
3842,-8.523234,-3.744768,4.095316,-0.044135,0.036499,0.100793,31.88,66.2552061820616
3852,-8.550752,-3.745365,4.089932,-0.045051,0.030849,0.082314,31.91,66.3404994956787
3862,-8.544769,-3.725625,4.09053,-0.045662,0.023976,0.062156,31.91,66.3071790873181
3872,-8.565108,-3.742973,4.101298,-0.047037,0.016493,0.04047,31.89,66.3095296564327
3882,-8.577072,-3.725625,4.107878,-0.048869,0.009316,0.017715,31.89,66.2848323558442
3892,-8.566306,-3.718446,4.109075,-0.050549,0.003665,-0.004887,31.91,66.2499153413818
3902,-8.552546,-3.713661,4.109673,-0.053145,-0.001527,-0.027489,31.91,66.213938112538
3912,-8.528618,-3.720839,4.119842,-0.055283,-0.005192,-0.048258,31.88,66.118228928234
3922,-8.505887,-3.709473,4.122235,-0.057727,-0.006872,-0.066432,31.88,66.0479039838386
3932,-8.487941,-3.720241,4.128816,-0.060934,-0.00672,-0.084147,31.87,65.9861297658625
3942,-8.447861,-3.721437,4.135396,-0.06353,-0.00504,-0.097738,31.87,65.8686087431063
3952,-8.416155,-3.722036,4.13061,-0.066126,-0.001069,-0.107512,31.88,65.8266210741431
3962,-8.362316,-3.721437,4.122235,-0.068264,0.004734,-0.114232,31.88,65.7546377251633
3972,-8.335398,-3.712464,4.12044,-0.071166,0.011912,-0.11637,31.84,65.6976383721295
3982,-8.286943,-3.716054,4.091129,-0.072693,0.020922,-0.114385,31.84,65.7500402710038
3992,-8.216354,-3.722634,4.071388,-0.072846,0.031154,-0.100029,31.88,65.7076523156774
4002,-8.188837,-3.720839,4.064209,-0.071319,0.05284,-0.085979,31.85,65.6840229275995
4012,-8.172686,-3.725625,4.028317,-0.069486,0.062003,-0.071013,31.85,65.8439194139935
4022,-8.151749,-3.72383,3.993621,-0.066279,0.069486,-0.051618,31.88,65.9814902342752
4032,-8.134999,-3.710072,3.992425,-0.062003,0.076205,-0.029627,31.88,65.9379853084986
4043,-8.140981,-3.719643,3.963113,-0.05681,0.080787,-0.006414,31.88,66.1171208249709
4052,-8.134401,-3.725625,3.941577,-0.052229,0.082772,0.01741,31.88,66.2242310939813
4062,-8.146365,-3.727419,3.922434,-0.046426,0.082467,0.042302,31.89,66.3543229294323
4072,-8.167302,-3.727419,3.895515,-0.040775,0.07926,0.06689,31.89,66.5434086583932
4082,-8.196614,-3.722036,3.888337,-0.034819,0.073151,0.089186,31.89,66.6387434073939
4092,-8.223534,-3.707081,3.888935,-0.029474,0.063988,0.110719,31.89,66.6780096127742
4102,-8.268997,-3.71067,3.88714,-0.024282,0.051924,0.128893,31.87,66.7863405271762
4112,-8.30489,-3.706482,3.885346,-0.0197,0.037874,0.14447,31.87,66.8668004293396
4122,-8.34796,-3.714259,3.890131,-0.016341,0.021991,0.156382,31.89,66.9377618065126
4132,-8.394022,-3.704688,3.900899,-0.014355,0.004276,0.164323,31.89,66.9669000488278
4142,-8.461619,-3.707081,3.91406,-0.012523,-0.014203,0.167988,31.88,67.0381470337683
4152,-8.484351,-3.695715,3.930809,-0.012828,-0.034667,0.165697,31.88,66.9864596732453
4162,-8.569895,-3.688536,3.961318,-0.014355,-0.053603,0.159894,31.86,66.9949039961578
4172,-8.611171,-3.680161,3.992425,-0.018479,-0.094073,0.134696,31.86,66.9099297524173
4182,-8.627322,-3.688536,4.019344,-0.022755,-0.112246,0.117592,31.84,66.8108728535765
4192,-8.647062,-3.696313,4.037888,-0.027489,-0.127976,0.096211,31.87,66.7621952838736
4202,-8.670991,-3.682554,4.065406,-0.032681,-0.142026,0.072082,31.87,66.6576149116242
4212,-8.656634,-3.685545,4.091727,-0.039248,-0.154243,0.04612,31.84,66.4960104147242
4222,-8.659027,-3.680759,4.119842,-0.045815,-0.163712,0.01909,31.84,66.3529209775796
4232,-8.635098,-3.682554,4.133601,-0.053603,-0.171042,-0.007941,31.88,66.2347663561434
4242,-8.615956,-3.67418,4.144967,-0.06017,-0.173791,-0.034361,31.88,66.1294820294187
4252,-8.586643,-3.691527,4.158128,-0.065821,-0.173638,-0.059712,31.89,66.0164741910475
4262,-8.541181,-3.699902,4.168297,-0.072846,-0.1715,-0.083383,31.89,65.8765389134376
4272,-8.496315,-3.697509,4.173681,-0.078496,-0.165086,-0.103389,31.85,65.7518102128083
4282,-8.456235,-3.701697,4.180261,-0.08262,-0.157145,-0.119119,31.85,65.6364789545163
4292,-8.38804,-3.714259,4.175476,-0.085063,-0.145539,-0.131794,31.85,65.5267654798572
4302,-8.337193,-3.71067,4.183851,-0.087201,-0.132405,-0.140499,31.85,65.3699389507432
4312,-8.285149,-3.722634,4.1671,-0.087812,-0.117744,-0.143401,31.85,65.3553893820645
4322,-8.22473,-3.746562,4.155136,-0.087048,-0.101251,-0.14279,31.85,65.3094982085388
4332,-8.175079,-3.741776,4.138387,-0.085216,-0.083994,-0.136528,31.86,65.283569819901
4342,-8.100304,-3.749553,4.119244,-0.081551,-0.047495,-0.11301,31.86,65.2273134187206
4352,-8.068,-3.754339,4.103093,-0.071319,-0.029322,-0.0956,31.9,65.2462045903709
4362,-8.045866,-3.754937,4.092923,-0.065363,-0.011759,-0.074067,31.86,65.2517176546061
4372,-8.038688,-3.74716,4.08395,-0.057727,0.006109,-0.049938,31.86,65.2754792536206
4382,-8.032107,-3.754339,4.083352,-0.050244,0.022297,-0.025809,31.88,65.2714820742581
4392,-8.024331,-3.75075,4.071986,-0.042913,0.037263,0.000764,31.88,65.3111013919952
4402,-8.050652,-3.754339,4.068995,-0.035583,0.051771,0.026725,31.87,65.3891734987711
4412,-8.069196,-3.757928,4.066004,-0.029169,0.064141,0.053451,31.87,65.4497744125528
4422,-8.103892,-3.759125,4.058825,-0.024129,0.075595,0.076205,31.83,65.5654646869124
4432,-8.146963,-3.756732,4.068397,-0.019853,0.085521,0.097891,31.83,65.6064151572762
4442,-8.196015,-3.75075,4.070191,-0.016188,0.093157,0.115454,31.83,65.6976261288455
4452,-8.239684,-3.744169,4.078567,-0.013897,0.099266,0.129045,31.83,65.74145966683
4462,-8.309077,-3.739383,4.079762,-0.014508,0.103847,0.139277,31.84,65.8796460029
4472,-8.361719,-3.74058,4.083352,-0.014508,0.105985,0.144775,31.84,65.9742002090877
4482,-8.410173,-3.739383,4.095914,-0.01741,0.10736,0.14508,31.86,66.0102873345875
4492,-8.46102,-3.722036,4.098307,-0.020769,0.106749,0.140499,31.86,66.0888680622782
4502,-8.508279,-3.725625,4.095316,-0.025351,0.103389,0.131183,31.88,66.206603220215
4512,-8.587841,-3.722036,4.103691,-0.031307,0.09896,0.100029,31.88,66.325378403259
4522,-8.620144,-3.713063,4.098905,-0.043371,0.085674,0.080329,31.87,66.4085165703029
4532,-8.6345,-3.714857,4.096512,-0.051618,0.077885,0.057269,31.89,66.4518456724466
4542,-8.642278,-3.721437,4.088138,-0.059101,0.068722,0.032834,31.89,66.5164636308223
4553,-8.652448,-3.720241,4.080361,-0.066126,0.058338,0.007941,31.9,66.5760083135956
4562,-8.637491,-3.727419,4.073183,-0.07254,0.047189,-0.018631,31.9,66.5886089065234
4572,-8.625527,-3.724428,4.059424,-0.078649,0.035888,-0.043066,31.9,66.6322237024615
4582,-8.597412,-3.723232,4.04387,-0.083994,0.023824,-0.065515,31.9,66.6538666005679
4592,-8.5681,-3.718446,4.028915,-0.088117,0.011301,-0.085521,31.88,66.6669271158418
4602,-8.520842,-3.735196,4.015156,-0.090713,-0.000611,-0.10064,31.88,66.6563497254299
4612,-8.480165,-3.729214,3.990032,-0.091019,-0.012523,-0.113468,31.86,66.6981362977034
4622,-8.439486,-3.735196,3.970889,-0.091477,-0.023671,-0.121868,31.86,66.7198873803686
4632,-8.385049,-3.736991,3.952345,-0.088728,-0.034361,-0.124464,31.9,66.7064687558313
4642,-8.34796,-3.741776,3.942773,-0.086285,-0.044746,-0.122173,31.9,66.684462531712
4652,-8.292327,-3.74716,3.924229,-0.082161,-0.054062,-0.114385,31.92,66.6718860586317
4662,-8.251051,-3.741179,3.915854,-0.074831,-0.06185,-0.101098,31.92,66.624416577027
4672,-8.225926,-3.749553,3.910471,-0.067959,-0.069791,-0.086132,31.89,66.6083701071492
4682,-8.164311,-3.739383,3.906881,-0.058643,-0.076816,-0.066584,31.89,66.4876554624765
4692,-8.155936,-3.755535,3.905087,-0.039095,-0.087965,-0.018021,31.87,66.4952506674578
4702,-8.139785,-3.748955,3.911069,-0.028863,-0.091935,0.009621,31.9,66.4223896946017
4712,-8.136195,-3.751348,3.923631,-0.018937,-0.09499,0.03711,31.9,66.3496522572783
4722,-8.139785,-3.745964,3.942773,-0.009316,-0.097738,0.064752,31.89,66.2493946389452
4732,-8.150552,-3.734598,3.969693,0.000305,-0.098044,0.091324,31.89,66.1172744357496
4742,-8.182258,-3.731009,3.988237,0.00901,-0.097891,0.115454,31.86,66.0829963888673
4752,-8.206185,-3.726821,4.009174,0.015577,-0.096669,0.136834,31.86,66.0190262956965
4762,-8.24148,-3.71725,4.030112,0.020922,-0.094073,0.154396,31.9,65.974654873677
4772,-8.261818,-3.713661,4.064209,0.024893,-0.091019,0.168293,31.9,65.835037090632
4782,-8.30489,-3.707679,4.088736,0.026878,-0.086285,0.176998,31.89,65.7931646400612
4794,-8.340781,-3.701697,4.110271,0.026878,-0.081551,0.181122,31.89,65.7519787677637
4802,-8.392825,-3.692126,4.133601,0.024893,-0.076205,0.178678,31.87,65.7331226876192
4812,-8.423933,-3.681358,4.148556,0.021686,-0.069486,0.173638,31.87,65.712093821844
4822,-8.458628,-3.686144,4.170092,0.016188,-0.06185,0.162337,31.86,65.6794842350143
4832,-8.492725,-3.678366,4.191627,0.008247,-0.054825,0.14615,31.86,65.6342525362475
4842,-8.510672,-3.671786,4.210171,0.000305,-0.046884,0.126296,31.89,65.5713696691006
4852,-8.525029,-3.681358,4.216154,-0.008705,-0.039248,0.103847,31.89,65.5802054682666
4862,-8.543573,-3.677768,4.225725,-0.019853,-0.025045,0.050091,31.89,65.5675173779282
4872,-8.550154,-3.680161,4.21735,-0.042761,-0.018173,0.020159,31.88,65.6264798207326
4882,-8.529217,-3.681956,4.224528,-0.054367,-0.011148,-0.00901,31.88,65.5468720106316
4892,-8.519047,-3.677171,4.213162,-0.065057,-0.00504,-0.036805,31.86,65.5788994879337
4902,-8.511271,-3.686741,4.191029,-0.074831,0.001222,-0.062614,31.86,65.6845721555649
4912,-8.477173,-3.698706,4.180261,-0.083841,0.007025,-0.08659,31.83,65.6783680456943
4922,-8.438888,-3.692126,4.165306,-0.092699,0.01237,-0.106749,31.83,65.6675633187571
4932,-8.414959,-3.692724,4.14736,-0.098502,0.018326,-0.124006,31.91,65.7097314924419
4942,-8.365907,-3.707081,4.129414,-0.103389,0.023213,-0.135918,31.91,65.711315721615
4952,-8.352147,-3.71067,4.108477,-0.106901,0.027489,-0.141721,31.89,65.7942770321975
4964,-8.31446,-3.716652,4.097709,-0.108429,0.032223,-0.144622,31.89,65.7753760199062
4972,-8.282157,-3.71725,4.069593,-0.108276,0.036805,-0.142484,31.87,65.8539554358715
4982,-8.25165,-3.726223,4.058227,-0.105985,0.041386,-0.134543,31.87,65.8568372236294
4992,-8.232506,-3.723232,4.041477,-0.103084,0.044593,-0.124158,31.86,65.9010946093473
5002,-8.209177,-3.729214,4.015156,-0.098197,0.047495,-0.108734,31.86,65.9960604646154
5012,-8.204989,-3.727419,4.001996,-0.092393,0.049938,-0.090561,31.87,66.0551467772619
5022,-8.19781,-3.725625,3.978068,-0.085063,0.052229,-0.068417,31.87,66.1652353069785
5032,-8.194819,-3.721437,3.972086,-0.07758,0.053756,-0.021686,31.88,66.186617804351
5042,-8.20798,-3.729812,3.972086,-0.060323,0.053756,0.003207,31.86,66.2228882630273
5052,-8.222935,-3.741776,3.966702,-0.051465,0.052382,0.027184,31.86,66.2949669306188
5062,-8.245667,-3.732205,3.971487,-0.04444,0.049327,0.0478,31.91,66.3085926368744
5072,-8.26481,-3.736991,3.970889,-0.035736,0.045815,0.068417,31.91,66.3569007640519
5082,-8.312666,-3.735196,3.976871,-0.028863,0.041844,0.084299,31.87,66.4244412480974
5092,-8.330612,-3.74058,3.976871,-0.022602,0.035736,0.097891,31.87,66.4671807154426
5102,-8.367103,-3.734,3.972684,-0.017868,0.029322,0.107512,31.87,66.5593418478689
5112,-8.402995,-3.736991,3.981059,-0.014508,0.021533,0.112705,31.87,66.5927460123171
5122,-8.446067,-3.722036,3.990032,-0.011454,0.013439,0.114232,31.89,66.6212748031644
5132,-8.467003,-3.73041,3.996612,-0.009621,0.003512,0.110261,31.89,66.6377740944116
5142,-8.478967,-3.716054,4.001398,-0.010385,-0.005803,0.103236,31.88,66.6244779129998
5152,-8.491529,-3.729214,4.004987,-0.011148,-0.016188,0.092546,31.88,66.643576535659
5162,-8.525627,-3.726223,4.019942,-0.012981,-0.026878,0.079718,31.86,66.6332688983225
5172,-8.522635,-3.719643,4.027121,-0.015577,-0.037874,0.062308,31.86,66.5839528633872
5182,-8.535797,-3.716054,4.041477,-0.0197,-0.048106,0.044288,31.89,66.5334333957941
5192,-8.532805,-3.719643,4.045665,-0.023976,-0.057879,0.025504,31.89,66.508802658407
5202,-8.515458,-3.739383,4.052245,-0.028711,-0.067195,0.004581,31.9,66.4567552283932
5212,-8.496913,-3.725027,4.050451,-0.040317,-0.082314,-0.034056,31.85,66.4146304160861
5222,-8.459227,-3.732804,4.055834,-0.044899,-0.088575,-0.049327,31.85,66.3154179112771
5232,-8.438289,-3.725027,4.066004,-0.04948,-0.092546,-0.062308,31.86,66.2115754148165
5242,-8.395817,-3.739383,4.071986,-0.053603,-0.0956,-0.072693,31.86,66.1044935185787
5252,-8.370093,-3.741776,4.073183,-0.057116,-0.096364,-0.079107,31.86,66.0461547174372
5262,-8.340183,-3.736392,4.073183,-0.059559,-0.094531,-0.080787,31.86,65.9775689155099
5273,-8.3013,-3.754339,4.089334,-0.061087,-0.092546,-0.079412,31.88,65.8273225022224
5282,-8.27139,-3.744169,4.09053,-0.061087,-0.087048,-0.073762,31.88,65.7469645803634
5292,-8.240881,-3.755535,4.076771,-0.060628,-0.079871,-0.064446,31.84,65.7646468141276
5302,-8.223534,-3.747759,4.081557,-0.059865,-0.072235,-0.051313,31.84,65.6943435305593
5312,-8.206783,-3.750151,4.089932,-0.057421,-0.062461,-0.035125,31.89,65.6162862828094
5322,-8.198408,-3.753741,4.089932,-0.05452,-0.052229,-0.016493,31.89,65.6016586146657
5332,-8.189436,-3.747759,4.085745,-0.050855,-0.040928,0.004276,31.86,65.598267900793
5342,-8.182856,-3.745964,4.079165,-0.046884,-0.030391,0.024129,31.86,65.616892035084
5352,-8.196015,-3.759125,4.077968,-0.043982,-0.01909,0.044746,31.84,65.6649016035875
5362,-8.20798,-3.746562,4.084548,-0.039554,-0.009468,0.064599,31.84,65.6436942797954
5372,-8.24148,-3.741179,4.082754,-0.034361,0.000611,0.08262,31.85,65.7203775598388
5382,-8.28156,-3.745365,4.082754,-0.030543,0.017104,0.113163,31.85,65.8107827828817
5392,-8.300103,-3.738187,4.079165,-0.023366,0.022602,0.122784,31.88,65.8624159280192
5402,-8.345568,-3.728616,4.082156,-0.020311,0.02642,0.129351,31.89,65.9347147392585
5412,-8.374879,-3.726821,4.085146,-0.017868,0.029016,0.132863,31.89,65.9797495435783
5422,-8.404789,-3.722036,4.08395,-0.016646,0.029016,0.129809,31.89,66.0448584679227
5432,-8.437093,-3.719643,4.074379,-0.015119,0.027031,0.123395,31.89,66.1605278446641
5442,-8.468199,-3.722036,4.085745,-0.01405,0.025351,0.113774,31.89,66.1690277387095
5452,-8.491529,-3.702295,4.088138,-0.015577,0.021533,0.100182,31.89,66.187403978833
5462,-8.512466,-3.70409,4.093522,-0.016799,0.016341,0.083689,31.89,66.2049877704539
5472,-8.519047,-3.710072,4.082156,-0.018479,0.011454,0.063988,31.89,66.2828819512396
5482,-8.526823,-3.701697,4.080959,-0.021686,0.005956,0.044899,31.86,66.2976739508723
5492,-8.525029,-3.698706,4.086941,-0.024587,-0.000305,0.022449,31.86,66.2603248836517
5502,-8.522635,-3.702295,4.083352,-0.028405,-0.005651,0.000611,31.88,66.2771282270834
5512,-8.514261,-3.686741,4.093522,-0.032681,-0.010232,-0.020922,31.88,66.1929942187631
5522,-8.501699,-3.695715,4.09711,-0.037568,-0.014355,-0.042302,31.88,66.1562900220227
5532,-8.482555,-3.692126,4.103691,-0.042455,-0.017257,-0.061392,31.88,66.0787606644367
5542,-8.459227,-3.692126,4.104887,-0.046578,-0.018021,-0.078191,31.8,66.0233766221597
5552,-8.38146,-3.694518,4.097709,-0.051465,-0.016493,-0.101404,31.8,65.8978088828917
5562,-8.367702,-3.699902,4.092923,-0.059254,-0.013744,-0.108276,31.88,65.8984778368456
5572,-8.340781,-3.697509,4.099504,-0.062614,-0.008247,-0.110872,31.88,65.8042188728069
5582,-8.297711,-3.707679,4.096512,-0.064904,-0.002443,-0.108887,31.88,65.7369550064704
5592,-8.269596,-3.701099,4.089932,-0.066737,0.00504,-0.104458,31.84,65.7043790635369
5602,-8.249256,-3.711268,4.076771,-0.067959,0.013134,-0.094531,31.84,65.7394485725296
5612,-8.219944,-3.708875,4.061816,-0.068417,0.021533,-0.08262,31.9,65.7524800772805
5622,-8.209774,-3.707081,4.057031,-0.068264,0.029932,-0.067653,31.9,65.7539472414337
5632,-8.204391,-3.707679,4.041477,-0.067195,0.038179,-0.050855,31.84,65.8251755497314
5642,-8.199606,-3.71725,4.026522,-0.06521,0.045509,-0.031307,31.84,65.9034568523305
5652,-8.209774,-3.70409,4.014558,-0.062766,0.050855,-0.011301,31.84,65.9760280688499
5662,-8.216953,-3.714259,4.003192,-0.059865,0.055131,0.008552,31.84,66.06168087989
5672,-8.231908,-3.709473,3.99063,-0.0562,0.056047,0.0281,31.84,66.1557848248645
5682,-8.244471,-3.713063,3.978666,-0.052076,0.05681,0.046884,31.84,66.2495664993773
5692,-8.265409,-3.708277,3.961318,-0.048717,0.053451,0.063835,31.8,66.3815729655951
5702,-8.286943,-3.728616,3.955336,-0.045509,0.049022,0.078954,31.8,66.4780626976133
5712,-8.327023,-3.714857,3.952345,-0.041539,0.040623,0.091019,31.82,66.5650922761481
5722,-8.394022,-3.725027,3.953541,-0.039248,0.02978,0.106291,31.82,66.7077361174732
5732,-8.419745,-3.726821,3.936791,-0.031918,0.002443,0.109192,31.91,66.8506120280704
5742,-8.444869,-3.720241,3.940979,-0.029627,-0.013744,0.109192,31.86,66.8742488922606
5752,-8.476574,-3.720839,3.946961,-0.027336,-0.030849,0.104458,31.86,66.9083633623175
5762,-8.502895,-3.712464,3.949354,-0.024893,-0.048717,0.098044,31.86,66.9421041822087
5772,-8.522038,-3.728616,3.954139,-0.023518,-0.06689,0.087201,31.86,66.9704519661321
5782,-8.541181,-3.724428,3.987041,-0.023366,-0.084605,0.074067,31.87,66.834362673022
5792,-8.552546,-3.711866,3.994219,-0.022297,-0.101556,0.059254,31.87,66.8091073179313
5802,-8.55434,-3.720241,4.017549,-0.022297,-0.116217,0.042913,31.86,66.6992010089771
5812,-8.551949,-3.715455,4.0337,-0.021838,-0.12874,0.028405,31.86,66.6063944468698
5822,-8.544172,-3.725625,4.059424,-0.023213,-0.139125,0.010537,31.83,66.4664660767003
5832,-8.520842,-3.723232,4.079165,-0.024587,-0.146302,-0.006567,31.83,66.3140099121967
5842,-8.512466,-3.71725,4.101298,-0.025504,-0.150578,-0.022755,31.84,66.1768117206384
5852,-8.478369,-3.727419,4.11745,-0.027794,-0.150884,-0.037415,31.84,66.0312939828276
5862,-8.461619,-3.735196,4.140181,-0.029932,-0.147677,-0.050549,31.9,65.8858495345303
5872,-8.420342,-3.731607,4.166502,-0.032223,-0.140804,-0.061392,31.9,65.6589050304441
5882,-8.385049,-3.725625,4.177869,-0.035277,-0.131183,-0.070555,31.87,65.5188006848614
5892,-8.309077,-3.736991,4.190431,-0.037415,-0.118966,-0.076816,31.87,65.3002504248925
5902,-8.28156,-3.727419,4.191627,-0.041692,-0.085521,-0.078954,31.89,65.2245600443609
5912,-8.257033,-3.737589,4.204788,-0.044135,-0.065363,-0.076205,31.86,65.1123671920921
5922,-8.228318,-3.742973,4.196413,-0.046273,-0.044746,-0.071929,31.86,65.0981617527145
5932,-8.200802,-3.750151,4.18086,-0.047037,-0.022449,-0.06353,31.83,65.1259451814315
5942,-8.177471,-3.738187,4.17727,-0.049175,-0.001833,-0.054062,31.83,65.0810965646345
5952,-8.166105,-3.745964,4.168297,-0.049022,0.020159,-0.041539,31.87,65.1108769143046
5962,-8.151151,-3.754937,4.159324,-0.049022,0.040164,-0.029169,31.87,65.134038579747
5972,-8.143373,-3.744169,4.135396,-0.04948,0.059865,-0.015119,31.89,65.2318193983238
5982,-8.148159,-3.742973,4.124628,-0.049175,0.076816,-0.001527,31.89,65.2979402028215
5992,-8.165507,-3.744768,4.104887,-0.048564,0.091324,0.012828,31.82,65.4420186784406
6002,-8.173882,-3.748357,4.082156,-0.047953,0.103847,0.026878,31.82,65.5839332626041
6012,-8.191828,-3.744768,4.078567,-0.047189,0.113774,0.039401,31.88,65.6383761133771
6022,-8.225328,-3.736991,4.058227,-0.047037,0.120951,0.05116,31.88,65.8106152880985
6032,-8.258228,-3.749553,4.044468,-0.046578,0.125227,0.060781,31.87,65.9661294527203
6042,-8.277372,-3.728616,4.029513,-0.045968,0.125838,0.069639,31.87,66.0656300966349
6052,-8.309077,-3.736392,4.009772,-0.045204,0.123395,0.074984,31.91,66.2444583304656
6062,-8.357532,-3.737589,3.999603,-0.044899,0.117592,0.078496,31.91,66.4011084044367
6072,-8.423334,-3.728018,3.984648,-0.043982,0.101251,0.07926,31.87,66.6078544714121
6082,-8.450253,-3.737589,3.985246,-0.041844,0.089339,0.076053,31.87,66.6691328027613
6092,-8.472985,-3.722634,3.972684,-0.039401,0.075747,0.07086,31.87,66.7680282584112
6102,-8.498708,-3.723232,3.978666,-0.038179,0.060323,0.064446,31.88,66.7901024222008
6112,-8.519646,-3.729812,3.974478,-0.037568,0.045662,0.0562,31.88,66.8606202165207
6122,-8.527422,-3.719045,3.978068,-0.036346,0.029627,0.045509,31.88,66.8481890248675
6132,-8.539386,-3.715455,3.976871,-0.035583,0.013439,0.036499,31.88,66.8756274615649
6142,-8.557332,-3.717848,3.979862,-0.033445,-0.001833,0.026267,31.88,66.8987156847364
6152,-8.543573,-3.713661,3.991228,-0.032987,-0.01741,0.013897,31.88,66.8079195763546
6162,-8.554939,-3.709473,4.001398,-0.031154,-0.031154,0.003818,31.87,66.7746093653478
6172,-8.541779,-3.709473,4.003192,-0.029932,-0.043677,-0.006567,31.87,66.7383809038009
6182,-8.533404,-3.707679,4.021737,-0.030391,-0.054825,-0.015424,31.88,66.6233297231404
6193,-8.502296,-3.711866,4.028317,-0.02978,-0.065363,-0.024587,31.88,66.5287662280851
6202,-8.488539,-3.708875,4.025326,-0.029627,-0.073762,-0.033139,31.88,66.5131405887623
6212,-8.472985,-3.71067,4.040281,-0.02978,-0.079718,-0.038179,31.88,66.4046736427132
6222,-8.444869,-3.71067,4.023531,-0.029932,-0.08491,-0.043219,31.91,66.4333885777617
6232,-8.414959,-3.71067,4.044468,-0.030696,-0.087659,-0.045051,31.91,66.2615272927146
6242,-8.35454,-3.707081,4.04746,-0.030391,-0.089492,-0.045204,31.87,66.1149836099202
6252,-8.34138,-3.709473,4.048058,-0.031612,-0.090713,-0.04383,31.87,66.0861627695774
6262,-8.306684,-3.708277,4.039085,-0.031307,-0.088423,-0.038943,31.87,66.0582925583661
6272,-8.275578,-3.704688,4.05404,-0.031612,-0.086437,-0.032529,31.84,65.9095349627417
6282,-8.250452,-3.714857,4.045665,-0.031307,-0.083383,-0.026114,31.84,65.9094737549906
6292,-8.231908,-3.707081,4.046263,-0.031612,-0.080023,-0.017257,31.89,65.8587941493089
6302,-8.209774,-3.716652,4.045067,-0.030696,-0.076664,-0.008399,31.89,65.8266127030765
6312,-8.196614,-3.717848,4.0337,-0.030085,-0.071777,0.001527,31.85,65.8595149678711
6322,-8.195418,-3.707679,4.036692,-0.028711,-0.066737,0.011606,31.85,65.8310861479577
6332,-8.208578,-3.707679,4.039085,-0.027947,-0.062156,0.021991,31.86,65.8469115665606
6342,-8.196015,-3.708277,4.042674,-0.027489,-0.056963,0.032681,31.86,65.8012603627202
6352,-8.218149,-3.709473,4.055834,-0.026114,-0.051007,0.042913,31.9,65.7807802138862
6362,-8.210373,-3.713063,4.063612,-0.025504,-0.044593,0.051007,31.9,65.7263292751092
6372,-8.236095,-3.708875,4.074379,-0.02474,-0.038943,0.058643,31.86,65.7212116329702
6382,-8.255239,-3.705286,4.077968,-0.023976,-0.033292,0.065363,31.86,65.740277486928
6392,-8.277969,-3.706482,4.088736,-0.023824,-0.02642,0.069639,31.87,65.7339766654617
6402,-8.302496,-3.719045,4.095914,-0.023824,-0.020159,0.072846,31.87,65.7613470838396
6412,-8.353344,-3.707679,4.121039,-0.023366,-0.014355,0.073915,31.9,65.7285153499594
6422,-8.374879,-3.713661,4.133601,-0.024435,-0.001374,0.072693,31.9,65.7150457821124
6432,-8.395817,-3.714857,4.14078,-0.025198,0.003971,0.068417,31.87,65.7237436529249
6442,-8.417951,-3.725027,4.14078,-0.025962,0.009927,0.062308,31.86,65.7805852061043
6452,-8.438289,-3.706482,4.150949,-0.027794,0.014966,0.055436,31.86,65.7538947712048
6462,-8.453843,-3.71725,4.155735,-0.029169,0.019395,0.046731,31.9,65.7723552065631
6472,-8.456833,-3.71725,4.144967,-0.03207,0.022907,0.036805,31.9,65.8342785162585
6482,-8.480762,-3.705286,4.147958,-0.033445,0.027642,0.027489,31.86,65.8584439364889
6492,-8.478967,-3.71725,4.159324,-0.036652,0.031918,0.016188,31.86,65.8071706938681
6502,-8.484351,-3.717848,4.136592,-0.039554,0.034361,0.004276,31.87,65.9362487749486
6512,-8.490333,-3.714259,4.145566,-0.042913,0.036957,-0.007789,31.87,65.8993016291299
6522,-8.485548,-3.715455,4.134798,-0.045051,0.038637,-0.020769,31.86,65.94581476227
6532,-8.487342,-3.714857,4.116851,-0.048258,0.039706,-0.032376,31.86,66.0416669684842
6542,-8.487941,-3.72383,4.10728,-0.052534,0.040164,-0.044135,31.86,66.1006212488999
6552,-8.461619,-3.729812,4.103691,-0.0562,0.040623,-0.053909,31.86,66.0694451831287
6562,-8.437692,-3.73041,4.1007,-0.057727,0.040623,-0.064141,31.89,66.0351275400783
6572,-8.425727,-3.728018,4.07737,-0.06017,0.040623,-0.07254,31.89,66.1288504637802
6582,-8.402397,-3.736991,4.050451,-0.062156,0.039401,-0.080023,31.83,66.2283982523813
6592,-8.355139,-3.745365,4.040281,-0.064141,0.035583,-0.086896,31.83,66.1899793382588
6602,-8.333005,-3.739982,4.020541,-0.066432,0.032987,-0.087812,31.89,66.2417518286536
6612,-8.323434,-3.735795,4.015755,-0.066126,0.030238,-0.086437,31.82,66.2427394063866
6622,-8.303694,-3.741776,3.996014,-0.064446,0.027489,-0.083078,31.82,66.3107371916908
6632,-8.282756,-3.742973,3.989433,-0.063072,0.024129,-0.077122,31.85,66.3024048076214
6642,-8.261818,-3.735196,3.981657,-0.061087,0.020617,-0.069486,31.85,66.2917859684768
6652,-8.260024,-3.743571,3.974478,-0.057421,0.017257,-0.060323,31.86,66.3340549937836
6662,-8.249854,-3.753741,3.976871,-0.053756,0.012981,-0.048869,31.86,66.3096218069207
6672,-8.245667,-3.739982,3.965506,-0.04948,0.009316,-0.036499,31.86,66.3478153877721
6682,-8.25464,-3.738786,3.957131,-0.045968,0.005498,-0.022755,31.86,66.4101172411357
6692,-8.249256,-3.745964,3.96072,-0.040928,0.001222,-0.007789,31.87,66.3865629797526
6702,-8.259426,-3.735795,3.960122,-0.036652,-0.002443,0.005956,31.87,66.4014887495379
6712,-8.27139,-3.736991,3.972684,-0.031918,-0.005651,0.021075,31.86,66.3612974992995
6722,-8.270193,-3.742374,3.972684,-0.027489,-0.010385,0.035583,31.86,66.3639106961965
6732,-8.303694,-3.745365,3.981059,-0.022449,-0.015119,0.048717,31.87,66.393082592011
6742,-8.31446,-3.741776,3.985246,-0.018173,-0.020159,0.060781,31.87,66.390225581293
6752,-8.318647,-3.734,3.996014,-0.014508,-0.02474,0.071777,31.91,66.3348957500451
6762,-8.378469,-3.731607,4.008576,-0.010385,-0.028558,0.087965,31.91,66.3922674280999
6772,-8.380263,-3.727419,4.016951,-0.00504,-0.038485,0.092546,31.83,66.3482082767244
6782,-8.397013,-3.725027,4.028915,-0.003054,-0.043219,0.095142,31.87,66.3184634032375
6795,-8.411968,-3.720839,4.034897,-0.001985,-0.047647,0.096364,31.87,66.3146555183151
6802,-8.4347,-3.718446,4.040879,-0.001374,-0.051313,0.095142,31.87,66.3288138441727
6812,-8.440084,-3.723232,4.057629,-0.002291,-0.055741,0.091172,31.87,66.2572490403674
6822,-8.461619,-3.71067,4.064807,-0.003207,-0.058948,0.084452,31.83,66.2534463586588
6832,-8.455637,-3.717848,4.068397,-0.004429,-0.062003,0.077122,31.83,66.2288689361848
6842,-8.457432,-3.725625,4.080959,-0.007789,-0.065057,0.068111,31.86,66.1745864323363
6852,-8.458031,-3.716054,4.082754,-0.010843,-0.066737,0.057727,31.86,66.1576964519025
6862,-8.463414,-3.722036,4.088736,-0.014661,-0.067806,0.047495,31.87,66.1434907401329
6872,-8.449057,-3.724428,4.098307,-0.018784,-0.069486,0.034819,31.87,66.0659155797861
6882,-8.4347,-3.710072,4.104887,-0.022602,-0.068417,0.023671,31.87,65.9881483701137
6892,-8.440084,-3.712464,4.110869,-0.027031,-0.068111,0.011606,31.87,65.9707419885821
6902,-8.42812,-3.713063,4.106084,-0.031612,-0.065668,-0.000153,31.87,65.9707972464834
6912,-8.421539,-3.719045,4.112065,-0.035277,-0.064141,-0.010537,31.87,65.9314087438804
6922,-8.398808,-3.719643,4.11386,-0.039706,-0.060628,-0.019853,31.84,65.8743758193838
6932,-8.35813,-3.711866,4.112065,-0.042455,-0.056505,-0.027489,31.84,65.7895253793702
6942,-8.339585,-3.720241,4.10728,-0.047342,-0.047189,-0.038943,31.88,65.7827318550613
6952,-8.330612,-3.715455,4.110869,-0.048869,-0.041997,-0.042455,31.87,65.7401580289113
6962,-8.30489,-3.709473,4.111467,-0.049786,-0.03543,-0.043066,31.87,65.675881879313
6972,-8.29472,-3.724428,4.109673,-0.049175,-0.028711,-0.040317,31.86,65.6777728414532
6982,-8.285149,-3.714259,4.096512,-0.047342,-0.021686,-0.037721,31.86,65.7162069466335
6992,-8.282157,-3.721437,4.096512,-0.045509,-0.014203,-0.032834,31.87,65.7167024756068
7002,-8.276175,-3.71725,4.097709,-0.042913,-0.006872,-0.025656,31.87,65.6934462687314
7012,-8.263614,-3.704688,4.09053,-0.039248,0.000916,-0.017562,31.85,65.6917656623869
7022,-8.261221,-3.701099,4.092923,-0.037415,0.008094,-0.008858,31.85,65.6705192567862
7032,-8.258228,-3.711268,4.082754,-0.032834,0.016188,0.000916,31.84,65.7273776917983
7042,-8.265409,-3.707679,4.092923,-0.029474,0.02306,0.010079,31.84,65.6859855356115
7052,-8.285748,-3.705884,4.089334,-0.025504,0.029474,0.018784,31.9,65.7470557405178
7062,-8.289934,-3.714857,4.084548,-0.022602,0.036041,0.027489,31.9,65.78984824521
7072,-8.290532,-3.702893,4.086941,-0.020006,0.04215,0.035736,31.86,65.7670487379118
7082,-8.319246,-3.721437,4.084548,-0.018021,0.047189,0.041081,31.86,65.8591143527564
7092,-8.343175,-3.712464,4.081557,-0.016493,0.051007,0.044899,31.83,65.9173786509352
7102,-8.379665,-3.701697,4.082156,-0.015272,0.053451,0.047647,31.83,65.9818453537002
7112,-8.386844,-3.705884,4.080361,-0.015577,0.058796,0.045509,31.86,66.0103966554528
7122,-8.398808,-3.710072,4.082156,-0.018631,0.058796,0.041539,31.88,66.0303393987633
7132,-8.416754,-3.701099,4.084548,-0.021533,0.059254,0.036194,31.88,66.0475124037842
7142,-8.429914,-3.691527,4.082156,-0.025351,0.058032,0.0281,31.86,66.0789096089669
7152,-8.437093,-3.713661,4.073781,-0.030085,0.056352,0.018021,31.86,66.1580963096069
7162,-8.447262,-3.70409,4.069593,-0.03543,0.053451,0.006567,31.88,66.1924105457115
7172,-8.453843,-3.697509,4.067799,-0.04047,0.05116,-0.00504,31.88,66.2095077394867
7182,-8.47119,-3.71067,4.063612,-0.045815,0.048106,-0.01573,31.85,66.2796724026692
7192,-8.459825,-3.703491,4.062415,-0.051924,0.04383,-0.027947,31.85,66.2555339638979
7202,-8.454441,-3.709473,4.058227,-0.057574,0.039706,-0.039248,31.91,66.2715255089061
7212,-8.440084,-3.705884,4.037888,-0.062919,0.034667,-0.050396,31.91,66.3441113138955
7222,-8.440681,-3.716652,4.031906,-0.066737,0.030085,-0.059712,31.85,66.3864488054742
7232,-8.415558,-3.722036,4.022933,-0.070097,0.02474,-0.065363,31.85,66.3857962629654
7242,-8.414959,-3.719045,4.009772,-0.072846,0.018173,-0.07086,31.87,66.4506224091631
7252,-8.398808,-3.721437,4.001398,-0.074067,0.011301,-0.073915,31.87,66.4629869637171
7262,-8.377273,-3.728018,3.996014,-0.075136,0.00504,-0.074526,31.87,66.4523488481188
7272,-8.373683,-3.737589,3.963113,-0.072846,-0.002291,-0.072998,31.87,66.6267524422592
7282,-8.34138,-3.742973,3.9673,-0.070555,-0.009927,-0.059254,31.88,66.5424262974998
7292,-8.330013,-3.734,3.951149,-0.061087,-0.026725,-0.050091,31.85,66.5955681450883
7302,-8.309675,-3.743571,3.938586,-0.054978,-0.035277,-0.038943,31.85,66.6285706863271
7312,-8.308478,-3.748357,3.945765,-0.048869,-0.042761,-0.025045,31.86,66.5925595051103
7322,-8.297112,-3.743571,3.948158,-0.041233,-0.051465,-0.010079,31.86,66.5515950629475
7332,-8.298308,-3.751348,3.943372,-0.032529,-0.059407,0.005498,31.88,66.5868032119949
7342,-8.306684,-3.742374,3.943372,-0.023976,-0.066584,0.021075,31.88,66.5958460789724
7352,-8.298907,-3.755535,3.949952,-0.015882,-0.073304,0.036805,31.87,66.5571662350006
7362,-8.312666,-3.744169,3.973282,-0.007789,-0.080634,0.051313,31.87,66.4518749853327
7372,-8.306085,-3.752544,3.967898,0.000153,-0.087354,0.063988,31.84,66.47443922003
7382,-8.319845,-3.742374,3.995416,0.006567,-0.092393,0.075442,31.84,66.3484956962074
7392,-8.338987,-3.737589,4.010969,0.012828,-0.096517,0.085827,31.86,66.302408811888
7402,-8.357532,-3.739383,4.029513,0.017104,-0.100029,0.091324,31.86,66.2458015516382
7412,-8.359925,-3.750151,4.046861,0.020769,-0.102473,0.095448,31.88,66.1701508934094
7422,-8.378469,-3.739383,4.069593,0.022602,-0.104,0.096059,31.88,66.0803454875975
7432,-8.393424,-3.729812,4.092923,0.022907,-0.104458,0.094531,31.85,65.9813953929466
7442,-8.403594,-3.729812,4.130012,0.021991,-0.102931,0.08827,31.85,65.8103208859364
7452,-8.415558,-3.723232,4.157529,0.018479,-0.099113,0.079412,31.85,65.6871319987805
7462,-8.418548,-3.717848,4.166502,0.008858,-0.087048,0.057269,31.87,65.6420571579898
7472,-8.417352,-3.71067,4.191627,0.001985,-0.07926,0.042913,31.87,65.5029971686597
7482,-8.407781,-3.713661,4.207779,-0.00672,-0.070097,0.028253,31.86,65.4019484764098
7492,-8.407781,-3.715455,4.216752,-0.014508,-0.057879,0.013439,31.86,65.3574353903929
7502,-8.39462,-3.715455,4.233501,-0.023671,-0.044746,-0.002749,31.88,65.2427088876611
7512,-8.400601,-3.705286,4.23051,-0.032987,-0.030543,-0.01741,31.88,65.2613332215067
7522,-8.382057,-3.725625,4.228117,-0.043066,-0.015577,-0.031918,31.84,65.2529576030567
7532,-8.355139,-3.715455,4.223332,-0.051313,0.000305,-0.043677,31.84,65.209267464112
7542,-8.34138,-3.71725,4.222734,-0.059407,0.016646,-0.053145,31.82,65.1840877936074
7552,-8.328219,-3.710072,4.201797,-0.06689,0.032681,-0.060628,31.82,65.256754510661
7562,-8.313862,-3.721437,4.189234,-0.072998,0.048717,-0.064599,31.87,65.3016854261326
7572,-8.286345,-3.716652,4.168297,-0.07758,0.063683,-0.065515,31.87,65.345902340745
7582,-8.273185,-3.722634,4.14736,-0.080023,0.078343,-0.064446,31.88,65.4323100465815
7592,-8.273185,-3.735196,4.121039,-0.080634,0.091019,-0.060323,31.88,65.5822276774536
7602,-8.263614,-3.726821,4.099504,-0.080481,0.101251,-0.054214,31.88,65.6661844169573
7612,-8.256434,-3.720241,4.077968,-0.078802,0.109345,-0.045204,31.88,65.7573997794403
7622,-8.255239,-3.722634,4.028317,-0.075442,0.115606,-0.033598,31.82,66.0188622788114
7632,-8.257033,-3.737589,4.006782,-0.065057,0.119424,-0.008858,31.82,66.1509363670373
7642,-8.267202,-3.74058,3.987639,-0.058796,0.117744,0.005956,31.84,66.2766832584739
7652,-8.299506,-3.726821,3.966104,-0.050091,0.113926,0.0197,31.88,66.4457695811882
7662,-8.309675,-3.734598,3.952345,-0.042302,0.105832,0.03207,31.88,66.5472734803075
7672,-8.328817,-3.726821,3.935595,-0.034361,0.096364,0.045357,31.87,66.6686504763135
7682,-8.355738,-3.735795,3.921238,-0.026725,0.084147,0.055741,31.87,66.8088598048871
7692,-8.38804,-3.731607,3.917649,-0.018784,0.070097,0.064599,31.84,66.8906268917066
7702,-8.399406,-3.725027,3.918845,-0.011301,0.053756,0.070402,31.84,66.9016886072549
7712,-8.428718,-3.720241,3.913461,-0.005803,0.036652,0.073915,31.86,66.9858804186275
7722,-8.456235,-3.71067,3.925426,-0.000916,0.019548,0.075442,31.86,66.970615668683
7732,-8.469396,-3.71725,3.930809,0.003054,0.001069,0.071777,31.86,66.9751482975081
7742,-8.48136,-3.714857,3.946362,0.005651,-0.016952,0.06689,31.86,66.9159226594909
7752,-8.507681,-3.708277,3.96072,0.006567,-0.034208,0.060018,31.87,66.8887547006197
7762,-8.532805,-3.713063,3.973282,0.007178,-0.05116,0.050091,31.87,66.8787753336315
7772,-8.537591,-3.701697,4.000201,0.006414,-0.065515,0.039859,31.86,66.7384269415127
7782,-8.520243,-3.696313,4.021737,0.002902,-0.078038,0.027642,31.86,66.5860455368171
7792,-8.512466,-3.69392,4.067201,-0.001833,-0.088728,0.012065,31.9,66.3319364218609
7802,-8.498708,-3.689135,4.08395,-0.006567,-0.102931,-0.014966,31.9,66.2121315905874
7812,-8.474181,-3.686144,4.093522,-0.019548,-0.106138,-0.027336,31.84,66.1083189723114
7822,-8.445468,-3.69392,4.106084,-0.025962,-0.106291,-0.040928,31.83,65.9897337365267
7832,-8.431709,-3.691527,4.10728,-0.033598,-0.104763,-0.049786,31.83,65.9521485344031
7842,-8.411968,-3.696313,4.121637,-0.040775,-0.101251,-0.058796,31.85,65.8400956521251
7852,-8.373085,-3.698706,4.118646,-0.047189,-0.094684,-0.064294,31.85,65.7747969532238
7862,-8.34796,-3.693322,4.119842,-0.054062,-0.086437,-0.067348,31.87,65.7095036900804
7872,-8.312068,-3.694518,4.122834,-0.058948,-0.076969,-0.069028,31.87,65.6175678103952
7882,-8.287541,-3.701099,4.12044,-0.063377,-0.067195,-0.066584,31.88,65.5832934491996
7892,-8.261818,-3.707679,4.108477,-0.066279,-0.056047,-0.062156,31.88,65.5965425885429
7902,-8.246863,-3.705286,4.101298,-0.067653,-0.045509,-0.054978,31.83,65.5994051690252
7912,-8.230114,-3.70409,4.091727,-0.068875,-0.034056,-0.04612,31.83,65.6121422746224
7922,-8.206783,-3.711866,4.080361,-0.067959,-0.024893,-0.034972,31.85,65.6288938483045
7932,-8.196015,-3.723232,4.071986,-0.065057,-0.015119,-0.021991,31.85,65.6608931680593
7942,-8.193623,-3.721437,4.058227,-0.062308,-0.00672,-0.008858,31.88,65.7266670225341
7952,-8.200203,-3.722036,4.052843,-0.058338,0.000764,0.007178,31.88,65.7700235545565
7962,-8.209177,-3.723232,4.021138,-0.053603,0.006261,0.021991,31.9,65.9585001864738
7972,-8.233703,-3.748357,4.025924,-0.048258,0.01069,0.048411,31.9,66.0103470697845
7982,-8.252247,-3.748955,4.016353,-0.035583,0.015119,0.061087,31.88,66.1011289327999
7992,-8.288139,-3.735196,4.014558,-0.028863,0.014661,0.07086,31.86,66.1737202669788
8002,-8.309675,-3.735196,4.01396,-0.022144,0.013592,0.078191,31.86,66.2225255070238
8012,-8.331809,-3.738187,4.021138,-0.016341,0.011148,0.083536,31.84,66.2343898962199
8022,-8.364112,-3.748357,4.032505,-0.011148,0.007025,0.087201,31.84,66.2524267325472
8032,-8.386245,-3.735196,4.036094,-0.006567,0.003512,0.086743,31.84,66.2678002177074
8042,-8.418548,-3.729812,4.042674,-0.002902,-0.000305,0.085368,31.84,66.2961625671736
8052,-8.433504,-3.732804,4.051647,0.000458,-0.00504,0.080329,31.86,66.2834705223146
8062,-8.452645,-3.739982,4.081557,0.001527,-0.009621,0.072998,31.86,66.1747354756521
8072,-8.476574,-3.738187,4.086343,0.001833,-0.01405,0.06353,31.87,66.1983359761798
8082,-8.492725,-3.741776,4.098905,0.001374,-0.016799,0.051007,31.87,66.1704091389131
8092,-8.507681,-3.732804,4.116253,-0.001069,-0.018937,0.038026,31.84,66.1038944185202
8102,-8.508877,-3.732205,4.11745,-0.003818,-0.020159,0.024282,31.84,66.0996761802054
8112,-8.508877,-3.731009,4.140181,-0.008399,-0.020922,0.008552,31.87,65.9815180107547
8122,-8.505288,-3.734598,4.144369,-0.012523,-0.019395,-0.006109,31.87,65.9557412661724
8132,-8.505288,-3.729214,4.159324,-0.018631,-0.017715,-0.02138,31.86,65.8738792979581
8142,-8.474779,-3.73041,4.157529,-0.024893,-0.014661,-0.036805,31.86,65.8197874813189
8152,-8.448458,-3.721437,4.15394,-0.038637,-0.005651,-0.062156,31.89,65.7740894756742
8162,-8.426325,-3.726223,4.156333,-0.045968,0.000764,-0.072388,31.82,65.7191152254261
8172,-8.410771,-3.731009,4.14078,-0.053756,0.006261,-0.080634,31.82,65.7709378720135
8182,-8.386245,-3.736991,4.126423,-0.059101,0.013134,-0.085674,31.84,65.7987868772064
8192,-8.35454,-3.729214,4.116253,-0.063683,0.020159,-0.088728,31.84,65.7765559539044
8202,-8.322237,-3.722036,4.094718,-0.067806,0.02642,-0.089034,31.86,65.8128839543194
8212,-8.306085,-3.735795,4.078567,-0.072082,0.032529,-0.086437,31.86,65.8760519493604
8222,-8.290532,-3.731009,4.069593,-0.07422,0.038179,-0.082467,31.86,65.8852016955745
8232,-8.270791,-3.732804,4.048656,-0.074831,0.042455,-0.074678,31.86,65.9547307364825
8242,-8.248059,-3.738187,4.03071,-0.074526,0.045968,-0.065821,31.87,66.0059054087509
8252,-8.246863,-3.735196,4.015755,-0.072998,0.047342,-0.05452,31.87,66.0794793189625
8262,-8.235497,-3.732804,3.998407,-0.07086,0.048564,-0.042761,31.9,66.1447339616082
8272,-8.222337,-3.745365,3.981059,-0.066432,0.048106,-0.028558,31.9,66.2208815204707
8282,-8.217552,-3.743571,3.968496,-0.061239,0.04612,-0.013439,31.85,66.2757213317477
8292,-8.225328,-3.731607,3.958925,-0.056047,0.042913,0.002443,31.85,66.3316017362419
8302,-8.244471,-3.738187,3.95055,-0.049786,0.038485,0.017257,31.9,66.4230271191381
8312,-8.248059,-3.722036,3.941577,-0.043219,0.032681,0.031307,31.9,66.4629019429936
8322,-8.280961,-3.735795,3.935595,-0.036499,0.018326,0.057269,31.87,66.577028534345
8332,-8.303694,-3.72383,3.942175,-0.022907,0.01069,0.068722,31.88,66.5784878282145
8342,-8.328219,-3.728616,3.945167,-0.016799,0.001374,0.078343,31.88,66.6184212896297
8352,-8.355738,-3.725027,3.954738,-0.010079,-0.008552,0.085979,31.88,66.6219000427674
8362,-8.374879,-3.713661,3.963113,-0.004276,-0.018021,0.092393,31.88,66.607092512539
8372,-8.411968,-3.723232,3.972086,0,-0.027947,0.095142,31.88,66.6457886511256
8382,-8.423933,-3.727419,3.99063,0.004429,-0.037415,0.096211,31.88,66.577211292098
8392,-8.438289,-3.720839,4.007978,0.007483,-0.045509,0.095448,31.89,66.5102307794834
8402,-8.440084,-3.716054,4.017549,0.009316,-0.05452,0.091783,31.89,66.4595816194161
8412,-8.477771,-3.713063,4.035496,0.01069,-0.062308,0.087812,31.84,66.4416952583486
8422,-8.481958,-3.701697,4.05404,0.01069,-0.067806,0.08094,31.84,66.3436750085446
8432,-8.486743,-3.7005,4.070191,0.008705,-0.072998,0.072998,31.84,66.268746645342
8442,-8.490931,-3.702295,4.080361,0.00672,-0.076664,0.063835,31.84,66.2264260309702
8452,-8.488539,-3.706482,4.098307,0.003665,-0.079565,0.053451,31.86,66.1323420793753
8462,-8.488539,-3.702893,4.108477,-0.000458,-0.080329,0.041997,31.86,66.0764617145313
8472,-8.478967,-3.699902,4.121039,-0.005192,-0.079871,0.030696,31.84,65.9886263267707
8482,-8.474181,-3.698107,4.134798,-0.009927,-0.078802,0.018784,31.84,65.9057777188146
8492,-8.457432,-3.705884,4.141976,-0.015119,-0.077274,-0.003512,31.85,65.8404129961838
8502,-8.43111,-3.695116,4.137789,-0.027184,-0.069486,-0.01405,31.85,65.7960419927115
8512,-8.405388,-3.705884,4.141976,-0.032529,-0.06353,-0.023824,31.85,65.7295363941328
8522,-8.382656,-3.699304,4.14078,-0.037568,-0.057574,-0.03146,31.81,65.6808135599581
8532,-8.37129,-3.71067,4.134798,-0.042913,-0.050396,-0.038179,31.81,65.6982852395133
8542,-8.355738,-3.7005,4.129414,-0.047342,-0.042913,-0.043219,31.84,65.6832007152195
8552,-8.338388,-3.711866,4.12044,-0.050702,-0.035583,-0.047647,31.84,65.7034972894725
8562,-8.30788,-3.709473,4.119244,-0.052993,-0.027184,-0.049022,31.84,65.6416786391927
8572,-8.292327,-3.711866,4.114459,-0.054672,-0.0197,-0.050396,31.84,65.635392329401
8582,-8.274979,-3.72383,4.109075,-0.056352,-0.011148,-0.049327,31.86,65.6376711000187
8592,-8.268997,-3.725625,4.100101,-0.056505,-0.003054,-0.046731,31.86,65.6735276292308
8602,-8.252846,-3.708277,4.096512,-0.056963,0.003971,-0.04383,31.85,65.6404764801745
8612,-8.242676,-3.725625,4.084548,-0.056658,0.011454,-0.039095,31.85,65.6982889483004
8622,-8.254042,-3.720241,4.079165,-0.055131,0.018326,-0.033598,31.85,65.7459358135253
8632,-8.248059,-3.712464,4.076771,-0.052687,0.025045,-0.027642,31.85,65.738023000844
8642,-8.257033,-3.724428,4.067799,-0.051618,0.031612,-0.020006,31.88,65.8162733349844
8652,-8.2678,-3.711866,4.067799,-0.048869,0.037415,-0.013439,31.88,65.8272925398862
8662,-8.280961,-3.734598,4.061218,-0.046884,0.041539,-0.00733,31.88,65.9121555991081
8672,-8.3013,-3.725027,4.056432,-0.041386,0.049633,0.005345,31.88,65.9716081133901
8682,-8.316256,-3.73041,4.058227,-0.039095,0.051771,0.010079,31.86,65.9992538969286
8692,-8.328219,-3.728018,4.051049,-0.037568,0.052534,0.014966,31.87,66.0600885585946
8702,-8.353344,-3.722634,4.05404,-0.03543,0.053603,0.018479,31.87,66.0926451520931
8712,-8.35813,-3.723232,4.061218,-0.034056,0.053909,0.022449,31.87,66.0657916415963
8722,-8.378469,-3.722634,4.046861,-0.032681,0.052993,0.023976,31.87,66.1833527778783
8732,-8.380861,-3.721437,4.048656,-0.032223,0.051465,0.02474,31.86,66.1778906698285
8742,-8.405987,-3.719643,4.041477,-0.03146,0.048411,0.024893,31.86,66.2666265844088
8752,-8.422735,-3.732804,4.039683,-0.031154,0.044899,0.023976,31.87,66.3233014295746
8762,-8.433504,-3.725027,4.051647,-0.030849,0.04047,0.021686,31.87,66.2762737684914
8772,-8.440681,-3.731607,4.04387,-0.032376,0.035125,0.018784,31.84,66.3378633903763
8782,-8.446067,-3.734,4.038486,-0.032376,0.029932,0.015882,31.84,66.3793425320743
8796,-8.450851,-3.731607,4.021138,-0.035125,0.016493,0.004887,31.87,66.4774983779199
8802,-8.450851,-3.731607,4.021138,-0.035125,0.016493,0.004887,31.87,66.4774983779199
8812,-8.453244,-3.733402,4.019344,-0.036041,0.008858,0.000611,31.82,66.4934637162248
8822,-8.444869,-3.734598,4.011567,-0.037568,0.000916,-0.004887,31.82,66.5177598621214
8832,-8.44128,-3.744169,4.00738,-0.038637,-0.006109,-0.009621,31.87,66.5409654115612
8842,-8.429317,-3.736991,4.00379,-0.040012,-0.022755,-0.020159,31.87,66.5283197009212
8852,-8.419147,-3.742374,4.004987,-0.040164,-0.030849,-0.024129,31.87,66.5059043665095
8862,-8.411968,-3.743571,3.999603,-0.039859,-0.038637,-0.02642,31.85,66.5202682601864
8872,-8.382057,-3.734598,3.997808,-0.039095,-0.045509,-0.028253,31.85,66.4590502121952
8882,-8.376076,-3.744169,3.999603,-0.038026,-0.052382,-0.029627,31.88,66.4460600423093
8892,-8.363514,-3.729812,4.008576,-0.036652,-0.058948,-0.02978,31.88,66.3592359992042
8902,-8.346764,-3.735795,4.004987,-0.034208,-0.064294,-0.026573,31.89,66.3485260266851
8912,-8.347363,-3.739982,3.996014,-0.032376,-0.069486,-0.024893,31.89,66.4009049670037
8922,-8.312666,-3.736991,4.006183,-0.030085,-0.072998,-0.020617,31.83,66.2715216141057
8932,-8.325229,-3.735795,4.012764,-0.026725,-0.075747,-0.015577,31.83,66.2622662612671
8942,-8.302496,-3.736991,4.009772,-0.024282,-0.076969,-0.008858,31.89,66.2311047816276
8952,-8.294122,-3.735196,4.028317,-0.021228,-0.07758,-0.001374,31.89,66.1139231437594
8962,-8.282157,-3.726821,4.034897,-0.018479,-0.076205,0.005345,31.87,66.0457403610574
8972,-8.287541,-3.729214,4.044468,-0.014813,-0.074984,0.014203,31.87,66.0091385093212
8982,-8.286345,-3.738187,4.057629,-0.011606,-0.072235,0.022449,31.84,65.9460083052575
8992,-8.283952,-3.725027,4.070789,-0.007941,-0.068264,0.031154,31.84,65.8590331367001
9002,-8.280961,-3.726223,4.093522,-0.005956,-0.063225,0.039248,31.9,65.7344424109909
9012,-8.292327,-3.71067,4.102495,-0.003818,-0.056658,0.054062,31.9,65.6968775181105
9022,-8.297112,-3.723232,4.103093,-0.000916,-0.040928,0.059865,31.91,65.7162097346305
9032,-8.303095,-3.713661,4.121039,-0.001374,-0.032834,0.065057,31.86,65.626001474937
9042,-8.323434,-3.71067,4.131807,-0.001833,-0.024587,0.068264,31.86,65.6108431196296
9052,-8.325827,-3.711268,4.143771,-0.003054,-0.014661,0.069333,31.86,65.5542333808897
9062,-8.347363,-3.714857,4.149154,-0.005345,-0.005498,0.069639,31.86,65.5761882972412
9072,-8.353344,-3.715455,4.151547,-0.008247,0.004276,0.068417,31.89,65.5772220386549
9082,-8.371889,-3.696313,4.146762,-0.011759,0.013286,0.065668,31.89,65.6237583464113
9092,-8.374879,-3.708875,4.154539,-0.016646,0.021533,0.060934,31.88,65.6017782438498
9102,-8.38445,-3.695116,4.151547,-0.020769,0.028711,0.054978,31.88,65.6248146752365
9112,-8.397013,-3.706482,4.146762,-0.025351,0.03711,0.047189,31.86,65.6873639449785
9122,-8.395219,-3.711866,4.144369,-0.029627,0.043677,0.038332,31.86,65.7010225228854
9132,-8.405388,-3.705286,4.138387,-0.035125,0.049786,0.029016,31.83,65.7475788819144
9142,-8.404789,-3.707081,4.130012,-0.040623,0.054062,0.01909,31.83,65.7914290988711
9152,-8.416754,-3.716652,4.116851,-0.045968,0.056658,0.009468,31.84,65.8941813924236
9162,-8.429317,-3.701099,4.094718,-0.050244,0.058796,-0.001374,31.84,66.0212133560644
9172,-8.422735,-3.718446,4.085146,-0.054367,0.060476,-0.012065,31.88,66.0731954330026
9182,-8.417352,-3.714857,4.067799,-0.057269,0.059559,-0.021838,31.88,66.148782188107
9192,-8.414959,-3.714259,4.046861,-0.06017,0.055741,-0.03879,31.85,66.2523628018182
9202,-8.407183,-3.71725,4.031906,-0.060934,0.051465,-0.044746,31.89,66.3169271568501
9212,-8.403594,-3.715455,4.027121,-0.060476,0.047189,-0.049327,31.89,66.3327585198533
9222,-8.39462,-3.722634,4.016353,-0.058948,0.041692,-0.052534,31.86,66.3769765992992
9232,-8.395219,-3.714259,4.00379,-0.057421,0.035125,-0.055589,31.86,66.436304908384
9242,-8.377871,-3.723232,3.994219,-0.053756,0.028405,-0.055131,31.84,66.4585759789032
9252,-8.377273,-3.719643,3.989433,-0.049327,0.020617,-0.054825,31.84,66.479137715313
9262,-8.365308,-3.725027,3.982255,-0.043677,0.013744,-0.050702,31.85,66.4968761034898
9272,-8.353344,-3.718446,3.972684,-0.038485,0.006109,-0.046578,31.85,66.5161336250778
9282,-8.35155,-3.729812,3.972086,-0.034056,-0.001527,-0.041233,31.84,66.5261310976926
9292,-8.349156,-3.726223,3.978068,-0.029016,-0.009468,-0.035277,31.84,66.4862487053136
9302,-8.345568,-3.723232,3.969693,-0.023518,-0.016493,-0.028405,31.88,66.5200971686968
9312,-8.343175,-3.725027,3.97747,-0.018173,-0.023366,-0.020769,31.88,66.4757548048669
9322,-8.355139,-3.726821,3.984648,-0.013286,-0.02978,-0.012065,31.86,66.4646795581773
9332,-8.343773,-3.719045,3.996014,-0.009774,-0.035736,-0.003971,31.86,66.3737139170238
9342,-8.342576,-3.711268,3.999603,-0.007789,-0.040623,0.003207,31.85,66.3450081599967
9352,-8.34796,-3.721437,4.019942,-0.004429,-0.044899,0.010843,31.85,66.2589520930791
9362,-8.350353,-3.70409,4.03071,-0.003971,-0.052534,0.022449,31.86,66.1911584094986
9372,-8.347363,-3.712464,4.039683,-0.004887,-0.054214,0.025809,31.89,66.1456139200509
9382,-8.349755,-3.721437,4.05404,-0.006567,-0.055131,0.028711,31.89,66.0839020531192
9392,-8.36471,-3.717848,4.058825,-0.009621,-0.055741,0.031307,31.88,66.0871813294415
9402,-8.369495,-3.715455,4.073781,-0.013286,-0.0562,0.031612,31.88,66.0169027024116
9412,-8.379665,-3.711268,4.082754,-0.017868,-0.05452,0.031154,31.89,65.9877252472324
9422,-8.379066,-3.718446,4.089932,-0.022449,-0.052993,0.02978,31.89,65.955785303569
9432,-8.382057,-3.719643,4.094718,-0.028253,-0.050855,0.026267,31.84,65.9383335373272
9442,-8.378469,-3.710072,4.100101,-0.03375,-0.047342,0.022755,31.84,65.8936204241446
9452,-8.382656,-3.71725,4.11386,-0.039401,-0.04383,0.017562,31.88,65.8377074581603
9462,-8.379665,-3.714259,4.107878,-0.044746,-0.040164,0.012828,31.88,65.8596260873118
9472,-8.383853,-3.722634,4.11386,-0.049938,-0.03543,0.008247,31.87,65.8453539986301
9482,-8.367702,-3.711268,4.103093,-0.053909,-0.030696,0.003665,31.87,65.8561881726755
9492,-8.371889,-3.728018,4.104289,-0.058032,-0.02642,-0.001374,31.89,65.8747666612261
9502,-8.355738,-3.725027,4.103093,-0.060323,-0.021838,-0.005651,31.89,65.843702831782
9512,-8.361719,-3.732804,4.092923,-0.061087,-0.016952,-0.00901,31.86,65.9168853916197
9522,-8.359326,-3.726821,4.082156,-0.062461,-0.012828,-0.01237,31.86,65.9622994252789
9532,-8.340781,-3.723232,4.078567,-0.061239,-0.008858,-0.014508,31.8,65.9381481144596
9542,-8.328817,-3.735795,4.068995,-0.055283,-0.001222,-0.013744,31.86,65.9747232173352
9552,-8.3348,-3.735795,4.065406,-0.051313,0.001833,-0.011912,31.86,66.0062478558525
9562,-8.318049,-3.736991,4.048058,-0.046273,0.004581,-0.009774,31.86,66.0627192761207
9572,-8.319246,-3.756732,4.044468,-0.039859,0.006261,-0.006567,31.86,66.1029677183726
9582,-8.31147,-3.746562,4.040281,-0.033903,0.00733,-0.002443,31.83,66.0987302114105
9592,-8.308478,-3.751946,4.041477,-0.026878,0.008552,0.003971,31.83,66.0912533244528
9602,-8.312666,-3.744768,4.036094,-0.01909,0.009468,0.009774,31.9,66.1215499714481
9612,-8.312666,-3.743571,4.03729,-0.01237,0.00901,0.014966,31.9,66.1141220108752
9622,-8.335398,-3.748955,4.028915,-0.005345,0.008552,0.021228,31.87,66.2113299465554
9632,-8.322237,-3.745365,4.0337,0.001374,0.00733,0.027031,31.87,66.154975953507
9642,-8.330612,-3.739383,4.016951,0.007483,0.005651,0.032223,31.85,66.2550041665406
9652,-8.336594,-3.741179,4.034897,0.012981,0.003818,0.036499,31.85,66.1750835022358
9662,-8.352745,-3.739383,4.044468,0.015577,0.003665,0.039859,31.86,66.1573387674221
9672,-8.362316,-3.739383,4.055236,0.018021,0.00168,0.042608,31.86,66.1212060809368
9682,-8.375478,-3.739982,4.055236,0.018937,-0.000764,0.044899,31.83,66.1495618304271
9692,-8.393424,-3.736392,4.073183,0.018479,-0.001833,0.044746,31.83,66.0903961319662
9702,-8.395219,-3.734598,4.088138,0.016188,-0.003054,0.04215,31.86,66.0146085114235
9712,-8.4012,-3.723232,4.09711,0.009316,-0.002902,0.035125,31.84,65.9699044571484
9722,-8.404789,-3.716054,4.112664,0.002138,-0.003512,0.028405,31.84,65.8899318209065
9732,-8.421539,-3.711866,4.112664,-0.004429,-0.00168,0.022297,31.85,65.9215828820784
9742,-8.425129,-3.720839,4.127021,-0.013134,0,0.015424,31.85,65.8631662485006
9752,-8.422137,-3.714259,4.129414,-0.022144,0.002291,0.00672,31.89,65.8382373207461
9762,-8.412566,-3.725625,4.135994,-0.030696,0.004887,-0.002291,31.89,65.7944669763305
9772,-8.42812,-3.714259,4.133003,-0.040164,0.008247,-0.011301,31.81,65.8323701700317
9782,-8.419147,-3.707679,4.128816,-0.048717,0.012217,-0.020617,31.81,65.828802427441
9792,-8.419745,-3.709473,4.128816,-0.057727,0.016035,-0.030085,31.86,65.8317579273762
9802,-8.409575,-3.717848,4.112664,-0.065363,0.020006,-0.037568,31.86,65.9017884986014
9812,-8.402995,-3.723232,4.116253,-0.072235,0.023976,-0.044899,31.88,65.8742330773144
9822,-8.382057,-3.714857,4.100101,-0.078191,0.027489,-0.051465,31.88,65.9057799456807
9832,-8.370691,-3.719643,4.086343,-0.082009,0.030543,-0.057116,31.85,65.9578239091124
9842,-8.362316,-3.70409,4.074977,-0.085827,0.032834,-0.059407,31.85,65.9846696154276
9852,-8.343773,-3.727419,4.051049,-0.08659,0.034208,-0.06185,31.89,66.0925442118772
9862,-8.340183,-3.716054,4.033103,-0.086285,0.034361,-0.060781,31.89,66.1683195852374
9872,-8.333604,-3.725027,3.993023,-0.083536,0.033903,-0.058185,31.87,66.3736905839355
9882,-8.313862,-3.715455,3.97747,-0.073915,0.028405,-0.046731,31.87,66.4051759675548
9892,-8.292925,-3.732804,3.966104,-0.066126,0.02474,-0.039706,31.82,66.4375793974352
9902,-8.295916,-3.725625,3.952943,-0.058032,0.01909,-0.030696,31.86,66.5067857643177
9912,-8.298308,-3.739982,3.932006,-0.048411,0.013134,-0.019242,31.86,66.6363379688493
9922,-8.299506,-3.735795,3.923631,-0.039248,0.005192,-0.00672,31.88,66.6793453639841
9932,-8.29472,-3.725625,3.913461,-0.028558,-0.003512,0.005651,31.88,66.7138411644071
9942,-8.285149,-3.731009,3.919443,-0.017715,-0.013439,0.018173,31.86,66.6671023720506
9952,-8.289934,-3.722634,3.926024,-0.007025,-0.022907,0.030543,31.86,66.6342573872502
9962,-8.298308,-3.731009,3.929015,0.003207,-0.033292,0.042913,31.83,66.6437675631221
9972,-8.315059,-3.72383,3.95055,0.011912,-0.042761,0.055436,31.83,66.5579333393368
9982,-8.333005,-3.721437,3.949952,0.019548,-0.052993,0.065515,31.85,66.596405274882
9992,-8.344371,-3.726821,3.964907,0.026725,-0.063225,0.072235,31.85,66.5461923596977
10002,-8.359925,-3.714259,3.993621,0.03146,-0.071471,0.080634,31.9,66.4157697640688
10012,-8.377871,-3.713063,4.009174,0.035736,-0.079565,0.084758,31.9,66.3706031200874
10022,-8.383853,-3.713063,4.026522,0.037263,-0.085063,0.086896,31.86,66.2922134571374
10032,-8.389835,-3.701697,4.046263,0.036957,-0.090103,0.086437,31.86,66.1909039009765
10042,-8.415558,-3.707081,4.10728,0.035583,-0.093004,0.085063,31.84,65.9323653982929
10052,-8.435298,-3.703491,4.126423,0.032223,-0.093462,0.073915,31.84,65.871637857862
10062,-8.446664,-3.699304,4.14736,0.019242,-0.091324,0.063683,31.87,65.7835771816098
10072,-8.446067,-3.695715,4.163511,0.012065,-0.085979,0.053756,31.88,65.6955334833133
10082,-8.449656,-3.701099,4.183851,0.00168,-0.07926,0.04215,31.88,65.603357991109
10092,-8.439486,-3.702295,4.197609,-0.009316,-0.07086,0.028558,31.86,65.5118224726455
10102,-8.431709,-3.7005,4.216154,-0.020159,-0.060476,0.015119,31.86,65.3979493365024
10112,-8.435298,-3.699902,4.211368,-0.031154,-0.049175,0,31.83,65.4297407913325
10122,-8.421539,-3.70409,4.219144,-0.040623,-0.036499,-0.013286,31.83,65.3640202295483
10132,-8.408977,-3.697509,4.219144,-0.05116,-0.024129,-0.026878,31.82,65.3305913627927
10142,-8.403594,-3.711866,4.207779,-0.060628,-0.009774,-0.039401,31.82,65.391196943348
10152,-8.396414,-3.70409,4.210171,-0.06918,0.003971,-0.050855,31.88,65.3559140685104
10162,-8.376076,-3.708277,4.194618,-0.075136,0.017562,-0.060323,31.88,65.3962076430043
10172,-8.345568,-3.724428,4.175476,-0.081398,0.029932,-0.068722,31.87,65.4448412988867
10182,-8.33121,-3.719045,4.152744,-0.085674,0.041844,-0.073762,31.87,65.5266660865925
10192,-8.318647,-3.719643,4.132405,-0.087965,0.053298,-0.076816,31.85,65.6060385544124
10202,-8.297112,-3.731009,4.116253,-0.088423,0.062308,-0.078343,31.85,65.6548987892522
10212,-8.299506,-3.729812,4.063013,-0.087506,0.070555,-0.076664,31.84,65.937806026696
10222,-8.262416,-3.737589,4.04387,-0.085063,0.076664,-0.068875,31.84,65.9666393569102
10232,-8.257033,-3.742374,4.020541,-0.075136,0.08491,-0.06017,31.88,66.0828434599534
10242,-8.257033,-3.74716,4.006183,-0.069028,0.085063,-0.052382,31.87,66.1633362056132
10252,-8.25464,-3.739982,3.979862,-0.061087,0.083841,-0.041081,31.87,66.2906722486114
10262,-8.268398,-3.750151,3.97388,-0.053451,0.081092,-0.029932,31.85,66.3612252061839
10272,-8.273782,-3.748955,3.962514,-0.045051,0.077427,-0.018021,31.85,66.4316469158061
10282,-8.283952,-3.75733,3.947559,-0.036805,0.071013,-0.005956,31.84,66.5402407781701
10292,-8.295319,-3.750151,3.95055,-0.028253,0.063835,0.005803,31.84,66.54139329049
10302,-8.322835,-3.744768,3.939782,-0.020922,0.054978,0.016341,31.87,66.6508035529823
10312,-8.330612,-3.752544,3.929613,-0.013592,0.044899,0.027031,31.87,66.7280659322837
10322,-8.343175,-3.74716,3.949952,-0.006567,0.034361,0.035736,31.84,66.6416261151622
10332,-8.365308,-3.749553,3.957729,-0.001222,0.024129,0.042913,31.84,66.6488282470061
10342,-8.391031,-3.74716,3.962514,0.002596,0.013286,0.048717,31.87,66.6747423699368
10352,-8.400003,-3.742973,3.954139,0.006261,0.001833,0.053298,31.87,66.7334645630825
10362,-8.421539,-3.736392,3.979264,0.008552,-0.008858,0.05452,31.85,66.6400360650643
10372,-8.429317,-3.737589,3.994219,0.009316,-0.019395,0.055741,31.85,66.5789266344379
10382,-8.452048,-3.73041,4.005585,0.008858,-0.029627,0.053145,31.85,66.5600294240139
10392,-8.466404,-3.728018,4.034299,0.00733,-0.037721,0.050702,31.85,66.4379532618577
10402,-8.477173,-3.729214,4.049254,0.002749,-0.053756,0.038943,31.85,66.3836744367473
10412,-8.478967,-3.728018,4.058227,-0.001527,-0.059865,0.031918,31.82,66.339726804166
10422,-8.462815,-3.724428,4.061218,-0.005803,-0.064294,0.025198,31.82,66.2872291970406
10432,-8.462815,-3.728616,4.077968,-0.010385,-0.067653,0.01573,31.83,66.2041392519813
10442,-8.456833,-3.714259,4.082156,-0.014966,-0.069028,0.008858,31.83,66.1566285796328
10452,-8.453843,-3.720839,4.092923,-0.020464,-0.071166,0,31.88,66.100573188752
10462,-8.435897,-3.717848,4.089334,-0.024893,-0.071471,-0.007789,31.88,66.0786385377483
10472,-8.413164,-3.72383,4.09412,-0.029016,-0.07025,-0.014508,31.82,66.0113478822911
10482,-8.406584,-3.717848,4.101298,-0.032834,-0.067959,-0.020464,31.82,65.9544907855891
10492,-8.387442,-3.718446,4.088138,-0.036499,-0.065821,-0.02642,31.84,65.9829260265449
10502,-8.353942,-3.719643,4.08754,-0.038332,-0.061545,-0.029016,31.84,65.9159077945623
10512,-8.340183,-3.718446,4.096512,-0.040623,-0.058032,-0.031765,31.88,65.8385172552549
10522,-8.316854,-3.729214,4.086941,-0.041997,-0.053145,-0.031918,31.88,65.848924629408
10532,-8.308478,-3.716652,4.075575,-0.042455,-0.048564,-0.030849,31.82,65.8784707661103
10542,-8.28455,-3.719643,4.081557,-0.041997,-0.043219,-0.028405,31.82,65.7985762079185
10552,-8.270791,-3.725027,4.074379,-0.041233,-0.038179,-0.024435,31.86,65.8118750710317
10562,-8.258228,-3.722634,4.070789,-0.039095,-0.032987,-0.020769,31.86,65.80136882795
10572,-8.246863,-3.72383,4.055834,-0.03711,-0.023366,-0.007789,31.88,65.8568163694976
10582,-8.253444,-3.711268,4.05404,-0.031918,-0.018173,0.000916,31.85,65.8682589425215
10592,-8.240881,-3.71067,4.060022,-0.028558,-0.012217,0.009163,31.85,65.8090224721749
10602,-8.260622,-3.710072,4.063612,-0.024893,-0.007025,0.016952,31.85,65.8321274013585
10612,-8.265409,-3.709473,4.058825,-0.020769,-0.002291,0.024893,31.85,65.8670735010334
10622,-8.280362,-3.708875,4.067201,-0.018173,0.00168,0.03207,31.86,65.8545955132924
10632,-8.276175,-3.701099,4.068397,-0.015272,0.005498,0.039554,31.86,65.831797092004
10642,-8.298308,-3.710072,4.079762,-0.012675,0.010232,0.046426,31.86,65.8283643569529
10652,-8.316854,-3.71067,4.080361,-0.011148,0.014203,0.051313,31.86,65.8656105023467
10662,-8.335398,-3.710072,4.082156,-0.009927,0.017104,0.054672,31.88,65.895349676221
10672,-8.339585,-3.708875,4.093522,-0.008858,0.020006,0.057269,31.88,65.8437346620198
10682,-8.36471,-3.71067,4.086941,-0.007941,0.022755,0.05849,31.87,65.9334887398688
10692,-8.369495,-3.71067,4.098905,-0.006109,0.025656,0.057879,31.87,65.8812802419866
10702,-8.392226,-3.716652,4.101298,-0.007178,0.027184,0.0562,31.9,65.9228761413251
10712,-8.410771,-3.714259,4.101298,-0.009163,0.028863,0.051924,31.9,65.960007347319
10722,-8.42453,-3.708875,4.098905,-0.01069,0.02978,0.046273,31.83,65.9965653914463
10732,-8.43111,-3.702295,4.107878,-0.012523,0.030085,0.039859,31.83,65.9577877954387
10742,-8.448458,-3.706482,4.105485,-0.015119,0.030238,0.023366,31.83,66.0107984548963
10752,-8.466404,-3.715455,4.093522,-0.020159,0.029169,0.014203,31.84,66.1188957702115
10762,-8.462217,-3.721437,4.092325,-0.023518,0.028558,0.004429,31.84,66.1218238874935
10772,-8.464012,-3.720839,4.084548,-0.027031,0.025962,-0.005956,31.88,66.1653524648323
10782,-8.46102,-3.721437,4.085745,-0.029322,0.024435,-0.016799,31.88,66.1534214303021
10792,-8.446067,-3.731009,4.073183,-0.032834,0.021991,-0.027031,31.88,66.1961079553
10802,-8.438888,-3.722634,4.057629,-0.035277,0.020311,-0.036805,31.88,66.2541913125865
10812,-8.703294,-3.410969,3.918845,-0.030391,0.022602,-0.05849,31.87,67.2553584119295
10822,-8.367103,-3.723232,4.039683,-0.018631,0.03146,-0.093462,31.87,66.197497304194
10832,-8.385049,-3.732205,4.055834,-0.018937,0.029627,-0.100335,31.84,66.1593103892905
10842,-8.377273,-3.735795,4.042076,-0.019548,0.0281,-0.101556,31.84,66.2182065755992
10852,-8.343175,-3.746562,4.020541,-0.019853,0.027184,-0.10232,31.86,66.2694152575598
10862,-8.34138,-3.74716,4.030112,-0.020464,0.02306,-0.101709,31.86,66.215966496768
10872,-8.335398,-3.742973,4.028915,-0.020617,0.020464,-0.099571,31.85,66.2056549577036
10882,-8.31446,-3.746562,4.021737,-0.019853,0.018937,-0.096975,31.85,66.202538606782
10892,-8.30489,-3.751946,4.008576,-0.018784,0.015882,-0.091783,31.86,66.256726005242
10902,-8.299506,-3.755535,4.019942,-0.01741,0.012981,-0.085827,31.86,66.1889189301915
10912,-8.291729,-3.756134,4.002594,-0.015577,0.009621,-0.080023,31.83,66.2644620603745
10922,-8.300702,-3.759723,4.01396,-0.011912,0.004581,-0.063835,31.83,66.2269537266498
10932,-8.302496,-3.748955,4.00738,-0.010232,0.001374,-0.055283,31.86,66.2551173662975
10942,-8.300702,-3.758526,4.006183,-0.007025,-0.001069,-0.045815,31.86,66.2667753414169
10952,-8.3013,-3.767499,4.010371,-0.00504,-0.00336,-0.035736,31.86,66.25455878985
10962,-8.334201,-3.738187,4.019344,-0.003207,-0.005345,-0.025656,31.84,66.2488662657498
10972,-8.498708,-3.546163,4.022933,-0.001985,-0.014966,-0.026267,31.84,66.4016923824019
10982,-8.280961,-3.759125,4.015156,-0.000611,-0.027184,-0.033139,31.88,66.1783002658737
10992,-8.286345,-3.766303,4.022933,0.001985,-0.0281,-0.021838,31.88,66.1556411161791
11002,-8.309675,-3.755535,4.036692,0.004734,-0.028253,-0.008858,31.84,66.122366740032
11012,-8.288139,-3.771687,4.03729,0.00733,-0.028863,0.001374,31.84,66.0890872184516
11022,-8.315658,-3.767499,4.045665,0.00901,-0.029016,0.011912,31.89,66.0994034883902
11032,-8.320443,-3.757928,4.040879,0.010843,-0.029016,0.020769,31.89,66.1254789225211
11042,-8.325229,-3.763312,4.055834,0.013439,-0.029169,0.027336,31.85,66.0623551295666
11052,-8.348558,-3.77049,4.051049,0.014661,-0.028558,0.033445,31.85,66.1435745480812
11062,-8.353344,-3.766901,4.066004,0.016493,-0.029474,0.03711,31.86,66.0720760049287
11072,-8.360522,-3.767499,4.064209,0.017562,-0.029016,0.039706,31.86,66.0971781959575
11082,-8.362316,-3.761517,4.077968,0.018784,-0.029322,0.040623,31.86,66.0234627217676
11092,-8.374879,-3.762115,4.074379,0.020159,-0.030085,0.039095,31.86,66.0692972918213
11102,-8.367702,-3.76391,4.071986,0.022602,-0.030391,0.036652,31.87,66.0683299866214
11112,-8.368299,-3.762115,4.076173,0.02474,-0.030238,0.034667,31.82,66.0460457302903
11122,-8.374281,-3.763312,4.079165,0.025962,-0.030238,0.030238,31.82,66.0442216222509
11132,-8.387442,-3.759125,4.08395,0.027031,-0.02978,0.025351,31.84,66.0431188959998
11142,-8.372486,-3.754937,4.086941,0.028711,-0.029627,0.020464,31.84,65.991952048809
11152,-8.366504,-3.75075,4.095914,0.030696,-0.027794,0.016035,31.84,65.9285370597555
11162,-8.359326,-3.74716,4.095914,0.03207,-0.025198,0.011301,31.84,65.909863044689
11172,-8.349755,-3.754339,4.092325,0.033139,-0.023366,0.006872,31.83,65.9150773569624
11182,-8.350951,-3.755535,4.091129,0.034514,-0.019853,0.002291,31.83,65.9250019819374
11192,-8.346166,-3.744169,4.098307,0.035888,-0.016035,-0.001069,31.88,65.8665042366627
11202,-8.330013,-3.741776,4.108477,0.037415,-0.011148,-0.003971,31.88,65.7766311422353
11212,-8.338987,-3.742374,4.115057,0.038637,-0.005651,-0.006261,31.86,65.762105817656
11222,-8.325827,-3.735196,4.118048,0.039401,0.000153,-0.006567,31.86,65.7113841235778
11232,-8.322237,-3.735196,4.115057,0.038943,0.006414,-0.00901,31.84,65.7192794159263
11242,-8.309077,-3.731009,4.121637,0.039401,0.013744,-0.007789,31.84,65.652570605547
11252,-8.308478,-3.731009,4.130012,0.038332,0.021838,-0.007941,31.81,65.6075641815048
11262,-8.312068,-3.710072,4.135994,0.03711,0.02978,-0.006109,31.81,65.5638502626191
11272,-8.306684,-3.709473,4.138387,0.033139,0.045968,-0.004581,31.83,65.5391222451364
11282,-8.313264,-3.691527,4.135396,0.030238,0.054214,-0.001374,31.82,65.5516722229552
11292,-8.325229,-3.708875,4.138387,0.026573,0.062308,0.001069,31.82,65.5786879382885
11302,-8.327023,-3.698706,4.125825,0.022755,0.070097,0.002138,31.85,65.6383029299108
11312,-8.335398,-3.699304,4.121637,0.01909,0.077122,0.003971,31.85,65.6787954032384
11322,-8.341978,-3.683152,4.126423,0.014813,0.082467,0.00504,31.87,65.6526013690745
11332,-8.349755,-3.693322,4.110869,0.009621,0.087965,0.005651,31.87,65.7601674639384
11342,-8.366504,-3.701099,4.104289,0.004581,0.091783,0.005345,31.86,65.837766152123
11352,-8.371889,-3.695116,4.093522,-0.000916,0.094684,0.005192,31.86,65.8997776859162
11362,-8.379665,-3.691527,4.091129,-0.006872,0.096059,0.003512,31.86,65.9254768226408
11372,-8.389236,-3.686144,4.071986,-0.011606,0.095753,0.000611,31.86,66.0407113117516
11382,-8.400601,-3.688536,4.063612,-0.016646,0.094073,-0.002291,31.88,66.1107646569296
11392,-8.402995,-3.689733,4.046861,-0.020769,0.091172,-0.005192,31.88,66.2044400002817
11402,-8.414959,-3.690331,4.035496,-0.024282,0.087048,-0.008399,31.82,66.2895990965057
11412,-8.419745,-3.689135,4.029513,-0.0281,0.081398,-0.012981,31.82,66.3298299909822
11422,-8.427522,-3.690929,4.01396,-0.031001,0.073915,-0.018631,31.84,66.4291114767956
11432,-8.425727,-3.691527,3.992425,-0.03207,0.065515,-0.023518,31.84,66.5386798499791
11442,-8.43111,-3.689733,3.990032,-0.031612,0.047037,-0.032529,31.84,66.5607956781689
11452,-8.415558,-3.696911,3.965506,-0.030543,0.036194,-0.037568,31.87,66.66372175702
11462,-8.416754,-3.693322,3.965506,-0.028405,0.025198,-0.041844,31.87,66.6629333889235
11472,-8.404191,-3.695116,3.960122,-0.024587,0.013897,-0.045509,31.85,66.66678896663
11482,-8.410173,-3.702893,3.956532,-0.0197,0.003665,-0.047342,31.85,66.7051907727724
11492,-8.404789,-3.714857,3.960122,-0.014813,-0.007941,-0.048869,31.86,66.6860899387262
11502,-8.394022,-3.713063,3.955934,-0.010232,-0.017868,-0.050549,31.86,66.6841504430366
11512,-8.378469,-3.709473,3.953541,-0.004276,-0.027947,-0.051313,31.84,66.6611463661344
11522,-8.367103,-3.722634,3.971487,0.002138,-0.03711,-0.050244,31.84,66.555082517068
11532,-8.367103,-3.724428,3.955336,0.008552,-0.044899,-0.048717,31.84,66.6418505738103
11542,-8.35813,-3.712464,3.979264,0.014966,-0.052229,-0.046426,31.84,66.4859116943375
11552,-8.356933,-3.720839,3.988237,0.021228,-0.057879,-0.042302,31.84,66.4439620976974
11562,-8.344969,-3.711268,3.993023,0.026878,-0.06353,-0.038485,31.84,66.3846954565913
11572,-8.338987,-3.726223,4.010969,0.03146,-0.067195,-0.033445,31.82,66.2916911915967
11582,-8.332406,-3.725027,4.026522,0.035277,-0.069486,-0.028863,31.82,66.1949003233377
11592,-8.325229,-3.725625,4.031906,0.03879,-0.07086,-0.023824,31.88,66.1519711908566
11602,-8.322835,-3.727419,4.062415,0.04047,-0.070708,-0.018173,31.88,65.9884552973447
11612,-8.321041,-3.722036,4.069593,0.041386,-0.066584,-0.007178,31.84,65.9418619965846
11622,-8.333604,-3.72383,4.085745,0.039554,-0.063225,-0.002291,31.85,65.8858583347365
11632,-8.322237,-3.719045,4.104887,0.037263,-0.059407,0.000611,31.85,65.7568525559418
11642,-8.341978,-3.732205,4.110271,0.034819,-0.055131,0.005192,31.86,65.7837052128524
11652,-8.326425,-3.717848,4.123432,0.030391,-0.049633,0.008247,31.86,65.6678841715962
11662,-8.341978,-3.732205,4.138387,0.023671,-0.043982,0.010232,31.91,65.6372587885726
11672,-8.346166,-3.729812,4.142574,0.01741,-0.037263,0.009927,31.91,65.6221877559772
11682,-8.344371,-3.74058,4.157529,0.010079,-0.030543,0.010079,31.83,65.5509916286493
11692,-8.367103,-3.731607,4.161119,0.003207,-0.023671,0.008094,31.83,65.5726574634621
11702,-8.368299,-3.741776,4.162315,-0.00504,-0.016035,0.005956,31.8,65.5787890022474
11712,-8.362915,-3.745964,4.166502,-0.012523,-0.008552,0.002749,31.8,65.5495507072592
11722,-8.368299,-3.741776,4.165306,-0.020311,-0.001222,-0.00168,31.84,65.5632915811448
11732,-8.377871,-3.756732,4.153342,-0.027031,0.006261,-0.006414,31.84,65.6601452414835
11742,-8.375478,-3.754339,4.15394,-0.033292,0.013286,-0.012675,31.83,65.649633791963
11752,-8.369495,-3.769892,4.159324,-0.038332,0.020464,-0.017868,31.83,65.623896955177
11762,-8.378469,-3.756134,4.143771,-0.042455,0.026878,-0.023824,31.86,65.7104492823092
11772,-8.367103,-3.750151,4.119842,-0.045509,0.032681,-0.029016,31.86,65.8047121361608
11782,-8.362316,-3.762714,4.111467,-0.047037,0.038026,-0.039859,31.79,65.850088992263
11792,-8.36112,-3.760919,4.093522,-0.045815,0.047647,-0.043066,31.85,65.9392641584008
11802,-8.352745,-3.765705,4.091129,-0.042761,0.051007,-0.046578,31.85,65.9385383391802
11812,-8.350353,-3.776472,4.059424,-0.040317,0.053145,-0.049327,31.83,66.1092688304995
11822,-8.343773,-3.766303,4.054638,-0.035583,0.054672,-0.050091,31.83,66.1107093680572
11832,-8.334201,-3.764508,4.039085,-0.029932,0.0562,-0.050702,31.84,66.1702476105785
11842,-8.337193,-3.769892,4.03071,-0.023518,0.056505,-0.048258,31.84,66.225595300458
11852,-8.315658,-3.771089,4.022933,-0.015272,0.055283,-0.045051,31.84,66.2221936684238
11862,-8.31446,-3.762115,4.015755,-0.00733,0.053756,-0.041997,31.84,66.2488332129227
11872,-8.319246,-3.768696,3.998407,0.000458,0.051313,-0.037415,31.85,66.3564597603553
11882,-8.30788,-3.762714,3.987639,0.008705,0.04948,-0.030238,31.85,66.3836405302268
11892,-8.313264,-3.763312,3.998407,0.016493,0.045662,-0.02306,31.86,66.3387692122491
11902,-8.303694,-3.759125,3.987639,0.024129,0.041386,-0.014966,31.86,66.3714274848877
11912,-8.308478,-3.757928,3.988237,0.031307,0.036805,-0.007789,31.88,66.3771915614074
11922,-8.312666,-3.766303,3.988835,0.037568,0.03207,0.000458,31.88,66.3907965438771
11932,-8.318647,-3.75075,3.994817,0.043066,0.026878,0.009621,31.81,66.3570675476667
11942,-8.310871,-3.735196,4.0008,0.046426,0.02138,0.017562,31.81,66.294396500021
11952,-8.339585,-3.737589,4.001996,0.049938,0.01573,0.026573,31.82,66.350854851001
11962,-8.341978,-3.741179,4.00738,0.051924,0.006109,0.040317,31.86,66.3309560790994
11972,-8.349755,-3.731607,4.029513,0.050396,0.001374,0.045662,31.86,66.2220759172606
11982,-8.358727,-3.712464,4.036692,0.048258,-0.003512,0.048869,31.88,66.1853602349556
11992,-8.376674,-3.716054,4.053442,0.045051,-0.007941,0.051924,31.88,66.138974658091
12002,-8.383254,-3.712464,4.063612,0.041081,-0.011606,0.054062,31.86,66.0963782039433
12012,-8.395817,-3.701697,4.076173,0.035125,-0.015424,0.052229,31.86,66.0473545440202
12022,-8.394022,-3.707081,4.080959,0.028253,-0.016341,0.051007,31.82,66.0236316181713
12032,-8.403594,-3.689135,4.079165,0.022297,-0.018021,0.047037,31.82,66.0365264116084
12042,-8.418548,-3.696313,4.096512,0.013744,-0.01909,0.043219,31.85,65.9846215039345
12052,-8.412566,-3.697509,4.107878,0.007025,-0.018937,0.037568,31.85,65.9139509624253
12062,-8.422735,-3.696911,4.112065,-0.000458,-0.018479,0.031612,31.83,65.9132634585659
12072,-8.459227,-3.656831,4.098307,-0.007483,-0.016952,0.024587,31.83,66.0250692682857
12082,-8.498708,-3.608975,4.081557,-0.012065,-0.01573,0.006567,31.84,66.1521600348654
12092,-8.41137,-3.695715,4.118048,-0.015272,-0.012981,-0.009927,31.84,65.8568954116082
12102,-8.392226,-3.689733,4.107878,-0.020922,-0.009468,-0.015882,31.85,65.8633261056206
12112,-8.392226,-3.690929,4.118646,-0.025045,-0.006109,-0.022907,31.85,65.8084299495126
12122,-8.373683,-3.690929,4.10728,-0.0281,-0.001527,-0.028405,31.84,65.8279276117441
12132,-8.382656,-3.697509,4.09711,-0.032223,0.006261,-0.039248,31.83,65.9062949100426
12142,-8.362316,-3.692724,4.077968,-0.03146,0.010079,-0.042913,31.83,65.9583213878877
12152,-8.357532,-3.705884,4.071388,-0.030391,0.012675,-0.046273,31.83,65.9949411209389
12162,-8.347363,-3.7005,4.070789,-0.028253,0.014966,-0.047953,31.83,65.9713145268685
12172,-8.335398,-3.705884,4.052843,-0.025656,0.016952,-0.049938,31.83,66.0449437208453
12182,-8.327621,-3.701697,4.042076,-0.022297,0.018937,-0.049327,31.83,66.0809417029816
12192,-8.323434,-3.707679,4.043272,-0.018173,0.019548,-0.048717,31.84,66.071410846212
12202,-8.330013,-3.708875,4.033103,-0.013592,0.019242,-0.046884,31.84,66.1399667891998
12212,-8.321041,-3.706482,4.015156,-0.008552,0.01909,-0.044135,31.84,66.2130858952087
12222,-8.30788,-3.713063,4.023531,-0.002291,0.017257,-0.039859,31.84,66.1472676539084
12232,-8.307282,-3.71067,4.013362,0.003054,0.01573,-0.035125,31.84,66.1973076837143
12242,-8.30788,-3.71067,4.01396,0.007941,0.01405,-0.030391,31.84,66.1954250544815
12252,-8.30489,-3.717848,4.007978,0.013134,0.012217,-0.024282,31.84,66.2274307458231
12262,-8.309077,-3.721437,4.014558,0.017715,0.009621,-0.019242,31.84,66.2050310012646
12272,-8.30788,-3.72383,4.022335,0.021228,0.006872,-0.012217,31.83,66.1638037109834
12282,-8.327621,-3.719643,4.022933,0.025351,0.004276,-0.007025,31.83,66.1985430319176
12292,-8.335996,-3.718446,4.042674,0.027642,0.001833,-0.001527,31.89,66.1114620689459
12302,-8.34796,-3.717848,4.036094,0.02978,-0.003512,0.006414,31.89,66.1707821689237
12312,-8.36471,-3.723232,4.062415,0.029322,-0.005956,0.008399,31.84,66.0734823049037
12322,-8.380861,-3.722634,4.055834,0.0281,-0.007636,0.010079,31.88,66.141491281299
12332,-8.385648,-3.724428,4.071986,0.027184,-0.00901,0.011148,31.88,66.0689609567197
12342,-8.400601,-3.732205,4.081557,0.024435,-0.010996,0.009621,31.88,66.0579984336293
12352,-8.404789,-3.739383,4.089334,0.020464,-0.011912,0.007178,31.88,66.0331185477227
12362,-8.408977,-3.739383,4.099504,0.016341,-0.012065,0.003971,31.84,65.9891074442964
12372,-8.422137,-3.736991,4.111467,0.012523,-0.01237,-0.000611,31.84,65.9525988590889
12382,-8.419745,-3.736392,4.114459,0.007789,-0.010843,-0.006567,31.84,65.9314593072831
12392,-8.41436,-3.745964,4.123432,0.001833,-0.009621,-0.01237,31.84,65.8825507697115
12402,-8.423334,-3.742973,4.12044,-0.003054,-0.007789,-0.018479,31.88,65.9142419762965
12412,-8.41436,-3.742973,4.131208,-0.008399,-0.005192,-0.026267,31.88,65.8394426095438
12422,-8.421539,-3.749553,4.131807,-0.014203,-0.00336,-0.033598,31.86,65.8577788634003
12432,-8.416155,-3.748357,4.123432,-0.01909,0.000153,-0.041844,31.86,65.8886118267459
12442,-8.407781,-3.754937,4.123432,-0.023518,0.003054,-0.049175,31.84,65.8770872254654
12452,-8.395219,-3.759723,4.112065,-0.027794,0.006261,-0.055283,31.84,65.9139702955977
12462,-8.380263,-3.759125,4.094718,-0.030696,0.009927,-0.061239,31.87,65.9718978296054
12472,-8.361719,-3.761517,4.082156,-0.033598,0.012828,-0.068417,31.87,66.0003544813121
12482,-8.344371,-3.760321,4.076173,-0.037263,0.018479,-0.071013,31.88,65.9936759721418
12492,-8.334201,-3.757928,4.060022,-0.036499,0.021686,-0.070708,31.83,66.0542858793948
12502,-8.31147,-3.771687,4.061816,-0.036499,0.02306,-0.069639,31.83,66.0098732509286
12512,-8.312068,-3.761517,4.04746,-0.034208,0.02474,-0.066126,31.85,66.0766381570891
12522,-8.297711,-3.752544,4.034897,-0.031612,0.02474,-0.062614,31.85,66.1035557240737
12532,-8.280961,-3.761517,4.03071,-0.028405,0.025198,-0.055741,31.84,66.0986520233474
12542,-8.276773,-3.765106,4.012166,-0.02474,0.025045,-0.049022,31.84,66.1909525450748
12552,-8.276175,-3.758526,4.001398,-0.019853,0.023824,-0.040012,31.86,66.2401790297234
12562,-8.279166,-3.757928,3.995416,-0.01405,0.022602,-0.030238,31.86,66.2775213344892
12572,-8.27139,-3.756732,3.986442,-0.009468,0.020006,-0.01909,31.85,66.3073704124068
12582,-8.274979,-3.744768,3.993023,-0.003665,0.017562,-0.007789,31.85,66.2686919922859
12592,-8.274979,-3.750151,3.986442,0.001985,0.014355,0.003207,31.85,66.3086453133893
12602,-8.55434,-3.584448,3.978068,0.008094,0.009927,0.011606,31.85,66.7853245357404
12612,-8.338388,-3.685545,3.994219,0.012675,-0.017715,-0.010537,31.84,66.3404712474248
12622,-8.270791,-3.741179,4.002594,0.017715,-0.03207,-0.007636,31.84,66.2057835007213
12632,-8.253444,-3.749553,3.991827,0.02306,-0.034208,0.006567,31.88,66.2339674249155
12643,-8.290532,-3.734,4.02413,0.029627,-0.036041,0.021686,31.88,66.1271998434919
12652,-8.287541,-3.737589,4.028317,0.039554,-0.03879,0.044746,31.86,66.1022187144281
12662,-8.300702,-3.741776,4.036094,0.043066,-0.038332,0.055131,31.83,66.0932863095818
12672,-8.338987,-3.723232,4.062415,0.046426,-0.038637,0.061239,31.83,66.0188624592016
12682,-8.344371,-3.739383,4.075575,0.0478,-0.037568,0.06521,31.85,65.9768187658339
12692,-8.357532,-3.734,4.094718,0.04948,-0.036499,0.067348,31.85,65.8997456273496
12702,-8.385648,-3.729812,4.101896,0.04948,-0.034208,0.067501,31.81,65.9181974712093
12712,-8.394022,-3.734598,4.114459,0.048258,-0.03207,0.064294,31.81,65.8752032061215
12722,-8.396414,-3.728018,4.128217,0.046884,-0.027794,0.060323,31.84,65.802641668612
12732,-8.400003,-3.726223,4.155735,0.04383,-0.02306,0.052993,31.84,65.6659884967805
12742,-8.404191,-3.721437,4.152744,0.040928,-0.018479,0.045051,31.85,65.6858933347625
12752,-8.416155,-3.726821,4.158128,0.036957,-0.011912,0.034667,31.85,65.6887031632921
12762,-8.416754,-3.727419,4.165306,0.032529,-0.005192,0.023671,31.84,65.6534520169716
12772,-8.412566,-3.720839,4.1671,0.027642,0.002138,0.013439,31.84,65.6289922698008
12782,-8.408379,-3.728018,4.168896,0.02306,0.009774,0.002749,31.84,65.617552627122
12792,-8.39821,-3.728616,4.166502,0.017257,0.016952,-0.009468,31.84,65.6087122582296
12802,-8.382656,-3.728018,4.165905,0.012065,0.026114,-0.018784,31.83,65.5778550487908
12812,-8.382656,-3.72383,4.155735,0.006567,0.034819,-0.030085,31.83,65.6265404509131
12822,-8.349755,-3.726821,4.143172,0.001374,0.051007,-0.04612,31.86,65.6239255770074
12832,-8.362316,-3.719643,4.131807,-0.007636,0.058185,-0.051771,31.84,65.703130662469
12842,-8.344969,-3.723232,4.11386,-0.010843,0.06521,-0.056505,31.84,65.7628112732264
12852,-8.323434,-3.726223,4.104289,-0.01405,0.071471,-0.059101,31.83,65.7694417290016
12862,-8.320443,-3.720839,4.101298,-0.017715,0.076969,-0.061392,31.83,65.7734806366653
12872,-8.317451,-3.722036,4.085146,-0.0197,0.081245,-0.061087,31.86,65.8527126148306
12882,-8.310871,-3.716652,4.076173,-0.021533,0.084147,-0.058796,31.86,65.8804636159856
12892,-8.31446,-3.725027,4.05404,-0.022907,0.086896,-0.054672,31.82,66.0122547092783
12902,-8.316256,-3.721437,4.048656,-0.023366,0.087812,-0.051465,31.82,66.0409253852446
12912,-8.322835,-3.716054,4.036692,-0.023213,0.088423,-0.045968,31.82,66.1126564288336
12922,-8.326425,-3.716652,4.01396,-0.022144,0.086132,-0.040012,31.82,66.240393232072
12932,-8.325229,-3.722634,4.015755,-0.021228,0.08262,-0.034514,31.84,66.2340699619483
12942,-8.335996,-3.737589,4.004987,-0.020617,0.078649,-0.026878,31.84,66.3275713544973
12952,-8.350951,-3.714857,3.995416,-0.018631,0.073457,-0.019853,31.82,66.3880339803106
12962,-8.355738,-3.718446,3.986442,-0.016646,0.066737,-0.012523,31.82,66.4486724580533
12972,-8.367702,-3.717848,3.987639,-0.014813,0.059101,-0.007789,31.86,66.4668799661122
12982,-8.377871,-3.720241,3.973282,-0.012523,0.049786,-0.002138,31.86,66.5658721005175
12992,-8.400601,-3.71725,3.970291,-0.009927,0.040164,0.005651,31.82,66.626137918988
13002,-8.405388,-3.722634,3.975675,-0.005192,0.020006,0.009316,31.83,66.6127464170527
13012,-8.410771,-3.722634,3.978666,-0.001985,0.009163,0.010996,31.83,66.6082214187057
13022,-8.418548,-3.713661,3.979264,0.000764,-0.001985,0.012523,31.85,66.6129966530033
13032,-8.425129,-3.714259,3.976273,0.00336,-0.012065,0.013592,31.85,66.6428814069379
13042,-8.436494,-3.731009,3.985844,0.006261,-0.022449,0.011454,31.82,66.6315780997312
13052,-8.440681,-3.720241,3.993023,0.009468,-0.032681,0.009163,31.82,66.5928394245271
13062,-8.420342,-3.725027,3.99063,0.010996,-0.041844,0.007636,31.82,66.5675614493726
13072,-8.415558,-3.714857,4.00379,0.012981,-0.050091,0.00504,31.82,66.479329580156
13082,-8.41436,-3.722634,4.017549,0.014813,-0.057421,0.001833,31.84,66.4119972676914
13092,-8.4012,-3.725625,4.019344,0.016188,-0.064141,-0.002443,31.84,66.3778668716073
13102,-8.396414,-3.71067,4.027121,0.017257,-0.069639,-0.006414,31.86,66.3132523463641
13112,-8.390432,-3.733402,4.033103,0.017562,-0.07422,-0.011454,31.86,66.2905576047603
13122,-8.385049,-3.727419,4.046861,0.018326,-0.076816,-0.014355,31.85,66.2017076886689
13132,-8.371889,-3.720839,4.067799,0.018784,-0.07758,-0.016799,31.85,66.0583039971343
13142,-8.352745,-3.716652,4.073183,0.018173,-0.076358,-0.019853,31.87,65.9855457129829
13152,-8.345568,-3.720839,4.084548,0.017104,-0.075136,-0.022449,31.87,65.9148129424738
13162,-8.316256,-3.725625,4.103093,0.015882,-0.07254,-0.023671,31.86,65.7597051573442
13172,-8.313862,-3.718446,4.104887,0.012828,-0.062308,-0.023976,31.86,65.7382711065699
13182,-8.30788,-3.712464,4.106084,0.010385,-0.055131,-0.023671,31.84,65.7133714855205
13192,-8.309675,-3.708875,4.122235,0.007789,-0.048258,-0.022297,31.85,65.6293518834406
13202,-8.304291,-3.725027,4.122834,0.005803,-0.04047,-0.020159,31.85,65.6302040999484
13212,-8.299506,-3.725027,4.121039,0.001527,-0.031612,-0.017562,31.85,65.6292499485309
13222,-8.298907,-3.713063,4.128217,-0.001527,-0.022297,-0.015424,31.85,65.5788527088538
13232,-8.29472,-3.720241,4.13719,-0.005192,-0.013134,-0.012065,31.8,65.5298815611527
13242,-8.298907,-3.709473,4.134798,-0.008858,-0.004581,-0.009163,31.8,65.540996785561
13252,-8.309675,-3.720839,4.131208,-0.012523,0.004123,-0.005956,31.88,65.5940588646611
13262,-8.30489,-3.720839,4.133003,-0.015577,0.012675,-0.004276,31.88,65.5743445929465
13272,-8.319246,-3.723232,4.128217,-0.01909,0.020159,-0.000153,31.85,65.6326386015063
13282,-8.317451,-3.721437,4.119244,-0.02138,0.0281,0.003054,31.85,65.6738645219086
13292,-8.330612,-3.722036,4.122834,-0.024282,0.034667,0.00504,31.88,65.6840429559251
13302,-8.343773,-3.716054,4.116851,-0.027336,0.038943,0.006414,31.88,65.7377883761244
13312,-8.356335,-3.724428,4.101896,-0.028863,0.043677,0.007483,31.79,65.8506490594266
13322,-8.36471,-3.720839,4.100101,-0.029932,0.046731,0.008399,31.79,65.8744714177755
13332,-8.373683,-3.732804,4.082156,-0.031154,0.048106,0.007636,31.83,65.9984597496902
13342,-8.386844,-3.74716,4.070191,-0.031765,0.049633,0.005345,31.83,66.1022416789234
13352,-8.386844,-3.741776,4.063612,-0.030085,0.048411,0.003207,31.83,66.1314858373074
13362,-8.385049,-3.745964,4.065406,-0.029016,0.047037,0.000611,31.86,66.1222841181195
13372,-8.393424,-3.742973,4.050451,-0.026573,0.043677,-0.002291,31.86,66.2151450065828
13382,-8.38804,-3.748357,4.048058,-0.024129,0.040623,-0.005192,31.85,66.2213774609557
13392,-8.392825,-3.749553,4.035496,-0.021686,0.036805,-0.008705,31.85,66.2981618874909
13402,-8.467602,-3.667001,3.996014,-0.016035,0.034667,-0.015272,31.85,66.5847920211629
13412,-8.371889,-3.743571,4.021737,-0.007941,0.035277,-0.025198,31.85,66.3206705376421
13422,-8.388638,-3.754339,4.031906,-0.00336,0.031612,-0.029169,31.83,66.3126402604001
13432,-8.374281,-3.741179,4.030112,0,0.028405,-0.030696,31.83,66.2795797416168
13442,-8.366504,-3.754937,4.025924,0.002749,0.024129,-0.032376,31.82,66.2981192427036
13452,-8.365308,-3.756732,4.012764,0.00672,0.020769,-0.033445,31.82,66.3662746492292
13462,-8.362316,-3.749553,4.017549,0.009927,0.017257,-0.033598,31.83,66.3281615319739
13472,-8.355738,-3.747759,4.0337,0.012675,0.014508,-0.033903,31.83,66.2279807619309
13482,-8.346764,-3.746562,4.036692,0.014813,0.012217,-0.033903,31.81,66.192250694662
13492,-8.350353,-3.74058,4.025326,0.016646,0.010079,-0.033903,31.81,66.2537683321002
13502,-8.34138,-3.749553,4.035496,0.018173,0.008399,-0.032376,31.84,66.1899947565953
13512,-8.33121,-3.744169,4.046861,0.019242,0.006872,-0.029322,31.84,66.1037744794072
13522,-8.378469,-3.702893,4.052843,0.017715,0.006872,-0.025809,31.8,66.1335764269499
13532,-8.422735,-3.625126,4.056432,0.017257,0.000764,-0.030085,31.86,66.1367491099709
13542,-8.325229,-3.729214,4.053442,0.015119,-0.005651,-0.035277,31.86,66.0423176806972
13552,-8.31147,-3.748955,4.063013,0.013897,-0.00504,-0.02978,31.84,65.9817291087453
13562,-8.333005,-3.738786,4.06062,0.012217,-0.003054,-0.023213,31.84,66.0303468902222
13572,-8.324032,-3.734598,4.058227,0.009468,-0.000916,-0.01741,31.84,66.0198134467099
13582,-8.32463,-3.738187,4.062415,0.007178,0.000611,-0.011759,31.84,66.0025625640354
13592,-8.380861,-3.708277,4.048656,0.004581,0.000764,-0.00733,31.84,66.1655731078456
13602,-8.397013,-3.705286,4.052245,0.003207,-0.000916,-0.010079,31.84,66.1781292648209
13612,-8.324032,-3.736991,4.067201,0.001222,-0.004123,-0.011301,31.84,65.9750703569149
13622,-8.330013,-3.73041,4.06062,-0.001222,-0.004276,-0.006414,31.84,66.0160022387113
13632,-8.347363,-3.738187,4.064807,-0.003512,-0.004276,-0.000305,31.82,66.0383455032726
13642,-8.355139,-3.747759,4.05404,-0.005192,-0.005345,0.00504,31.82,66.1202221711784
13652,-8.359326,-3.74058,4.053442,-0.007025,-0.006261,0.009316,31.82,66.1254020677057
13662,-8.357532,-3.727419,4.048656,-0.008247,-0.008552,0.011301,31.82,66.1342245386942
13672,-8.376674,-3.727419,4.055236,-0.009774,-0.010232,0.013592,31.87,66.1402661899173
13682,-8.373683,-3.732804,4.052245,-0.01069,-0.012217,0.016035,31.87,66.1546501020996
13692,-8.376674,-3.729214,4.049254,-0.01069,-0.01741,0.014966,31.84,66.1732252771411
13702,-8.38146,-3.738187,4.056432,-0.010843,-0.020159,0.013286,31.85,66.15423963163
13712,-8.385648,-3.733402,4.052843,-0.009927,-0.023213,0.012981,31.85,66.1773185746505
13722,-8.382656,-3.737589,4.055236,-0.008705,-0.024893,0.009468,31.82,66.1624452662161
13732,-8.376674,-3.736991,4.059424,-0.006872,-0.026878,0.007025,31.82,66.1273892887579
13742,-8.376674,-3.736991,4.064209,-0.004887,-0.028253,0.004734,31.85,66.102400045071
13752,-8.367702,-3.742973,4.067201,-0.002596,-0.028711,0.002596,31.85,66.0734585858893
13762,-8.372486,-3.732804,4.078567,0,-0.027794,-0.001222,31.83,66.0146433289724
13772,-8.361719,-3.734,4.076771,0.002749,-0.027794,-0.004734,31.83,66.0023087745665
13782,-8.361719,-3.73041,4.082754,0.005345,-0.026573,-0.007636,31.9,65.9676691947911
13792,-8.353344,-3.732804,4.078567,0.007789,-0.023976,-0.010079,31.9,65.9740017443047
13802,-8.349156,-3.732804,4.086941,0.011301,-0.021228,-0.01237,31.87,65.9213506410004
13812,-8.33121,-3.734598,4.085146,0.014508,-0.017104,-0.013286,31.87,65.8941708963392
13822,-8.318049,-3.734,4.095914,0.017104,-0.012217,-0.013744,31.84,65.8091435701377
13832,-8.308478,-3.725625,4.093522,0.0197,-0.007025,-0.014661,31.84,65.7930670839875
13842,-8.315658,-3.720839,4.095316,0.021838,-0.001374,-0.014355,31.85,65.7944915750183
13852,-8.302496,-3.735196,4.108477,0.024587,0.004887,-0.01237,31.85,65.7112111662553
13862,-8.321041,-3.726821,4.103691,0.025351,0.017868,-0.008552,31.82,65.7680049089784
13872,-8.312666,-3.723232,4.1007,0.026573,0.024435,-0.006567,31.85,65.7622016228712
13882,-8.303694,-3.719045,4.101298,0.026878,0.030238,-0.003971,31.85,65.7357394038587
13892,-8.306085,-3.71725,4.11386,0.025962,0.035888,-0.001374,31.81,65.6734507124257
13902,-8.317451,-3.724428,4.103093,0.024435,0.040928,0.001222,31.81,65.761120476486
13912,-8.330013,-3.723232,4.110271,0.022297,0.046731,0.005345,31.87,65.7494514506522
13922,-8.338388,-3.704688,4.103691,0.019548,0.049938,0.007025,31.87,65.7840482490648
