t_ms,ax,ay,az,gx,gy,gz,temp,ang_deg
12,-8.303694,-3.178267,4.294518,-0.487623,-0.143401,0.015882,30.97,64.2189974793586
22,-8.28455,-3.182454,4.276572,-0.517708,-0.120646,0.008399,31,64.271558277523
32,-8.248658,-3.195615,4.256832,-0.547641,-0.099266,0.004734,31,64.3025062791327
42,-8.228318,-3.228516,4.241278,-0.577573,-0.078343,0.005192,31.04,64.3666790738431
52,-8.224131,-3.254239,4.208975,-0.606589,-0.058032,0.010843,31.04,64.5510441075574
62,-8.202596,-3.266801,4.189234,-0.633314,-0.037874,0.020464,30.98,64.6168043921111
72,-8.196614,-3.30389,4.162315,-0.656986,-0.018937,0.036194,30.98,64.7801722994492
82,-8.186445,-3.32722,4.134199,-0.678824,-0.000916,0.054214,31.01,64.9278702980184
92,-8.187043,-3.369693,4.110271,-0.69715,0.017257,0.076816,31.01,65.0964622400717
102,-8.179864,-3.406183,4.078567,-0.709673,0.033445,0.101709,30.98,65.2834901590468
112,-8.176873,-3.435495,4.055236,-0.719752,0.048258,0.129045,30.98,65.4290112893436
122,-8.206185,-3.480959,4.027719,-0.725402,0.061697,0.158214,30.99,65.6844374230376
132,-8.240283,-3.547958,3.975675,-0.72693,0.07254,0.187841,30.99,66.100038791597
142,-8.273782,-3.6006,3.957131,-0.71685,0.087812,0.246942,31.02,66.3203245832941
152,-8.310272,-3.631706,3.930212,-0.706618,0.09163,0.271377,30.99,66.5700477591025
162,-8.348558,-3.662215,3.902096,-0.69379,0.093768,0.293368,30.99,66.8277907822368
172,-8.39821,-3.696911,3.876373,-0.678519,0.09331,0.312763,31,67.0982915309255
182,-8.450253,-3.733402,3.845864,-0.660956,0.090103,0.327271,31,67.3981175795999
192,-8.501101,-3.761517,3.822534,-0.640798,0.082467,0.336129,31,67.6476823424248
202,-8.56152,-3.778865,3.796811,-0.620944,0.070097,0.340099,31,67.91701367006
212,-8.606983,-3.811767,3.772285,-0.599259,0.052534,0.337503,31,68.1619984827705
222,-8.679366,-3.836891,3.748357,-0.576962,0.029932,0.328798,31,68.4462301144139
232,-8.73799,-3.865007,3.739383,-0.555124,0.003818,0.313221,31.02,68.6261589782497
242,-8.794819,-3.879962,3.720241,-0.53466,-0.025351,0.290925,31.02,68.8427987293858
252,-8.830114,-3.895515,3.707679,-0.513585,-0.05681,0.263588,31,68.9848686277506
262,-8.892925,-3.911069,3.690331,-0.495106,-0.089492,0.230143,31,69.2001990374745
272,-8.920444,-3.918845,3.695116,-0.477697,-0.122937,0.192117,30.99,69.2309021580404
282,-8.930613,-3.923033,3.686144,-0.463036,-0.155465,0.149967,30.99,69.2984189198742
292,-8.93839,-3.929015,3.688536,-0.451124,-0.186619,0.105222,31,69.3046223442366
302,-8.9348,-3.936193,3.703491,-0.440281,-0.215788,0.058796,31,69.2270947594221
312,-8.887542,-3.933203,3.714857,-0.432798,-0.266185,-0.0281,31.04,69.0817833745436
322,-8.834302,-3.920042,3.738786,-0.429286,-0.286343,-0.06689,31,68.8515903559342
332,-8.774481,-3.914658,3.74716,-0.431729,-0.301462,-0.100182,31,68.6942614684174
342,-8.693125,-3.909274,3.748955,-0.436769,-0.314443,-0.126296,30.96,68.5295210990752
352,-8.624928,-3.903292,3.74716,-0.442877,-0.324522,-0.144164,30.96,68.4058129646678
362,-8.555537,-3.902694,3.748357,-0.448528,-0.331089,-0.152411,31.02,68.267402892062
372,-8.487342,-3.892524,3.728018,-0.454789,-0.336739,-0.151342,31.02,68.2352852966472
382,-8.395817,-3.87398,3.716652,-0.459371,-0.342543,-0.140804,31,68.1021908175685
392,-8.317451,-3.877569,3.702295,-0.461661,-0.346819,-0.119424,31,68.0290653603996
402,-8.232506,-3.85723,3.7005,-0.461356,-0.351553,-0.088117,31.02,67.8519115182134
412,-8.164909,-3.845266,3.689733,-0.459065,-0.355218,-0.0478,31.02,67.7636995024785
422,-8.088339,-3.829713,3.699304,-0.455095,-0.35644,0.001222,31.02,67.5413815657295
432,-8.04467,-3.82074,3.701099,-0.44975,-0.356745,0.058643,31.02,67.4332520074651
442,-7.994421,-3.803392,3.726821,-0.441656,-0.353538,0.122173,31.04,67.1706366428274
452,-7.958529,-3.784249,3.73041,-0.432951,-0.348957,0.190437,31.04,67.056435698364
462,-7.943573,-3.756134,3.760321,-0.424399,-0.341932,0.262214,31,66.8315813858747
472,-7.955537,-3.74058,3.818945,-0.416457,-0.331853,0.335518,31,66.5192475700348
482,-7.996215,-3.692126,3.859025,-0.408363,-0.32101,0.476322,31.04,66.3391580217748
492,-8.046464,-3.665206,3.902096,-0.394008,-0.293979,0.540768,31.01,66.1872509422755
502,-8.117651,-3.637689,3.947559,-0.388968,-0.278707,0.596204,31.01,66.0696536064063
512,-8.200802,-3.604787,3.988237,-0.387441,-0.262825,0.642325,30.99,66.0008981087768
522,-8.285748,-3.586243,4.021138,-0.387899,-0.248011,0.677297,30.99,65.9927579712289
532,-8.377871,-3.571886,4.051647,-0.391259,-0.233045,0.699288,31,66.0172565617111
542,-8.469396,-3.541378,4.079762,-0.395688,-0.220522,0.709978,31,66.0387043713625
552,-8.560324,-3.518646,4.092923,-0.400269,-0.209221,0.707993,30.98,66.1437287319401
562,-8.626126,-3.51386,4.106084,-0.406836,-0.199295,0.69379,30.98,66.2104920878743
572,-8.694919,-3.485744,4.113262,-0.413403,-0.191354,0.667828,30.98,66.2939961818933
582,-8.758329,-3.463611,4.115655,-0.420428,-0.185398,0.632246,30.98,66.3954635213008
592,-8.810373,-3.463611,4.105485,-0.426078,-0.1799,0.588416,31.01,66.5548581978683
602,-8.850453,-3.454039,4.094718,-0.430355,-0.176082,0.535882,31.01,66.6841069902879
612,-8.859426,-3.456432,4.074379,-0.433103,-0.172875,0.478766,30.97,66.8077764577444
622,-8.873184,-3.436692,4.045067,-0.433256,-0.172264,0.416305,30.97,66.9694563449628
632,-8.870193,-3.440281,4.017549,-0.433103,-0.17318,0.352469,30.98,67.1067175591365
642,-8.843873,-3.425326,3.994817,-0.429591,-0.176387,0.288176,30.98,67.1584514859644
652,-8.766106,-3.438486,3.949952,-0.42394,-0.179594,0.227242,31.02,67.2430385772203
662,-8.696116,-3.434897,3.918845,-0.408363,-0.189674,0.121409,31.02,67.2599060743711
672,-8.625527,-3.439683,3.896114,-0.397979,-0.193186,0.078954,31,67.2387673838706
682,-8.571091,-3.453441,3.883551,-0.386525,-0.196546,0.044593,31,67.2045639708314
692,-8.498111,-3.458227,3.87398,-0.374919,-0.197768,0.020617,31,67.1085507644651
702,-8.449656,-3.452843,3.85723,-0.361785,-0.196699,0.005345,31,67.0922863911686
712,-8.373683,-3.458825,3.845864,-0.348804,-0.193797,-0.000153,31,66.9991492150421
722,-8.325229,-3.468396,3.841079,-0.336587,-0.18891,0.002443,31.02,66.9310530558624
732,-8.275578,-3.47378,3.847061,-0.3233,-0.182038,0.012981,31.02,66.7982193812175
742,-8.242676,-3.479763,3.846462,-0.312763,-0.174249,0.031154,31.01,66.7365521075746
752,-8.229516,-3.485146,3.866802,-0.302226,-0.165544,0.053298,31.01,66.6033073401761
762,-8.221739,-3.489334,3.864408,-0.293979,-0.157603,0.079412,30.99,66.6033251640351
772,-8.21157,-3.496512,3.865605,-0.28787,-0.149967,0.108429,30.99,66.5815307935795
782,-8.236095,-3.492923,3.888935,-0.283594,-0.141263,0.139277,31,66.5052027833289
792,-8.261818,-3.492325,3.894319,-0.283594,-0.133779,0.168599,31,66.531058354342
802,-8.296515,-3.504289,3.914658,-0.285732,-0.126907,0.196393,30.99,66.5072918940852
812,-8.343773,-3.494718,3.930809,-0.290466,-0.120646,0.221744,30.99,66.5135282698665
822,-8.393424,-3.485146,3.964309,-0.299629,-0.11469,0.242361,30.99,66.4330333641785
832,-8.503493,-3.491727,3.97747,-0.312916,-0.106443,0.269544,30.99,66.6024573133834
842,-8.557931,-3.49711,3.994219,-0.350789,-0.105222,0.275195,31,66.6334242786024
852,-8.629715,-3.5007,3.994219,-0.373239,-0.10568,0.274431,31.02,66.7855564766856
862,-8.672785,-3.50728,4.001996,-0.399048,-0.10965,0.265726,31.02,66.8393978418952
872,-8.715857,-3.5007,4.013362,-0.426689,-0.115301,0.251218,31.01,66.8634916026431
882,-8.766705,-3.501298,4.012764,-0.454484,-0.123242,0.231212,31.01,66.9706503973147
892,-8.805587,-3.510271,4.013362,-0.483653,-0.133474,0.204487,31.02,67.0534610897564
902,-8.823533,-3.512664,4.00738,-0.5116,-0.144622,0.173638,31.02,67.1221288283022
912,-8.843274,-3.525824,4.007978,-0.538172,-0.156992,0.137903,31.03,67.1691228669559
922,-8.837891,-3.52702,4.00738,-0.563676,-0.168904,0.100335,31.03,67.1623698534018
932,-8.822935,-3.541378,3.998407,-0.585514,-0.180053,0.06017,31.01,67.1898747628774
942,-8.81097,-3.554538,3.998407,-0.605367,-0.190132,0.020159,31.01,67.1765421321763
952,-8.78106,-3.56052,3.991228,-0.621555,-0.198531,-0.0197,30.99,67.1583277699501
962,-8.727222,-3.570091,3.975675,-0.633925,-0.205251,-0.057269,30.99,67.1380550717851
972,-8.684152,-3.584448,3.969693,-0.641561,-0.209221,-0.090103,30.99,67.0939817737403
982,-8.611171,-3.598207,3.958925,-0.646143,-0.211665,-0.119577,30.99,67.0133845036899
992,-8.542974,-3.628117,3.933203,-0.644616,-0.209985,-0.143401,30.99,67.0342496740213
1002,-8.407183,-3.659822,3.91406,-0.639729,-0.206931,-0.169362,30.99,66.883896674377
1012,-8.316854,-3.680161,3.900301,-0.61224,-0.194255,-0.170279,31.05,66.7877292624712
1022,-8.267202,-3.682554,3.885944,-0.592081,-0.184939,-0.162643,31,66.762664235816
1032,-8.188239,-3.704688,3.865007,-0.567341,-0.175471,-0.14676,31,66.7298299786768
1042,-8.134999,-3.716652,3.860221,-0.538478,-0.164628,-0.124922,31,66.6545766839572
1052,-8.087741,-3.736392,3.849453,-0.506407,-0.152869,-0.096364,31,66.6317590522077
1062,-8.049455,-3.753142,3.826722,-0.471283,-0.140804,-0.060934,30.99,66.6903473391487
1072,-8.016554,-3.760919,3.818945,-0.433714,-0.127824,-0.021686,30.99,66.6704618568171
1082,-8.021339,-3.768696,3.818347,-0.395077,-0.114385,0.023671,31,66.6916776576846
1092,-8.013563,-3.769294,3.821338,-0.357356,-0.100793,0.071013,31,66.6594169730343
1102,-8.028519,-3.786642,3.823731,-0.319635,-0.087354,0.120646,30.98,66.6955316902656
1112,-8.056634,-3.781258,3.830909,-0.282678,-0.073304,0.172111,30.98,66.7107009999325
1122,-8.075776,-3.792624,3.839284,-0.248775,-0.060628,0.22266,30.98,66.7170008455844
1132,-8.126026,-3.784847,3.841079,-0.218232,-0.049175,0.270919,30.98,66.8053653003374
1142,-8.173882,-3.783053,3.847659,-0.192728,-0.039248,0.316886,30.97,66.8682511821604
1152,-8.242676,-3.781856,3.855436,-0.171195,-0.032681,0.358578,30.97,66.9682346653932
1162,-8.312068,-3.767499,3.868596,-0.155771,-0.029627,0.394314,30.96,67.0275419194427
1172,-8.454441,-3.742973,3.886542,-0.145539,-0.029474,0.424551,30.96,67.2004928741986
1182,-8.511271,-3.74716,3.902096,-0.142637,-0.040928,0.463647,31.03,67.2372085835318
1192,-8.57827,-3.726821,3.915854,-0.152105,-0.050549,0.471893,31.02,67.2819124607527
1202,-8.649456,-3.720241,3.925426,-0.166155,-0.062461,0.473726,31.02,67.3683936827163
1212,-8.695518,-3.701697,3.927818,-0.185245,-0.075442,0.467465,30.98,67.4315467516271
1222,-8.749356,-3.69392,3.930212,-0.209374,-0.08995,0.454331,30.98,67.5187744441048
1232,-8.787043,-3.672385,3.939184,-0.237627,-0.105222,0.4357,30.99,67.5288200193346
1242,-8.812767,-3.665206,3.940979,-0.267559,-0.121104,0.411418,30.99,67.5641116889473
1252,-8.84088,-3.650849,3.930212,-0.299324,-0.138056,0.383623,31.02,67.6625473658944
1262,-8.852846,-3.647858,3.929015,-0.332158,-0.155923,0.3514,31.02,67.6895510441304
1272,-8.852846,-3.642474,3.918845,-0.363923,-0.173638,0.317955,31,67.737355729061
1282,-8.847462,-3.627519,3.910471,-0.393703,-0.191506,0.284205,31,67.7579337641886
1292,-8.831908,-3.622135,3.897908,-0.422871,-0.208916,0.250302,30.97,67.7879832124954
1302,-8.809774,-3.612564,3.891328,-0.448833,-0.226173,0.217773,30.97,67.7711454005948
1312,-8.769695,-3.61077,3.868596,-0.471588,-0.241903,0.187841,31.01,67.8089610994179
1322,-8.722438,-3.608975,3.849453,-0.490219,-0.255189,0.163101,31.01,67.8144000970715
1332,-8.684152,-3.604787,3.830909,-0.503811,-0.268628,0.142026,31.02,67.8325150044697
1342,-8.580662,-3.596412,3.793222,-0.51221,-0.279929,0.126907,31.02,67.8190905432394
1352,-8.536993,-3.595216,3.775874,-0.515876,-0.301004,0.111636,30.99,67.8230414619998
1362,-8.490333,-3.588037,3.744169,-0.50824,-0.310167,0.111941,31.01,67.8926023900186
1372,-8.447861,-3.589832,3.753741,-0.496023,-0.319788,0.117133,31.01,67.7578575153663
1382,-8.419147,-3.579065,3.722036,-0.478918,-0.329409,0.126296,30.96,67.8608225815398
1392,-8.377273,-3.568895,3.725027,-0.459065,-0.338572,0.13775,30.96,67.75138445135
1402,-8.332406,-3.565904,3.71725,-0.434783,-0.346819,0.151342,31.03,67.699505418842
1412,-8.324032,-3.559922,3.73041,-0.4076,-0.354302,0.168599,31.03,67.6059406386362
1422,-8.296515,-3.544966,3.728616,-0.378889,-0.361479,0.184787,31.01,67.545955860201
1432,-8.283952,-3.530011,3.752544,-0.34972,-0.366519,0.201586,31.01,67.3769869980386
1442,-8.280362,-3.52044,3.77049,-0.320093,-0.370642,0.216399,31.04,67.2637685215341
1452,-8.270193,-3.516851,3.811767,-0.290314,-0.372933,0.23106,31.04,67.0159101683824
1462,-8.289336,-3.49711,3.837489,-0.264199,-0.373239,0.241444,31,66.8999045777768
1472,-8.291131,-3.486342,3.882953,-0.239459,-0.37049,0.250302,31,66.6495322235453
1482,-8.307282,-3.473182,3.929613,-0.218995,-0.364839,0.255189,31,66.4223618773133
1492,-8.315059,-3.451647,3.982255,-0.202044,-0.355676,0.256563,31,66.1389877078231
1502,-8.352147,-3.440281,4.041477,-0.190285,-0.343154,0.252287,31.02,65.895505198532
1512,-8.375478,-3.421138,4.15394,-0.18326,-0.326966,0.244193,31.02,65.3383382244458
1522,-8.4347,-3.409772,4.206582,-0.181427,-0.307418,0.215941,30.99,65.1855259001593
1532,-8.442476,-3.388835,4.256233,-0.194561,-0.259618,0.196088,31,64.9269724920683
1542,-8.455637,-3.381657,4.290331,-0.207083,-0.232434,0.172569,31,64.774216254555
1552,-8.469995,-3.388237,4.334,-0.224646,-0.202349,0.14844,30.96,64.5882463423499
1562,-8.478967,-3.378067,4.374678,-0.246026,-0.171195,0.122478,30.96,64.3913341361503
1572,-8.483753,-3.389433,4.404588,-0.270919,-0.138972,0.096059,31.01,64.2601006278459
1582,-8.479566,-3.371487,4.422534,-0.296575,-0.104,0.07086,31.01,64.1429151692523
1592,-8.486146,-3.384648,4.42732,-0.325438,-0.068875,0.046578,31.03,64.1456399743995
1602,-8.474181,-3.393621,4.442873,-0.35476,-0.032834,0.025351,31.03,64.0475009624752
1612,-8.451449,-3.406183,4.436294,-0.38454,0.00336,0.008247,30.95,64.0403431795139
1622,-8.443673,-3.418745,4.422534,-0.413556,0.038637,-0.007025,30.95,64.1041394621168
1632,-8.429914,-3.428317,4.389633,-0.440892,0.074678,-0.017257,30.98,64.2493173776998
1642,-8.420941,-3.451048,4.360919,-0.466701,0.107512,-0.022602,30.98,64.3968552521366
1652,-8.395219,-3.457031,4.319643,-0.488387,0.139888,-0.023213,31.03,64.5559824711611
1662,-8.379665,-3.501896,4.279563,-0.505949,0.168141,-0.020922,31.03,64.7694545143404
1672,-8.377871,-3.525226,4.225127,-0.520304,0.192881,-0.014355,31,65.0688910333537
1682,-8.370093,-3.538985,4.099504,-0.530384,0.214108,-0.003971,31,65.7191968801545
1692,-8.390432,-3.586841,4.037888,-0.536187,0.230143,0.025504,31.04,66.1301055971753
1702,-8.390432,-3.622734,3.966104,-0.535271,0.244041,0.04383,31.01,66.5406069970588
1712,-8.389236,-3.639483,3.902694,-0.530078,0.241597,0.063835,31.01,66.8885575015431
1722,-8.410173,-3.668795,3.830311,-0.519999,0.232434,0.083689,31.05,67.3420643354089
1732,-8.429914,-3.667599,3.77049,-0.509614,0.216552,0.103847,31.05,67.6995293323414
1742,-8.442476,-3.701099,3.71725,-0.496633,0.195171,0.122631,31.02,68.0379896238875
1752,-8.464012,-3.711866,3.681358,-0.482125,0.168904,0.140346,31.02,68.2814987733815
1762,-8.480762,-3.732205,3.62393,-0.466243,0.13775,0.155465,31.02,68.6388580117076
1772,-8.505288,-3.752544,3.586841,-0.449902,0.102778,0.16921,31.02,68.9016587383947
1782,-8.522635,-3.760321,3.552145,-0.433867,0.064904,0.180663,31.01,69.1270194231162
1792,-8.542377,-3.775874,3.533601,-0.417068,0.023976,0.189063,31.01,69.2762016384468
1802,-8.550752,-3.771687,3.502494,-0.400117,-0.017257,0.195477,31.06,69.4553553257624
1812,-8.570493,-3.781856,3.491727,-0.383471,-0.060476,0.198837,31.06,69.5577185074304
1822,-8.569895,-3.783651,3.485744,-0.367283,-0.103847,0.199906,30.96,69.5902101565262
1832,-8.592029,-3.790231,3.476173,-0.351706,-0.147219,0.197309,30.96,69.6872422484075
1842,-8.615358,-3.778267,3.489334,-0.33735,-0.189674,0.193797,31,69.6495451607203
1852,-8.622537,-3.78724,3.496512,-0.323759,-0.232129,0.188146,31,69.631352113261
1862,-8.637491,-3.782454,3.531208,-0.310625,-0.272446,0.180358,30.99,69.4695802990535
1872,-8.647661,-3.773481,3.551547,-0.287107,-0.349415,0.161268,31.04,69.3727390427019
1882,-8.647062,-3.775874,3.59402,-0.277791,-0.385303,0.152258,31.04,69.1479873564528
1892,-8.635697,-3.769892,3.605984,-0.269697,-0.41829,0.143401,31.04,69.0586011613835
1902,-8.633304,-3.769892,3.641876,-0.261603,-0.447764,0.135001,31.04,68.8639927621483
1912,-8.617152,-3.745365,3.680161,-0.2558,-0.474948,0.127824,31,68.6108620098207
1922,-8.595617,-3.742374,3.724428,-0.250149,-0.498924,0.122937,31,68.3333746829523
1932,-8.58126,-3.728616,3.754339,-0.244346,-0.517708,0.12202,31,68.1362522965262
1942,-8.555537,-3.717848,3.792026,-0.240223,-0.533743,0.124922,31,67.8781567751249
1952,-8.509476,-3.71067,3.845266,-0.237016,-0.545044,0.130572,31.01,67.5000844587749
1962,-8.490333,-3.701697,3.875176,-0.234114,-0.550848,0.139735,31.01,67.296238062628
1972,-8.457432,-3.680759,3.939184,-0.232282,-0.550848,0.152869,31,66.873968156995
1982,-8.413763,-3.676572,3.979862,-0.230754,-0.546266,0.168293,31,66.5660121245155
1992,-8.395219,-3.652046,4.023531,-0.230907,-0.53634,0.186008,31.04,66.2753835492401
2002,-8.363514,-3.641278,4.074379,-0.233961,-0.520915,0.204334,31.04,65.9314123099928
2012,-8.342576,-3.622734,4.121039,-0.23671,-0.500146,0.224035,30.98,65.6247142062305
2022,-8.316256,-3.609573,4.161717,-0.241597,-0.476933,0.243583,30.98,65.3422428325948
2032,-8.319246,-3.580261,4.24726,-0.248317,-0.448528,0.261756,30.96,64.8757242811785
2042,-8.317451,-3.56052,4.285545,-0.256411,-0.383165,0.29291,30.96,64.6544130650855
2052,-8.306684,-3.552743,4.316652,-0.276875,-0.346208,0.3036,31.01,64.4618028285263
2062,-8.318049,-3.519842,4.338786,-0.289856,-0.30864,0.310625,31.01,64.3416351051347
2072,-8.327621,-3.506682,4.372883,-0.302989,-0.270308,0.31261,31.01,64.1753561996917
2082,-8.343175,-3.495316,4.382454,-0.316428,-0.231976,0.311541,30.99,64.1509275074093
2092,-8.346764,-3.483351,4.396214,-0.330631,-0.193492,0.305738,30.99,64.0771331385815
2102,-8.34796,-3.465405,4.400401,-0.343306,-0.155618,0.294742,31,64.0412398495464
2112,-8.358727,-3.461816,4.38724,-0.356898,-0.118508,0.280845,31,64.130048250804
2122,-8.360522,-3.449254,4.388436,-0.369115,-0.082772,0.263894,31.01,64.1161058589339
2132,-8.356933,-3.463012,4.378268,-0.380569,-0.048258,0.243124,31.01,64.1730886812109
2142,-8.348558,-3.451647,4.366303,-0.390343,-0.014508,0.220064,31.02,64.2045241606913
2152,-8.342576,-3.432504,4.344768,-0.397215,0.017868,0.196699,31.02,64.2835273723582
2163,-8.352147,-3.435495,4.324429,-0.403629,0.049022,0.172722,31.03,64.4131842555553
2172,-8.34796,-3.43729,4.298108,-0.407294,0.078496,0.149204,31.03,64.5413271375998
2182,-8.331809,-3.433102,4.267001,-0.409738,0.106901,0.127213,31.02,64.6618959323951
2192,-8.318049,-3.445066,4.237689,-0.409127,0.132252,0.107665,31.02,64.7943548478672
2202,-8.319845,-3.448057,4.163511,-0.407294,0.15516,0.088575,31.01,65.1888229406699
2212,-8.30788,-3.46062,4.115655,-0.403018,0.175929,0.062919,31.01,65.42518547755
2222,-8.318049,-3.474378,4.080959,-0.391717,0.207694,0.054214,31.04,65.6432410973635
2232,-8.310272,-3.474378,4.025326,-0.383776,0.21701,0.050091,31.01,65.9203869257274
2242,-8.305488,-3.491128,3.979862,-0.374613,0.222202,0.048869,31.01,66.1667467595565
2252,-8.323434,-3.491128,3.933203,-0.363618,0.223271,0.052993,31.02,66.4540287119877
2262,-8.333005,-3.521637,3.885944,-0.352164,0.218995,0.06017,31.02,66.7541724595463
2272,-8.344371,-3.522833,3.832704,-0.340099,0.210901,0.07086,31,67.0642974677574
2282,-8.366504,-3.533601,3.790829,-0.326966,0.196546,0.086285,31,67.3445782372517
2292,-8.369495,-3.535994,3.755535,-0.313374,0.178373,0.103847,30.99,67.5426710639991
2302,-8.408379,-3.549154,3.713661,-0.301309,0.154549,0.122784,30.99,67.8586373887725
2312,-8.4347,-3.556931,3.7005,-0.291077,0.127518,0.143095,30.99,67.9890274657704
2322,-8.477771,-3.563511,3.672983,-0.281151,0.096364,0.162032,30.99,68.2282514312846
2332,-8.496913,-3.573681,3.668197,-0.273057,0.062156,0.18158,31,68.300162799653
2342,-8.53819,-3.582056,3.656831,-0.266795,0.025809,0.200975,31,68.4488293935739
2352,-8.596813,-3.589234,3.642474,-0.262825,-0.012217,0.215941,31.03,68.6449321774328
2362,-8.628518,-3.592823,3.656233,-0.260839,-0.052382,0.227547,31.03,68.6354824742625
2372,-8.663215,-3.602993,3.672983,-0.261908,-0.092088,0.236252,30.98,68.6212348880982
2382,-8.745767,-3.597011,3.702893,-0.265574,-0.131031,0.240834,30.98,68.616287045225
2392,-8.773883,-3.61376,3.742374,-0.279165,-0.206625,0.233809,31,68.4760906996643
2402,-8.812168,-3.60718,3.763312,-0.288328,-0.240986,0.22205,31,68.4346731163902
2412,-8.845068,-3.610171,3.792624,-0.300088,-0.273057,0.205251,31,68.3474346760692
2422,-8.8684,-3.611966,3.81715,-0.313527,-0.302836,0.18326,30.96,68.2664335686685
2432,-8.877971,-3.61077,3.842275,-0.32834,-0.330936,0.155618,30.96,68.1542165218109
2442,-8.89113,-3.617948,3.87398,-0.343306,-0.355829,0.126602,30.98,68.0220038580264
2452,-8.892925,-3.619144,3.899105,-0.358731,-0.376598,0.094226,30.98,67.8975551155559
2462,-8.866006,-3.628716,3.924827,-0.374766,-0.395382,0.06017,31.02,67.721292511358
2472,-8.83849,-3.625126,3.949354,-0.390037,-0.410501,0.025962,31.02,67.5391325140365
2482,-8.797811,-3.629912,3.966702,-0.404087,-0.422413,-0.007789,31.02,67.374041761452
2492,-8.746963,-3.6341,3.98405,-0.415388,-0.430507,-0.037568,31.02,67.1874135920519
2502,-8.693125,-3.6341,3.994817,-0.425468,-0.435394,-0.063683,31.01,67.023978001264
2512,-8.626126,-3.643671,4.002594,-0.433714,-0.436005,-0.085521,31.01,66.8561850402491
2522,-8.547162,-3.646064,4.003192,-0.438907,-0.433714,-0.101251,30.98,66.693373892851
2532,-8.473583,-3.647858,3.998407,-0.439823,-0.428522,-0.110567,30.98,66.5675290360566
2542,-8.38445,-3.66042,3.998407,-0.438907,-0.41997,-0.112705,30.96,66.3923067354897
2552,-8.307282,-3.669992,3.986442,-0.433409,-0.408516,-0.105832,30.96,66.3010897398091
2562,-8.143971,-3.684947,3.985844,-0.423482,-0.379958,-0.073762,31.01,65.967857873756
2572,-8.08475,-3.675974,3.986442,-0.395993,-0.362854,-0.045968,31.01,65.8264874803975
2582,-8.046464,-3.699304,3.987639,-0.376904,-0.343459,-0.013439,31.01,65.7593657372094
2592,-7.98126,-3.699304,3.996014,-0.355218,-0.323759,0.024435,30.99,65.5699443588759
2602,-7.963314,-3.69392,4.010371,-0.332463,-0.302531,0.066279,30.99,65.446805570818
2612,-7.931609,-3.688536,4.026522,-0.309098,-0.279318,0.109192,30.98,65.2826946054278
2622,-7.907083,-3.685545,4.044468,-0.284816,-0.253662,0.154091,30.98,65.1270172438567
2632,-7.913662,-3.689135,4.064807,-0.261756,-0.228311,0.198226,30.98,65.0359592036045
2642,-7.924431,-3.686144,4.091727,-0.238696,-0.200669,0.241292,30.98,64.9123595803457
2652,-7.960921,-3.676572,4.109075,-0.21869,-0.1715,0.281303,31.01,64.8923573959307
2662,-7.985447,-3.658626,4.14736,-0.201586,-0.140804,0.316886,31.01,64.7248672539366
2672,-8.027322,-3.661617,4.174279,-0.18555,-0.108734,0.347888,31.01,64.6805455524259
2682,-8.080563,-3.656233,4.20718,-0.174555,-0.076053,0.372475,31.01,64.6223974561749
2692,-8.133802,-3.638885,4.224528,-0.16585,-0.043524,0.392023,31,64.6345033762209
2702,-8.19781,-3.629912,4.260421,-0.162948,-0.010079,0.403629,31,64.5828747475363
2712,-8.263015,-3.617948,4.268198,-0.162032,0.022755,0.408822,30.99,64.6777235180904
2722,-8.322237,-3.607778,4.296911,-0.164628,0.054672,0.406836,30.99,64.6522070016935
2732,-8.458628,-3.576672,4.296313,-0.17089,0.084147,0.383623,31,64.928976556332
2742,-8.547761,-3.585046,4.308277,-0.19227,0.137903,0.364381,31.01,65.0710695582689
2752,-8.583055,-3.551547,4.283153,-0.207389,0.159741,0.33735,31.01,65.24519390861
2762,-8.643474,-3.544369,4.275376,-0.22266,0.177304,0.308182,31,65.4086540674671
2772,-8.673384,-3.543771,4.261019,-0.240986,0.190743,0.275806,31,65.5449226067811
2782,-8.703294,-3.540181,4.226922,-0.260534,0.201891,0.241139,31,65.7781762922204
2792,-8.740383,-3.528217,4.198806,-0.279929,0.208916,0.205862,31,65.9886242750527
2802,-8.762517,-3.522833,4.166502,-0.299324,0.211512,0.170737,31.04,66.1942433846053
2812,-8.769096,-3.51386,4.115655,-0.319024,0.209832,0.136681,31.04,66.4591143435955
2822,-8.772088,-3.521038,4.075575,-0.337045,0.204487,0.104305,30.98,66.6757539247051
2832,-8.774481,-3.533601,4.016951,-0.353386,0.193186,0.075289,30.98,66.9911335535857
2842,-8.760124,-3.518047,3.96072,-0.368504,0.178067,0.051007,30.98,67.2389719424272
2852,-8.743973,-3.515655,3.910471,-0.380416,0.158672,0.030391,30.98,67.4646705968292
2862,-8.730811,-3.525226,3.850052,-0.39019,0.135154,0.014661,30.95,67.7603640519545
2872,-8.69133,-3.525824,3.78724,-0.395993,0.109192,0.004429,30.95,68.0117113580721
2882,-8.662019,-3.531806,3.745365,-0.398895,0.078954,-0.001069,31.02,68.1794933103731
2892,-8.61835,-3.539583,3.649055,-0.398131,0.047037,-0.000611,31.02,68.6117169322753
2902,-8.551949,-3.537788,3.612564,-0.395077,0.014203,0.004123,30.98,68.6771171273379
2912,-8.517851,-3.544369,3.580261,-0.38118,-0.055436,0.027031,30.99,68.7903431860728
2922,-8.495118,-3.544966,3.55394,-0.370337,-0.091477,0.043677,30.99,68.88922706058
2932,-8.469396,-3.547958,3.528217,-0.357662,-0.128282,0.062156,30.98,68.981632728665
2942,-8.450253,-3.539583,3.50728,-0.343764,-0.163712,0.082161,30.98,69.05201469373
2952,-8.431709,-3.549752,3.505485,-0.329104,-0.198989,0.103542,31.03,69.0343018755682
2962,-8.423334,-3.554538,3.521038,-0.313221,-0.233198,0.124311,31.03,68.9371075725878
2972,-8.42812,-3.559922,3.524628,-0.29795,-0.26649,0.144622,31.01,68.9311882393584
2982,-8.425727,-3.538387,3.545565,-0.282831,-0.297339,0.16417,31.01,68.7947909253596
2992,-8.432905,-3.554538,3.57069,-0.268933,-0.327118,0.180816,31.01,68.6853414257347
3002,-8.438289,-3.550949,3.61376,-0.256258,-0.354149,0.193492,31.01,68.4593185839083
3012,-8.463414,-3.548556,3.653242,-0.245721,-0.378278,0.202044,31.02,68.2936566623089
3022,-8.475378,-3.544369,3.712464,-0.237168,-0.399048,0.207236,31.02,67.995627889132
3032,-8.480762,-3.544369,3.760919,-0.23106,-0.417374,0.209221,31,67.7471804979656
3042,-8.498111,-3.534199,3.80399,-0.228769,-0.430507,0.206625,31,67.5441992094397
3052,-8.507083,-3.53719,3.869792,-0.228769,-0.439059,0.198837,30.97,67.2161772263545
3062,-8.504092,-3.536592,3.929613,-0.231212,-0.442877,0.188452,30.97,66.8939660135374
3072,-8.52144,-3.540181,4.05404,-0.235947,-0.441197,0.174402,31.04,66.2821698886646
3082,-8.509476,-3.545565,4.096512,-0.253814,-0.420733,0.143859,31.04,66.0408045319537
3092,-8.502895,-3.539583,4.144369,-0.26481,-0.402407,0.126755,31.02,65.7734090081092
3102,-8.478967,-3.538985,4.194618,-0.276417,-0.379958,0.109192,31.01,65.4615122377432
3112,-8.469396,-3.549154,4.21735,-0.288176,-0.353844,0.09499,31.01,65.3327098594751
3122,-8.451449,-3.550351,4.241278,-0.301157,-0.324828,0.079871,31.02,65.1712796676589
3132,-8.423933,-3.559324,4.271787,-0.311541,-0.293368,0.067653,31.02,64.96196556651
3142,-8.420941,-3.573082,4.285545,-0.32101,-0.260076,0.057879,31.02,64.8975280193673
3152,-8.4012,-3.569493,4.284349,-0.330936,-0.227395,0.049175,31.02,64.856498353021
3162,-8.392825,-3.566502,4.290929,-0.338725,-0.193339,0.043371,31.02,64.8011907795838
3172,-8.386245,-3.586841,4.289135,-0.344528,-0.159894,0.041692,31.02,64.8150737360007
3182,-8.373085,-3.592823,4.277769,-0.348499,-0.127365,0.040317,31.04,64.8500258097474
3192,-8.366504,-3.610171,4.262814,-0.3514,-0.096669,0.041539,31.04,64.9290910458153
3202,-8.35454,-3.615555,4.258626,-0.351706,-0.067501,0.045204,30.98,64.9293460074848
3212,-8.342576,-3.618546,4.233501,-0.350789,-0.038485,0.052229,30.98,65.0356469893082
3222,-8.344371,-3.62393,4.206582,-0.350026,-0.013286,0.058643,30.99,65.1842979142589
3232,-8.33121,-3.627519,4.195815,-0.345597,0.010232,0.067348,30.99,65.2146843752479
3242,-8.337193,-3.648456,4.147958,-0.342085,0.032376,0.077733,31.04,65.4968814372085
3252,-8.338987,-3.654438,4.141976,-0.336892,0.071319,0.099571,31.04,65.537666204635
3262,-8.343175,-3.641876,4.108477,-0.324828,0.087201,0.110108,31,65.7097467796292
3272,-8.367702,-3.654438,4.08754,-0.31933,0.100793,0.12034,31.02,65.8838423631002
3282,-8.375478,-3.66042,4.061218,-0.313832,0.113926,0.129351,31.02,66.0437485864685
3292,-8.386844,-3.67418,4.033103,-0.30864,0.123242,0.135459,30.98,66.2279200478089
3302,-8.405987,-3.669394,4.024727,-0.304211,0.132252,0.141721,30.98,66.3077898209387
3312,-8.423334,-3.672983,3.998407,-0.299782,0.138208,0.145386,31.04,66.485410166039
3322,-8.437692,-3.668795,3.972684,-0.296728,0.141415,0.146302,31.04,66.6464732686026
3332,-8.458031,-3.673581,3.945765,-0.293826,0.14279,0.14508,30.96,66.8342071488688
3342,-8.470592,-3.666403,3.92064,-0.292146,0.141263,0.143553,30.96,66.9856683043559
3352,-8.483154,-3.656831,3.889533,-0.290925,0.13607,0.140041,30.99,67.1666226702489
3362,-8.495118,-3.662813,3.855436,-0.289397,0.127976,0.135154,30.99,67.3759002540969
3372,-8.513064,-3.655036,3.822534,-0.288634,0.11637,0.130114,30.96,67.5790184302772
3382,-8.523833,-3.650251,3.793222,-0.288328,0.100182,0.124464,30.96,67.7514591665706
3392,-8.528021,-3.650251,3.76391,-0.288787,0.081551,0.120188,30.98,67.9150746361702
3402,-8.539386,-3.651447,3.732804,-0.288328,0.058796,0.115912,30.98,68.1035679825079
3412,-8.536395,-3.651447,3.683152,-0.288787,0.03375,0.113926,30.99,68.3619538170545
3422,-8.525029,-3.637689,3.662813,-0.28787,0.005803,0.114537,30.99,68.4370273577148
3432,-8.528021,-3.620341,3.643671,-0.286496,-0.057269,0.119119,30.99,68.5309369852392
3442,-8.533404,-3.622135,3.636492,-0.28451,-0.090561,0.125838,31,68.581287662598
3452,-8.528021,-3.623332,3.627519,-0.282678,-0.12538,0.133627,31,68.6199515224891
3462,-8.528021,-3.624528,3.615555,-0.280387,-0.160199,0.143248,31.05,68.685107253398
3472,-8.532208,-3.609573,3.618546,-0.277333,-0.194408,0.155618,31.05,68.6649021813732
3482,-8.536395,-3.600002,3.633501,-0.27382,-0.228616,0.16921,31.03,68.5849780138917
3492,-8.530412,-3.595216,3.63051,-0.270461,-0.261908,0.182801,31.03,68.5855121979466
3502,-8.544172,-3.595814,3.649653,-0.265879,-0.294132,0.197157,31,68.5101346417975
3512,-8.536993,-3.580261,3.680759,-0.261603,-0.324675,0.212276,31,68.3170344756584
3522,-8.541779,-3.577868,3.710072,-0.257632,-0.351553,0.226326,31.02,68.1680005422245
3532,-8.548957,-3.564708,3.742973,-0.252745,-0.377515,0.239154,31.02,67.9961403128227
3542,-8.544769,-3.557529,3.779463,-0.248622,-0.399659,0.251371,30.98,67.7880221347539
3552,-8.550154,-3.559922,3.818945,-0.244346,-0.418595,0.260381,30.98,67.5917091641013
3562,-8.563314,-3.548556,3.858427,-0.240528,-0.433867,0.266948,31,67.400369971204
3572,-8.562716,-3.540181,3.902694,-0.236863,-0.444252,0.269697,31,67.1592480329862
3582,-8.571091,-3.528815,3.944568,-0.234572,-0.45036,0.269392,31.04,66.9472758979931
3592,-8.5681,-3.53061,4.031308,-0.231823,-0.451888,0.264963,31.04,66.4901435325353
3602,-8.559725,-3.516253,4.074379,-0.229227,-0.441656,0.246942,31,66.2364788410771
3612,-8.556136,-3.512664,4.116253,-0.229685,-0.430813,0.232892,31,66.0089019577064
3622,-8.543573,-3.506682,4.158128,-0.230449,-0.415541,0.214566,31,65.7605190882294
3632,-8.542974,-3.50728,4.19402,-0.232129,-0.39691,0.195019,30.99,65.5748817330083
3642,-8.535797,-3.497709,4.231109,-0.235336,-0.375682,0.172417,30.99,65.3602502652654
3652,-8.507083,-3.49053,4.260421,-0.239612,-0.351247,0.149967,30.99,65.1405799442201
3662,-8.490333,-3.506083,4.288536,-0.244041,-0.324064,0.125075,30.99,64.9736659618785
3672,-8.471789,-3.495914,4.309474,-0.250149,-0.295048,0.101556,30.96,64.8160201450811
3682,-8.447262,-3.495316,4.316652,-0.257632,-0.264505,0.076969,30.96,64.7239892018075
3692,-8.410771,-3.493521,4.334598,-0.264657,-0.231976,0.055131,31.01,64.5483786223914
3702,-8.380263,-3.508476,4.344768,-0.273057,-0.197462,0.035583,31.01,64.4413589187198
3712,-8.355738,-3.5007,4.346562,-0.281151,-0.16249,0.016493,30.99,64.3690904385315
3722,-8.317451,-3.507878,4.351946,-0.290008,-0.125838,0.001374,30.99,64.2609227685551
3732,-8.283354,-3.501298,4.348955,-0.298408,-0.087659,-0.009621,30.99,64.1917581719948
3742,-8.258228,-3.506682,4.338188,-0.306349,-0.049022,-0.018479,30.99,64.1948351741362
3752,-8.216354,-3.512065,4.317849,-0.313679,-0.011148,-0.021838,30.98,64.2090346676585
3762,-8.191828,-3.535994,4.271787,-0.320399,0.026114,-0.023366,30.98,64.4162598091957
3772,-8.160722,-3.537788,4.244269,-0.325286,0.094684,-0.013439,31.02,64.4906700801039
3782,-8.151749,-3.551547,4.199404,-0.330936,0.125227,-0.003054,30.96,64.7197062883538
3792,-8.151151,-3.548556,4.176074,-0.331394,0.154243,0.010385,30.96,64.8384243756787
3802,-8.154141,-3.547958,4.144369,-0.331242,0.180511,0.026573,30.97,65.012227882236
3812,-8.163115,-3.554538,4.111467,-0.329867,0.202807,0.044288,30.97,65.2132503214959
3822,-8.176873,-3.566502,4.079762,-0.32834,0.222966,0.063072,31.02,65.4239639195869
3832,-8.187043,-3.574877,4.048656,-0.326355,0.239765,0.08262,31.02,65.6199988126571
3842,-8.22772,-3.591627,4.010371,-0.323148,0.253509,0.103236,30.99,65.928991039025
3852,-8.264212,-3.59043,3.979862,-0.321468,0.262672,0.121868,30.99,66.1692617571337
3862,-8.313264,-3.603591,3.949952,-0.319788,0.26817,0.139888,30.95,66.4455178243538
3872,-8.357532,-3.595216,3.904488,-0.317344,0.268475,0.155923,30.95,66.773016743568
3882,-8.405987,-3.595216,3.87398,-0.316734,0.262672,0.168446,30.98,67.0361275111448
3892,-8.48136,-3.602993,3.842873,-0.31429,0.250607,0.179136,30.98,67.3625652658322
3902,-8.528618,-3.602395,3.8004,-0.313374,0.233503,0.186619,31.01,67.6823685291159
3912,-8.577072,-3.623332,3.773481,-0.312458,0.210596,0.191201,31.01,67.9386976834094
3922,-8.627921,-3.626323,3.744169,-0.310625,0.180816,0.19227,30.97,68.1956280428048
3932,-8.674582,-3.625126,3.694518,-0.30864,0.147066,0.190285,30.97,68.546795095387
3942,-8.760723,-3.637689,3.675974,-0.306196,0.109039,0.176235,31,68.8177449711588
3952,-8.779864,-3.658626,3.659224,-0.299629,0.026114,0.165392,31.01,68.9577891842322
3962,-8.802596,-3.654438,3.646064,-0.296117,-0.017104,0.153022,31.01,69.0658221595038
3972,-8.819944,-3.656233,3.6341,-0.291383,-0.060323,0.139125,30.99,69.1619806329943
3982,-8.833703,-3.65384,3.631108,-0.286801,-0.104153,0.123089,30.99,69.2011606911498
3992,-8.813364,-3.650849,3.619144,-0.281609,-0.146608,0.107207,31.01,69.2242130617682
4002,-8.816954,-3.66401,3.629912,-0.275653,-0.187536,0.092088,31.01,69.1843735744514
4012,-8.803194,-3.666403,3.634698,-0.269697,-0.226784,0.0759,30.98,69.1357447433057
4022,-8.781659,-3.655036,3.655036,-0.263588,-0.26313,0.062003,30.98,68.9803259164481
4032,-8.761918,-3.656831,3.671188,-0.257174,-0.298255,0.048869,31.02,68.8600689813548
4042,-8.72124,-3.667599,3.684349,-0.251371,-0.33002,0.037874,31.02,68.7229078229604
4052,-8.698509,-3.662813,3.690929,-0.246331,-0.358578,0.029016,31.02,68.6414498981062
4062,-8.669196,-3.659224,3.719643,-0.241292,-0.384845,0.022755,31.02,68.4314411521099
4072,-8.624331,-3.653242,3.738187,-0.235947,-0.407447,0.01909,31.04,68.2422877425434
4082,-8.585447,-3.645465,3.77049,-0.231518,-0.426995,0.019853,31.04,67.9894441530267
4092,-8.55135,-3.64726,3.8004,-0.228464,-0.442725,0.02138,31,67.7656739040509
4102,-8.511271,-3.646662,3.824329,-0.224951,-0.456164,0.024893,31,67.5587340009222
4112,-8.413763,-3.6341,3.889533,-0.222355,-0.464258,0.033139,31.04,67.0042311370407
4122,-8.376674,-3.622135,3.928416,-0.218232,-0.466854,0.058338,31.04,66.7104354111565
4132,-8.34138,-3.620939,3.958925,-0.217773,-0.462425,0.072693,31,66.4734858762184
4142,-8.290532,-3.609573,3.999005,-0.215788,-0.452193,0.090255,30.96,66.1421738962389
4152,-8.243872,-3.607778,4.038486,-0.215177,-0.438907,0.108123,30.96,65.8302660210771
4164,-8.219346,-3.603591,4.080361,-0.214261,-0.421039,0.125991,30.99,65.5507779573753
4172,-8.187043,-3.598207,4.110869,-0.213956,-0.399506,0.144928,30.99,65.3126272081459
4182,-8.165507,-3.600002,4.127619,-0.213192,-0.374919,0.163559,30.97,65.177726565353
4192,-8.145168,-3.598805,4.158128,-0.212428,-0.347124,0.182191,30.97,64.9695680683108
4202,-8.13141,-3.58744,4.192824,-0.211818,-0.315359,0.199906,30.98,64.7439012523963
4212,-8.130812,-3.586243,4.22094,-0.212581,-0.281609,0.215635,30.98,64.5932490883987
4223,-8.12782,-3.572484,4.247859,-0.212581,-0.24511,0.230449,30.98,64.431009662281
4232,-8.133802,-3.574877,4.265206,-0.212581,-0.208152,0.243124,30.98,64.3561946026141
4242,-8.149356,-3.562913,4.286742,-0.213956,-0.169515,0.253967,31,64.2672424697531
4252,-8.158927,-3.565904,4.291527,-0.215941,-0.129351,0.261908,31,64.2673425509645
4262,-8.184649,-3.556931,4.305884,-0.218079,-0.088881,0.26817,30.96,64.2427560970321
4272,-8.20798,-3.559324,4.306482,-0.220675,-0.048717,0.270919,30.96,64.2957047186185
4282,-8.245069,-3.549154,4.3005,-0.223271,-0.009621,0.271682,30.95,64.4016662547697
4292,-8.315658,-3.536592,4.284349,-0.226326,0.062919,0.264047,30.95,64.6335301542372
4302,-8.353942,-3.539583,4.292126,-0.234878,0.09499,0.2558,31,64.6824560377774
4312,-8.389835,-3.542574,4.267001,-0.239306,0.124464,0.245568,31.03,64.8952205707116
4322,-8.438888,-3.539583,4.232903,-0.244652,0.149662,0.232129,31.03,65.1768909779674
4332,-8.478967,-3.531806,4.211967,-0.24908,0.171042,0.217163,31.01,65.3655194661552
4342,-8.516654,-3.521637,4.188038,-0.253967,0.188452,0.200058,31.01,65.5615551754155
4352,-8.544172,-3.519842,4.165905,-0.260534,0.20128,0.179594,31.01,65.7333353257851
4362,-8.597412,-3.528815,4.128217,-0.264963,0.21029,0.159894,31.01,66.04884233824
4372,-8.621939,-3.531806,4.097709,-0.270002,0.21365,0.13775,30.99,66.2602382716851
4382,-8.64826,-3.516253,4.063612,-0.274584,0.212734,0.115148,30.99,66.4777708496996
4392,-8.665607,-3.522235,4.028317,-0.278402,0.207847,0.091477,31.01,66.7009710743127
4402,-8.679366,-3.523431,3.997808,-0.28054,0.199906,0.07086,31.01,66.8879746983027
4412,-8.679964,-3.531806,3.956532,-0.284052,0.18891,0.0478,31,67.1100070088478
4422,-8.681759,-3.515056,3.926622,-0.285427,0.175166,0.027184,31,67.2552834614081
4432,-8.687741,-3.516253,3.891926,-0.28619,0.15913,0.007941,30.98,67.4490233418391
4442,-8.68475,-3.521637,3.863212,-0.28619,0.140652,-0.00901,30.98,67.5972882573472
4452,-8.664412,-3.533002,3.799803,-0.285274,0.121104,-0.022449,30.98,67.8984002302625
4462,-8.644073,-3.531806,3.781258,-0.283441,0.100029,-0.045204,30.98,67.9548590907637
4472,-8.625527,-3.529413,3.758526,-0.27718,0.054062,-0.050855,30.98,68.0363175921296
4482,-8.600404,-3.531806,3.733402,-0.273973,0.028711,-0.054672,31.02,68.1217881044708
4492,-8.567502,-3.538985,3.715455,-0.270155,0.003054,-0.055436,31.02,68.1581431839464
4502,-8.550752,-3.545565,3.705286,-0.266948,-0.023976,-0.054214,30.98,68.1846744927041
4512,-8.540583,-3.553342,3.689733,-0.263894,-0.050702,-0.049327,30.98,68.2540452989346
4522,-8.526823,-3.555136,3.678965,-0.260839,-0.078038,-0.04215,30.99,68.2860305800681
4532,-8.493923,-3.558127,3.661617,-0.258854,-0.105374,-0.032987,30.99,68.3167468314615
4542,-8.483154,-3.56052,3.665804,-0.256105,-0.132252,-0.022297,31.02,68.2749866371474
4552,-8.469396,-3.566502,3.669394,-0.253356,-0.15913,-0.007789,31.02,68.2334622521506
4562,-8.452645,-3.572484,3.672983,-0.251524,-0.186008,0.007178,31.01,68.1859642495057
4572,-8.437692,-3.585645,3.672983,-0.250455,-0.211818,0.024587,31.01,68.1673555640559
4582,-8.422735,-3.579065,3.683152,-0.248622,-0.236558,0.041386,30.98,68.0772381937317
4592,-8.410173,-3.588037,3.695715,-0.2474,-0.260992,0.060476,30.98,67.9920834727989
4602,-8.415558,-3.597011,3.713661,-0.246484,-0.283289,0.080023,30.98,67.9139908376298
4612,-8.41436,-3.6006,3.731607,-0.244957,-0.304516,0.099571,30.98,67.8182684805747
4622,-8.39821,-3.608975,3.763312,-0.243735,-0.324675,0.117744,31,67.6228448175632
4632,-8.402397,-3.609573,3.813561,-0.242666,-0.342543,0.13607,31,67.3631404392139
4642,-8.406584,-3.633501,3.855436,-0.240375,-0.369879,0.167377,31.03,67.1698341576552
4652,-8.405388,-3.632305,3.884149,-0.239917,-0.377515,0.181885,30.97,67.0138773326696
4662,-8.407781,-3.631108,3.922434,-0.237932,-0.382096,0.194866,30.97,66.8150543236527
4672,-8.412566,-3.633501,3.952943,-0.237168,-0.383013,0.203265,31.01,66.6661184522628
4682,-8.418548,-3.63051,4.00379,-0.235336,-0.380111,0.20861,31.01,66.4084945168609
4692,-8.416155,-3.636492,4.041477,-0.233809,-0.372781,0.213497,31,66.211392216409
4702,-8.430512,-3.641876,4.079762,-0.232587,-0.361632,0.213956,31,66.0468711775513
4712,-8.421539,-3.635296,4.111467,-0.231823,-0.347888,0.21365,30.99,65.8566175170973
4722,-8.4347,-3.649055,4.146762,-0.229533,-0.330784,0.209832,30.99,65.7143578293099
4732,-8.44427,-3.639483,4.173083,-0.228158,-0.31032,0.204029,31,65.589874711164
4742,-8.444869,-3.637689,4.188038,-0.225715,-0.28787,0.19563,31,65.5122759285357
4752,-8.453244,-3.651447,4.22393,-0.224188,-0.264352,0.18555,31,65.3583447163783
4762,-8.455637,-3.64726,4.232903,-0.222813,-0.239612,0.172722,31,65.3135049033374
4772,-8.450253,-3.648456,4.252046,-0.22098,-0.213192,0.159283,30.98,65.2046645209704
4782,-8.453843,-3.643072,4.261617,-0.21869,-0.186619,0.145386,30.98,65.1583459742284
4792,-8.441879,-3.637689,4.272385,-0.21701,-0.159741,0.129351,31.02,65.0719639227812
4802,-8.447861,-3.646064,4.273581,-0.215025,-0.133169,0.113774,31.02,65.0868082961241
4812,-8.427522,-3.628117,4.271787,-0.213956,-0.078954,0.085216,31.02,65.0345371871859
4822,-8.421539,-3.631108,4.269992,-0.212276,-0.052534,0.07254,30.96,65.0334476119127
4832,-8.402995,-3.627519,4.251448,-0.211665,-0.026878,0.062156,30.96,65.0846819993755
4842,-8.392226,-3.62393,4.245465,-0.211207,-0.002291,0.051924,31.02,65.0884437441395
4852,-8.370691,-3.62393,4.232903,-0.210138,0.022144,0.045051,31.02,65.1059200953371
4862,-8.369495,-3.618546,4.204189,-0.21029,0.045357,0.040012,31.01,65.2467754025898
4872,-8.358727,-3.605386,4.190431,-0.211207,0.067042,0.036957,31.01,65.2820525173354
4882,-8.340781,-3.607778,4.168896,-0.212123,0.087659,0.03543,30.98,65.3569488600816
4892,-8.325827,-3.601796,4.150351,-0.213039,0.106291,0.03711,30.98,65.4152040497163
4902,-8.319246,-3.598805,4.124628,-0.21365,0.123853,0.04047,30.97,65.532482214712
4912,-8.313862,-3.592823,4.095316,-0.216246,0.139125,0.045509,30.97,65.6688047668964
4922,-8.308478,-3.589832,4.071986,-0.218232,0.152564,0.052687,30.97,65.776950142716
4932,-8.315658,-3.582056,4.033103,-0.221591,0.164781,0.062156,30.97,65.9902534464107
4942,-8.317451,-3.580261,4.006782,-0.225715,0.173791,0.072846,30.98,66.1315804090831
4952,-8.327621,-3.567699,3.983452,-0.22938,0.180663,0.084147,30.98,66.2653741392797
4962,-8.34138,-3.568895,3.946961,-0.233503,0.184023,0.094073,31.01,66.4893952238746
4972,-8.355139,-3.556931,3.882953,-0.237627,0.18387,0.106749,31.01,66.8483291626908
4982,-8.404191,-3.548556,3.853043,-0.242208,0.171959,0.127518,30.99,67.1027377852818
4992,-8.426325,-3.542574,3.829114,-0.251829,0.159894,0.136987,31.02,67.2708386573041
5002,-8.463414,-3.538985,3.794419,-0.2558,0.143401,0.145997,31.02,67.5287121597228
5012,-8.489736,-3.539583,3.766303,-0.259618,0.124158,0.153938,31.01,67.7325093853815
5022,-8.514859,-3.531806,3.745365,-0.262672,0.100945,0.158672,31.01,67.8881864339608
5032,-8.547162,-3.519244,3.731009,-0.265268,0.074678,0.163406,31.04,68.0188487479034
5042,-8.571091,-3.526422,3.716652,-0.266643,0.046273,0.167683,31.04,68.148629791769
5052,-8.603992,-3.528217,3.697509,-0.268933,0.015577,0.168446,31,68.3166620392571
5062,-8.60818,-3.525824,3.690929,-0.269697,-0.016646,0.168446,31,68.3579454575157
5072,-8.636893,-3.526422,3.680759,-0.269392,-0.049633,0.168141,31.01,68.468425520341
5082,-8.656634,-3.523431,3.685545,-0.267559,-0.083383,0.166613,31.01,68.4789346845493
5092,-8.660224,-3.518047,3.689733,-0.266032,-0.11637,0.162796,30.98,68.4594356978821
5102,-8.662019,-3.528815,3.695715,-0.263436,-0.149357,0.158061,30.98,68.4397011002488
5112,-8.677571,-3.522235,3.698706,-0.258854,-0.182343,0.151495,31.02,68.4488140808865
5122,-8.67817,-3.519842,3.714259,-0.253814,-0.21365,0.145844,31.02,68.3658246776789
5132,-8.683554,-3.537788,3.729214,-0.247706,-0.242666,0.137445,31.01,68.3114804704562
5142,-8.669795,-3.526422,3.777669,-0.241903,-0.270308,0.129198,31.01,68.0201628308645
5152,-8.64467,-3.538387,3.78724,-0.235183,-0.295353,0.111025,31,67.9298345854267
5162,-8.636893,-3.541976,3.831507,-0.222202,-0.335365,0.101251,31.02,67.684449427062
5172,-8.623135,-3.551547,3.844668,-0.214719,-0.351095,0.091172,31.02,67.5956952531931
5182,-8.59801,-3.561717,3.884748,-0.207847,-0.363618,0.080634,31.03,67.3432940650304
5192,-8.579466,-3.558127,3.909274,-0.20128,-0.373086,0.071319,31.03,67.1740778876266
5202,-8.553743,-3.558127,3.941577,-0.195782,-0.379042,0.062919,31,66.9521949113206
5212,-8.529217,-3.559324,3.968496,-0.190743,-0.382554,0.054367,31,66.7616276184269
5222,-8.510672,-3.56411,3.997808,-0.185856,-0.382249,0.048411,30.96,66.5738460241868
5232,-8.476574,-3.572484,4.03729,-0.181732,-0.378889,0.042455,30.96,66.3032899697888
5242,-8.443673,-3.570091,4.066004,-0.179442,-0.371711,0.036652,30.97,66.0813373969236
5252,-8.412566,-3.576672,4.092923,-0.17822,-0.36041,0.034514,30.97,65.880104150832
5262,-8.385049,-3.586841,4.113262,-0.177915,-0.346055,0.032223,30.94,65.7238936765284
5272,-8.350353,-3.591029,4.135396,-0.178678,-0.328187,0.031765,30.94,65.5368070654043
5282,-8.328219,-3.583252,4.176074,-0.179594,-0.307723,0.03207,30.99,65.2686422099829
5292,-8.291729,-3.597011,4.19402,-0.182954,-0.282525,0.034361,30.99,65.1074544603121
5302,-8.268997,-3.61077,4.219743,-0.186619,-0.255494,0.036957,30.98,64.9360692784079
5312,-8.256434,-3.61376,4.232305,-0.19059,-0.224493,0.04215,30.98,64.8454486867746
5322,-8.225926,-3.598805,4.271787,-0.196699,-0.19227,0.046731,31.01,64.5563717450628
5332,-8.212168,-3.611966,4.28076,-0.210443,-0.123395,0.057879,31.01,64.4915608894425
5342,-8.204989,-3.60718,4.28734,-0.218842,-0.087048,0.063835,30.98,64.4362098521427
5352,-8.213962,-3.618546,4.27717,-0.225715,-0.050549,0.071013,31,64.5208854300404
5362,-8.21157,-3.61376,4.280162,-0.233809,-0.013439,0.07758,31,64.4951063746165
5372,-8.222935,-3.620341,4.271188,-0.241597,0.022144,0.084299,31.01,64.5741256926704
5382,-8.225926,-3.618546,4.262814,-0.249538,0.058032,0.091935,31.01,64.6226738726065
5392,-8.255239,-3.61376,4.243073,-0.257022,0.090866,0.098197,31.01,64.7867055227058
5402,-8.268997,-3.621537,4.211368,-0.264199,0.121257,0.103236,31.01,64.9902167763774
5412,-8.296515,-3.623332,4.189234,-0.269697,0.149967,0.107818,30.99,65.1683953582934
5422,-8.322835,-3.61735,4.162913,-0.273668,0.173791,0.111636,30.99,65.3578699832851
5432,-8.356335,-3.62393,4.13061,-0.277638,0.194713,0.115606,30.98,65.6057388198873
5442,-8.387442,-3.625126,4.091727,-0.280387,0.210901,0.118202,30.98,65.8769949053997
5452,-8.420941,-3.614957,4.052843,-0.282831,0.221591,0.120035,30.98,66.1424145216921
5462,-8.450253,-3.62393,4.015755,-0.284052,0.228769,0.121104,30.98,66.4065026084237
5472,-8.483753,-3.626323,3.967898,-0.283594,0.229991,0.123242,30.96,66.7291682276872
5482,-8.511868,-3.618546,3.920042,-0.281609,0.226478,0.122326,30.96,67.0313238471461
5492,-8.532208,-3.620341,3.851248,-0.279165,0.216704,0.121715,31,67.4361749092887
5502,-8.581859,-3.622135,3.818945,-0.275348,0.183565,0.122173,31,67.7073275897414
5512,-8.601001,-3.626323,3.783651,-0.266337,0.160658,0.119424,31.04,67.9346695921386
5522,-8.60818,-3.624528,3.750151,-0.260839,0.134696,0.116981,30.98,68.124063280253
5532,-8.632706,-3.61376,3.729214,-0.254273,0.104763,0.114385,30.98,68.2736535129296
5542,-8.63809,-3.610171,3.702893,-0.247553,0.073457,0.112094,31,68.4203510853043
5552,-8.65484,-3.606582,3.689135,-0.240986,0.040164,0.108887,31,68.5225397786896
5562,-8.660224,-3.605386,3.682554,-0.232892,0.004887,0.105374,31.02,68.5667461271249
5572,-8.653644,-3.614359,3.669992,-0.224188,-0.02978,0.101862,31.02,68.627827235666
5582,-8.649456,-3.605386,3.667001,-0.215483,-0.065057,0.097738,31.04,68.6284969027222
5592,-8.641679,-3.593421,3.665206,-0.207083,-0.099724,0.093004,31.04,68.6135581644806
5602,-8.63809,-3.600002,3.666403,-0.198837,-0.133321,0.089797,31.01,68.6055743371882
5612,-8.626723,-3.598207,3.678965,-0.190132,-0.166308,0.085368,31.01,68.5155920601732
5622,-8.627921,-3.586243,3.691527,-0.181427,-0.197004,0.081703,30.98,68.4416314677984
5632,-8.605787,-3.578466,3.70409,-0.172722,-0.22602,0.079107,30.98,68.3257106229733
5642,-8.592626,-3.573681,3.722036,-0.165392,-0.252135,0.076053,30.96,68.2008397715335
5652,-8.567502,-3.574279,3.742374,-0.158825,-0.276264,0.074678,30.96,68.0439303879338
5662,-8.55135,-3.565306,3.799803,-0.152716,-0.298102,0.073915,31.02,67.6998883319908
5672,-8.522038,-3.561118,3.839284,-0.147219,-0.316123,0.075136,31.02,67.4283418114209
5682,-8.490333,-3.556931,3.856034,-0.141263,-0.344833,0.077274,31.03,67.2715361682295
5692,-8.470592,-3.543771,3.902096,-0.140652,-0.353996,0.079565,31,66.9758648826545
5702,-8.447262,-3.54736,3.928416,-0.141568,-0.36041,0.08323,31,66.7913872871571
5712,-8.428718,-3.535994,3.963711,-0.144775,-0.362549,0.088881,31.02,66.5561109417315
5722,-8.417352,-3.53061,4.006183,-0.148288,-0.360869,0.094531,31.02,66.3034105210681
5732,-8.389236,-3.531208,4.0337,-0.151953,-0.354913,0.100487,31.01,66.0989864240046
5742,-8.366504,-3.53719,4.067799,-0.158061,-0.346361,0.10797,31.01,65.8760903884339
5752,-8.359925,-3.538985,4.10728,-0.166003,-0.333227,0.116064,30.97,65.6562956623156
5762,-8.333005,-3.524628,4.123432,-0.173028,-0.318108,0.124158,30.97,65.4993190448586
5772,-8.317451,-3.528217,4.150949,-0.181274,-0.299019,0.131947,30.99,65.3241474554917
5782,-8.299506,-3.528217,4.172484,-0.189215,-0.277027,0.139583,30.99,65.1715536006537
5792,-8.3013,-3.528815,4.194618,-0.197462,-0.252593,0.147677,31,65.0604119226901
5802,-8.294122,-3.534199,4.212564,-0.206014,-0.2277,0.153022,31,64.9558047555838
5812,-8.287541,-3.543172,4.226922,-0.213345,-0.199295,0.15913,30.98,64.8747730901087
5822,-8.279764,-3.522833,4.237689,-0.221439,-0.169362,0.163865,30.98,64.7816020813066
5832,-8.288737,-3.534797,4.235296,-0.228464,-0.139888,0.166919,31,64.8257961678179
5842,-8.299506,-3.544966,4.232305,-0.23442,-0.10965,0.167683,31,64.8753323614131
5852,-8.304291,-3.562913,4.226323,-0.245873,-0.049175,0.166003,30.98,64.9343898739806
5862,-8.333604,-3.565904,4.217948,-0.250607,-0.019548,0.161879,30.97,65.0461429753172
5872,-8.344371,-3.570091,4.208975,-0.25412,0.007789,0.157756,30.97,65.1206312652528
5882,-8.363514,-3.571288,4.189833,-0.256716,0.034819,0.151189,31.02,65.263509589366
5892,-8.386245,-3.580859,4.163511,-0.258091,0.059254,0.143401,31.02,65.45914132694
5902,-8.397013,-3.591627,4.14736,-0.257632,0.080787,0.134238,30.96,65.5765960270584
5912,-8.429914,-3.585645,4.128217,-0.256716,0.098655,0.123853,30.96,65.7418040607915
5922,-8.456235,-3.586243,4.1007,-0.254884,0.113926,0.111941,30.98,65.9419414508441
5932,-8.475378,-3.589234,4.082156,-0.251676,0.125991,0.09896,30.98,66.0818944515015
5942,-8.500502,-3.595216,4.06062,-0.247859,0.133932,0.086743,31.02,66.2524326928258
5952,-8.513064,-3.595814,4.034299,-0.243277,0.138666,0.072693,31.02,66.4163380387064
5962,-8.539985,-3.605386,4.005585,-0.237168,0.140194,0.060018,31.03,66.6303999013639
5972,-8.541181,-3.601198,3.974478,-0.232892,0.137903,0.045357,31.03,66.7914370179273
5982,-8.554939,-3.608975,3.958327,-0.227242,0.134085,0.03146,31,66.910816573044
5992,-8.565108,-3.604787,3.938586,-0.22037,0.126755,0.018937,31,67.0311473152302
6002,-8.57169,-3.6006,3.917649,-0.214872,0.117744,0.007789,31.01,67.1504733653369
6012,-8.589635,-3.599404,3.900301,-0.209374,0.106596,-0.003054,31.01,67.2766330679256
6022,-8.588439,-3.602395,3.88056,-0.204793,0.081092,-0.020617,31.02,67.3801535472345
6032,-8.590234,-3.601796,3.874578,-0.19792,0.066737,-0.028405,31.06,67.4146237405368
6042,-8.575877,-3.59402,3.85723,-0.195019,0.052076,-0.033445,31.06,67.4702744003321
6052,-8.580065,-3.601796,3.851248,-0.194408,0.03711,-0.036499,30.98,67.5166855148139
6062,-8.569296,-3.597609,3.830909,-0.195019,0.020769,-0.039401,30.98,67.5986247618553
6072,-8.559725,-3.589234,3.827918,-0.195019,0.004123,-0.039859,30.98,67.5881648112026
6082,-8.548957,-3.589234,3.82732,-0.196088,-0.012217,-0.038026,30.98,67.5696986371086
6092,-8.545966,-3.597011,3.82074,-0.197615,-0.029016,-0.034514,30.98,67.6050072497181
6102,-8.533404,-3.592823,3.824927,-0.200822,-0.045662,-0.027794,30.98,67.5540971182121
6112,-8.511868,-3.593421,3.813561,-0.203571,-0.062308,-0.019242,30.98,67.57138997352
6122,-8.498111,-3.581457,3.800999,-0.207083,-0.079871,-0.010996,30.98,67.6001200998509
6132,-8.484949,-3.592225,3.80399,-0.211359,-0.095906,0.000916,31,67.566846407067
6142,-8.469396,-3.58744,3.787838,-0.216094,-0.112246,0.015424,31,67.6172598180507
6152,-8.458628,-3.58385,3.796811,-0.219606,-0.129809,0.030849,31.01,67.5445997070952
6165,-8.42812,-3.600002,3.795615,-0.225257,-0.161727,0.065057,30.99,67.5029980449141
6172,-8.42812,-3.600002,3.795615,-0.225257,-0.161727,0.065057,30.99,67.5029980449141
6182,-8.428718,-3.592225,3.795017,-0.226936,-0.178067,0.08323,30.99,67.5006590687945
6192,-8.401799,-3.605386,3.805186,-0.227547,-0.192423,0.121257,30.96,67.4029608625048
6202,-8.400601,-3.611368,3.819543,-0.226936,-0.22098,0.139735,31,67.3291231652127
6212,-8.400003,-3.6006,3.824927,-0.224798,-0.233503,0.157603,31,67.2896993434504
6222,-8.393424,-3.598805,3.832704,-0.222813,-0.244804,0.173944,31.01,67.2331121509065
6232,-8.38146,-3.603591,3.854837,-0.218384,-0.255036,0.188299,31.01,67.0946655121103
6242,-8.4012,-3.605984,3.860819,-0.213345,-0.262672,0.200975,30.98,67.1057301735053
6252,-8.4012,-3.613162,3.878766,-0.206931,-0.268781,0.212276,30.98,67.0167283799234
6262,-8.410173,-3.615555,3.901497,-0.200211,-0.272599,0.220828,30.98,66.9168963427349
6272,-8.412566,-3.60718,3.929613,-0.19227,-0.274278,0.226936,30.98,66.7656308340065
6282,-8.418548,-3.619742,3.954738,-0.184023,-0.274278,0.230602,31,66.6567667206311
6292,-8.425727,-3.620341,3.969095,-0.175929,-0.272446,0.231976,31,66.5967070147358
6302,-8.440084,-3.610171,3.990032,-0.16753,-0.269392,0.229533,30.98,66.5076103284955
6312,-8.455637,-3.611966,4.020541,-0.159436,-0.262672,0.224493,30.98,66.3820147870169
6322,-8.461619,-3.608975,4.052843,-0.151647,-0.255036,0.217315,30.98,66.2232051939619
6332,-8.47119,-3.600002,4.076771,-0.144622,-0.246179,0.207236,30.98,66.1107188877418
6342,-8.475378,-3.598805,4.101298,-0.138666,-0.234878,0.194713,30.94,65.9910426855483
6352,-8.484351,-3.584448,4.148556,-0.133474,-0.222202,0.181427,30.94,65.7523343953878
6362,-8.487941,-3.585645,4.176074,-0.130114,-0.206625,0.167224,30.99,65.619006823593
6372,-8.492128,-3.586841,4.191029,-0.125991,-0.1715,0.133932,31.02,65.5520329918672
6382,-8.487941,-3.574279,4.21077,-0.126907,-0.152105,0.11637,31.02,65.4298913641099
6392,-8.487342,-3.581457,4.22094,-0.129656,-0.131489,0.09896,30.98,65.3828510446503
6402,-8.477173,-3.570091,4.232903,-0.132405,-0.110414,0.08262,30.98,65.2888161932459
6412,-8.466404,-3.572484,4.246064,-0.138514,-0.087354,0.067042,30.96,65.1998650086437
6422,-8.454441,-3.56411,4.24068,-0.143859,-0.063988,0.052382,30.96,65.1936235341985
6432,-8.439486,-3.556333,4.237091,-0.15012,-0.040317,0.039095,30.96,65.1720967796983
6442,-8.426923,-3.554538,4.236493,-0.158061,-0.016341,0.028558,30.96,65.1458867150749
6452,-8.415558,-3.554538,4.226922,-0.166613,0.007178,0.018479,31.03,65.1702697130594
6462,-8.399406,-3.556333,4.224528,-0.175166,0.030238,0.012523,31.03,65.1487201895895
6472,-8.39821,-3.564708,4.203591,-0.183718,0.053145,0.006872,30.99,65.2622780157965
6482,-8.382057,-3.540779,4.187439,-0.192728,0.074831,0.00336,30.99,65.2882522477514
6492,-8.36471,-3.539583,4.161717,-0.201738,0.096211,0.001985,30.97,65.3828323887617
6502,-8.359326,-3.544369,4.150351,-0.210138,0.115912,0.001985,30.97,65.434745612737
6512,-8.356335,-3.555735,4.110271,-0.218384,0.133474,0.003818,30.98,65.6483074739589
6522,-8.362316,-3.534199,4.091129,-0.22602,0.149051,0.007636,30.98,65.7417652445153
6532,-8.353942,-3.529413,4.025326,-0.234267,0.162185,0.011301,31,66.0654785683676
6542,-8.382057,-3.548556,3.988835,-0.248622,0.179594,0.023976,31,66.3357799151743
6552,-8.392825,-3.54736,3.966702,-0.253051,0.183412,0.031612,31,66.4745291036381
6562,-8.399406,-3.550351,3.925426,-0.258091,0.183107,0.038026,30.98,66.7095873091003
6572,-8.425129,-3.552145,3.888337,-0.261908,0.179136,0.045968,30.98,66.9616613792438
6582,-8.443074,-3.547958,3.85723,-0.264657,0.171959,0.052993,30.99,67.1603644317472
6592,-8.461619,-3.535396,3.830909,-0.266643,0.160199,0.060018,30.99,67.3276194216083
6602,-8.492725,-3.540181,3.792026,-0.266795,0.14508,0.067042,31.01,67.6019788572527
6612,-8.520243,-3.555735,3.771687,-0.265879,0.126449,0.073915,31.01,67.7787155884491
6622,-8.532805,-3.549752,3.74716,-0.264352,0.104153,0.080176,30.96,67.9293620472887
6632,-8.557332,-3.555136,3.725027,-0.262672,0.077885,0.083994,30.96,68.1003101715643
6642,-8.574679,-3.553342,3.708277,-0.259312,0.050091,0.088728,31,68.2221859769909
6652,-8.59143,-3.553342,3.687938,-0.255189,0.0197,0.091019,31,68.3632748555581
6662,-8.608777,-3.561717,3.678965,-0.250149,-0.013134,0.092393,30.99,68.4515453349324
6672,-8.623135,-3.553342,3.672385,-0.244193,-0.046731,0.092699,30.99,68.507680606956
6682,-8.630911,-3.568895,3.675974,-0.237016,-0.080023,0.093004,31,68.5160615561759
6692,-8.628518,-3.572484,3.673581,-0.229685,-0.114537,0.092699,31,68.527020444622
6702,-8.63809,-3.573681,3.696911,-0.221897,-0.148593,0.090255,31.02,68.4226865497372
6712,-8.624331,-3.582654,3.707081,-0.213192,-0.211054,0.084452,31.02,68.3493096497176
6722,-8.611171,-3.583252,3.722634,-0.197004,-0.239765,0.079871,31,68.2417384191798
6732,-8.6016,-3.592823,3.746562,-0.186772,-0.265574,0.078038,30.98,68.1041081819324
6742,-8.588439,-3.594618,3.768696,-0.177304,-0.288023,0.073457,30.98,67.962598270801
6752,-8.568698,-3.59402,3.802794,-0.168446,-0.307418,0.070097,30.98,67.7427436283066
6762,-8.560324,-3.601796,3.824927,-0.159741,-0.323453,0.067653,30.98,67.6157196015663
6772,-8.542377,-3.606582,3.870391,-0.151647,-0.336434,0.064599,31,67.3441277837134
6782,-8.508877,-3.605984,3.892524,-0.144011,-0.345902,0.063225,31,67.1590063427696
6792,-8.496315,-3.608377,3.924229,-0.137292,-0.351095,0.062614,31,66.9685303054547
6802,-8.456833,-3.618546,3.962514,-0.131641,-0.35308,0.06185,31,66.6946103321078
6812,-8.449057,-3.60718,3.994219,-0.126755,-0.350789,0.062156,31.04,66.5017802295836
6822,-8.420342,-3.637689,4.02413,-0.122937,-0.346055,0.06185,31.04,66.3121537422628
6832,-8.401799,-3.619144,4.064209,-0.120188,-0.336587,0.063988,30.98,66.0460372096711
6842,-8.386844,-3.622734,4.091727,-0.119119,-0.324369,0.067195,30.98,65.8734913733681
6852,-8.352745,-3.622135,4.122235,-0.118202,-0.309403,0.07025,30.99,65.6399765301392
6862,-8.352745,-3.625725,4.149154,-0.120188,-0.290772,0.075136,30.99,65.5029387959329
6872,-8.324032,-3.628117,4.198207,-0.122784,-0.267864,0.080023,30.97,65.1870196339557
6882,-8.318647,-3.617948,4.206582,-0.126755,-0.244804,0.091324,30.97,65.1218270117676
6892,-8.291729,-3.616751,4.235296,-0.136528,-0.190895,0.097586,30.96,64.9116965850076
6902,-8.273782,-3.626921,4.233501,-0.143248,-0.161727,0.102473,31,64.8909125240957
6912,-8.282157,-3.622135,4.255635,-0.151189,-0.1321,0.108734,31,64.7899748780536
6922,-8.277969,-3.628117,4.252046,-0.159283,-0.10064,0.114385,30.97,64.8050896607848
6932,-8.285149,-3.62393,4.247859,-0.168752,-0.070402,0.118966,30.97,64.8387735388111
6942,-8.283952,-3.617948,4.237091,-0.17822,-0.039859,0.123242,30.97,64.8861868510237
6952,-8.3013,-3.616751,4.245465,-0.187077,-0.010079,0.125991,30.97,64.8802467238026
6962,-8.306085,-3.610171,4.232305,-0.196851,0.018631,0.127671,31.01,64.952825384344
6972,-8.318049,-3.614957,4.214359,-0.206472,0.045815,0.128893,31.01,65.0772107932724
6982,-8.33121,-3.602395,4.192824,-0.214566,0.071013,0.129351,30.99,65.2062206188878
6992,-8.357532,-3.604189,4.184449,-0.222966,0.093615,0.12874,30.99,65.3093743590771
7002,-8.382057,-3.588037,4.148556,-0.228769,0.114843,0.125838,31.02,65.5345084818255
7012,-8.389236,-3.591627,4.119842,-0.234725,0.131489,0.122784,31.02,65.7030561496505
7022,-8.425727,-3.591029,4.088138,-0.239917,0.145997,0.120493,30.96,65.9464463949264
7032,-8.438289,-3.586243,4.070191,-0.242972,0.156687,0.116523,30.96,66.062595808584
7042,-8.453244,-3.59043,4.036692,-0.243583,0.16417,0.111941,31.02,66.2731506240058
7052,-8.496315,-3.589234,3.969095,-0.244499,0.168141,0.105985,31.02,66.7162569860914
7062,-8.513663,-3.588037,3.937988,-0.240375,0.16417,0.096211,31.02,66.9142638965192
7072,-8.520842,-3.576672,3.911667,-0.236252,0.157451,0.090103,31.01,67.0574640138306
7082,-8.55434,-3.585645,3.881757,-0.231212,0.147524,0.085674,31.01,67.2907426067055
7092,-8.551949,-3.575475,3.856034,-0.225104,0.134543,0.081703,30.97,67.4126538719481
7102,-8.569296,-3.571886,3.824927,-0.217773,0.118355,0.076205,30.97,67.6085962576414
7112,-8.583653,-3.571288,3.815356,-0.21029,0.100182,0.07025,31.03,67.6873360504943
7122,-8.584849,-3.556333,3.790231,-0.202349,0.079871,0.066279,31.03,67.8100060429197
7132,-8.584252,-3.566502,3.776472,-0.194408,0.05849,0.062614,30.98,67.8899718192414
7142,-8.59442,-3.547958,3.771687,-0.186619,0.034361,0.057421,30.98,67.9202267564801
7152,-8.600404,-3.55394,3.761517,-0.178678,0.009621,0.052534,31.03,67.9907904492389
7162,-8.595617,-3.543771,3.766901,-0.171653,-0.014966,0.047953,31.03,67.9445048977657
7172,-8.593225,-3.548556,3.756732,-0.165544,-0.039706,0.045204,30.98,67.9975293150116
7182,-8.592626,-3.547958,3.765106,-0.158825,-0.06353,0.040317,30.98,67.9515031360486
7192,-8.590831,-3.533002,3.75733,-0.153938,-0.087812,0.03711,30.98,67.9769214860834
7202,-8.571091,-3.528217,3.776472,-0.150731,-0.111636,0.034361,30.98,67.8322414733564
7212,-8.562119,-3.532404,3.78724,-0.14844,-0.133779,0.030849,30.99,67.7606681647976
7222,-8.569296,-3.530011,3.813561,-0.145997,-0.153785,0.029169,30.99,67.6337662090201
7232,-8.525627,-3.526422,3.831507,-0.145691,-0.189368,0.028863,30.99,67.4475019872279
7242,-8.525627,-3.522833,3.851846,-0.145691,-0.204945,0.028711,31.01,67.3368295410262
7252,-8.508877,-3.526422,3.865007,-0.147829,-0.218537,0.030543,31.01,67.2359925987115
7262,-8.497512,-3.527619,3.900899,-0.150273,-0.229074,0.033292,31,67.0239688924348
7272,-8.487342,-3.535396,3.902694,-0.153327,-0.23839,0.037263,31,67.0001487899454
7282,-8.472386,-3.532404,3.926024,-0.157145,-0.244804,0.043066,30.99,66.843364521565
7292,-8.44427,-3.537788,3.948756,-0.160963,-0.248775,0.048869,30.99,66.6693307965589
7302,-8.423933,-3.535994,3.964907,-0.164323,-0.25076,0.055894,30.95,66.5396993312049
7312,-8.416155,-3.540779,3.990032,-0.168293,-0.249691,0.063225,30.95,66.3950005105086
7322,-8.400003,-3.54736,4.002594,-0.172111,-0.246179,0.071166,31,66.3003684261886
7332,-8.377871,-3.562315,4.028317,-0.176235,-0.240528,0.079718,31,66.1311660286601
7342,-8.378469,-3.558127,4.048656,-0.180663,-0.232892,0.087965,30.98,66.0216662995815
7352,-8.363514,-3.554538,4.065406,-0.184176,-0.221897,0.097891,30.98,65.8981102156697
7362,-8.360522,-3.561118,4.081557,-0.186772,-0.209832,0.10568,31,65.8129001820481
7372,-8.349755,-3.574877,4.089334,-0.189826,-0.19624,0.113316,31,65.7614924423322
7382,-8.357532,-3.576672,4.106682,-0.192117,-0.181274,0.121562,30.96,65.689157733877
7392,-8.344969,-3.595814,4.111467,-0.19395,-0.164781,0.128129,30.96,65.6546688686968
7402,-8.353942,-3.591627,4.119842,-0.19563,-0.147982,0.136223,30.98,65.6264600487454
7412,-8.360522,-3.599404,4.119842,-0.197004,-0.112094,0.138972,30.95,65.6480378972466
7422,-8.370691,-3.602395,4.11745,-0.198378,-0.0956,0.139277,30.95,65.6853848616585
7432,-8.377273,-3.601796,4.111467,-0.197615,-0.078191,0.138666,30.95,65.7303174514785
7442,-8.38445,-3.622135,4.104887,-0.196088,-0.062156,0.13607,30.95,65.7990734676856
7452,-8.404191,-3.629314,4.096512,-0.195477,-0.047495,0.131641,31.02,65.8918233865073
7462,-8.408977,-3.631706,4.091727,-0.19395,-0.033445,0.127213,31.02,65.929230354492
7472,-8.416754,-3.628716,4.089334,-0.19227,-0.020159,0.120951,31.02,65.9555711685735
7482,-8.440084,-3.632305,4.078567,-0.189826,-0.008552,0.113316,31.02,66.0646652519256
7492,-8.455637,-3.632305,4.061816,-0.188299,0.000153,0.104458,31,66.1848881266167
7502,-8.468199,-3.642474,4.06062,-0.186161,0.008552,0.096059,31,66.2268418136132
7512,-8.48136,-3.644269,4.038486,-0.18387,0.015119,0.085827,31.03,66.3713668490324
7522,-8.498111,-3.64726,4.032505,-0.180816,0.019242,0.076358,31.03,66.4402088420343
7532,-8.488539,-3.645465,4.026522,-0.178525,0.022907,0.066584,31.01,66.4497920137178
7542,-8.501101,-3.644867,4.009772,-0.176693,0.025351,0.05681,31.01,66.5627388556812
7552,-8.505288,-3.638287,4.00738,-0.174555,0.026267,0.048106,30.98,66.5780564783214
7562,-8.514859,-3.628716,3.993621,-0.172722,0.02642,0.039401,30.98,66.6612112215523
7572,-8.516056,-3.6341,3.991228,-0.1715,0.025351,0.031918,31.01,66.6809304623479
7582,-8.508279,-3.628117,3.988835,-0.169057,0.020311,0.018479,30.98,66.672037665266
7592,-8.507083,-3.614957,3.968496,-0.169362,0.017868,0.012675,30.98,66.7643077584684
7602,-8.502296,-3.622135,3.97388,-0.169668,0.014203,0.008705,30.98,66.732547470204
7612,-8.496913,-3.60718,3.964907,-0.170279,0.01069,0.005651,30.98,66.7552143776293
7622,-8.491529,-3.599404,3.954139,-0.171042,0.007178,0.005192,30.99,66.7936941164586
7632,-8.487941,-3.597011,3.957729,-0.173638,0.003971,0.002596,30.99,66.76531416517
7642,-8.489137,-3.59402,3.953541,-0.175013,0.000458,0.003054,30.99,66.787149135262
7652,-8.470592,-3.573681,3.940979,-0.177456,-0.002902,0.005192,30.99,66.796837673485
7662,-8.470592,-3.569493,3.940979,-0.179289,-0.006414,0.007025,31.01,66.7931650128458
7672,-8.47119,-3.576073,3.931407,-0.182496,-0.010996,0.011454,31.01,66.8505868770581
7682,-8.473583,-3.565306,3.924827,-0.185245,-0.015577,0.016493,31.01,66.8808126725419
7692,-8.460423,-3.558127,3.915256,-0.187688,-0.019853,0.022602,31.01,66.8977309438261
7702,-8.455039,-3.56052,3.912265,-0.189826,-0.025809,0.02978,30.96,66.9044420511839
7712,-8.456235,-3.553342,3.896712,-0.191048,-0.03207,0.039248,30.96,66.9829021594771
7722,-8.455637,-3.556333,3.897908,-0.192881,-0.038637,0.047647,30.98,66.9779405185311
7732,-8.453244,-3.555136,3.88714,-0.194102,-0.04612,0.057421,30.98,67.0289430248617
7742,-8.446067,-3.549154,3.877569,-0.195477,-0.054214,0.068875,31.01,67.0596131081748
7752,-8.458628,-3.535396,3.875176,-0.195019,-0.073762,0.090255,31.01,67.0863608981123
7762,-8.456833,-3.55394,3.873382,-0.194408,-0.083078,0.10064,31,67.108218332516
7772,-8.456833,-3.542574,3.860819,-0.192423,-0.093157,0.110414,30.99,67.1650212144432
7782,-8.455039,-3.543172,3.864408,-0.191506,-0.104,0.12202,30.99,67.1427899065304
7792,-8.452645,-3.549154,3.860221,-0.190285,-0.114385,0.131489,30.98,67.1652512845296
7802,-8.452048,-3.547958,3.857828,-0.187994,-0.125533,0.13943,30.98,67.1756914157579
7812,-8.466404,-3.543172,3.87398,-0.184787,-0.135459,0.146302,30.99,67.115479644187
7822,-8.453244,-3.555136,3.868596,-0.182038,-0.14508,0.152105,30.99,67.1272288904908
7832,-8.467003,-3.543771,3.878766,-0.178984,-0.154243,0.15684,30.97,67.0918791044922
7842,-8.458628,-3.55394,3.896114,-0.175013,-0.162032,0.159589,30.97,66.9915448600961
7852,-8.452048,-3.558127,3.889533,-0.171348,-0.168904,0.161268,30.99,67.0163996127727
7862,-8.468798,-3.556931,3.907479,-0.167072,-0.175471,0.16081,30.99,66.9551354146035
7872,-8.466404,-3.551547,3.923033,-0.163101,-0.180816,0.159283,31,66.8633594161613
7882,-8.457432,-3.562913,3.93739,-0.157756,-0.184329,0.155465,31,66.7788959480772
7892,-8.46461,-3.567699,3.953541,-0.154243,-0.186008,0.151036,31,66.7129983208987
7902,-8.475977,-3.568297,3.962514,-0.149204,-0.187077,0.145539,31,66.6900608164509
7912,-8.459825,-3.576672,4.000201,-0.144011,-0.187383,0.13943,31.02,66.4658012732208
7922,-8.463414,-3.588037,4.021138,-0.139583,-0.184481,0.1237,31.02,66.3738260858075
7932,-8.451449,-3.579065,4.031308,-0.131641,-0.175929,0.115759,31.02,66.2873165655231
7942,-8.456833,-3.580261,4.046263,-0.127365,-0.168446,0.107512,30.96,66.2215954758755
7952,-8.452048,-3.585046,4.065406,-0.125686,-0.160658,0.099571,30.96,66.1157912178866
7962,-8.447262,-3.583252,4.079165,-0.123089,-0.15012,0.091019,30.98,66.0322107619875
7972,-8.447262,-3.579663,4.096512,-0.121409,-0.138361,0.082772,30.98,65.9385736286625
7982,-8.451449,-3.588037,4.12403,-0.12202,-0.125991,0.074678,30.99,65.8120749360679
7992,-8.437692,-3.581457,4.12403,-0.123242,-0.112094,0.067348,30.99,65.7764934789946
8002,-8.438289,-3.58385,4.147958,-0.12538,-0.096211,0.060476,31,65.6557126910423
8012,-8.443074,-3.580859,4.155136,-0.129198,-0.079871,0.053603,31,65.6260886056639
8022,-8.446664,-3.586243,4.159324,-0.133474,-0.062308,0.047495,30.97,65.6170866348005
8032,-8.433504,-3.59043,4.167699,-0.138972,-0.044135,0.042455,30.97,65.5490790353418
8042,-8.438289,-3.582654,4.172484,-0.145539,-0.02642,0.03711,31.02,65.527505534053
8052,-8.435897,-3.580859,4.171288,-0.153633,-0.007941,0.031765,31.02,65.5268560804551
8062,-8.437692,-3.575475,4.1671,-0.162185,0.009621,0.027184,31,65.5474902495228
8072,-8.458628,-3.57727,4.146163,-0.1715,0.026573,0.022602,31,65.7028868830406
8082,-8.449656,-3.574877,4.119842,-0.181732,0.043066,0.018479,31,65.8179988992839
8092,-8.452048,-3.579663,4.103691,-0.192423,0.057727,0.014508,31,65.9114571922786
8102,-8.460423,-3.568297,4.077968,-0.21197,0.081703,0.010079,30.99,66.0530323782902
8112,-8.469396,-3.571886,4.055834,-0.221591,0.089034,0.007483,31.04,66.190760516811
8122,-8.46461,-3.57727,4.035496,-0.230907,0.094531,0.005345,31.04,66.2916482368901
8132,-8.478967,-3.591029,4.012764,-0.239154,0.097433,0.004429,31,66.4529956177758
8142,-8.475977,-3.576073,3.975077,-0.24679,0.097128,0.004276,31,66.6309297164426
8152,-8.480165,-3.576672,3.946961,-0.252898,0.094073,0.004581,31.02,66.7878838038217
8166,-8.468199,-3.580859,3.92064,-0.256411,0.087812,0.005651,31.02,66.9053259391371
8172,-8.483154,-3.589832,3.888337,-0.258396,0.079565,0.008094,30.98,67.114418851269
8182,-8.487342,-3.58744,3.860819,-0.259465,0.06857,0.010996,30.98,67.2663370051656
8192,-8.501101,-3.589832,3.834498,-0.25916,0.054672,0.014355,30.97,67.4356732250926
8202,-8.491529,-3.588037,3.811767,-0.257174,0.039095,0.019853,30.97,67.5352652776256
8212,-8.483753,-3.598207,3.782454,-0.252287,0.022602,0.025656,31,67.6840495491552
8222,-8.490333,-3.6006,3.767499,-0.245873,0.00336,0.031612,31,67.7788889352275
8232,-8.491529,-3.59402,3.759723,-0.238543,-0.016341,0.038637,30.97,67.8171186946585
8242,-8.489736,-3.595814,3.745365,-0.230143,-0.036499,0.045357,30.97,67.8915972187307
8252,-8.493324,-3.598207,3.745964,-0.22037,-0.058643,0.052382,30.96,67.8975810812392
8262,-8.483753,-3.611966,3.738786,-0.209985,-0.080329,0.060323,30.96,67.9284440314836
8272,-8.477173,-3.601198,3.736392,-0.185703,-0.123547,0.074373,31.01,67.918988567948
8282,-8.492128,-3.608975,3.753741,-0.173791,-0.144164,0.081398,31.02,67.8628569703153
8292,-8.477771,-3.603591,3.761517,-0.161421,-0.163712,0.088728,31.02,67.788141686061
8302,-8.482555,-3.604787,3.771089,-0.149357,-0.181885,0.094531,30.96,67.7477495406132
8312,-8.475977,-3.602395,3.802794,-0.138972,-0.199295,0.100029,30.96,67.5637936217065
8322,-8.474779,-3.595216,3.822534,-0.128434,-0.214108,0.104611,30.96,67.4503418977701
8332,-8.471789,-3.592823,3.852444,-0.118355,-0.226478,0.107665,30.96,67.2835706090524
8342,-8.469396,-3.595216,3.876373,-0.10965,-0.236558,0.110872,31.04,67.1540910895087
8352,-8.46102,-3.591029,3.907479,-0.103389,-0.243888,0.11469,31.04,66.9688278358408
8362,-8.468199,-3.591627,3.940979,-0.09728,-0.248622,0.116675,30.99,66.807637703926
8372,-8.455039,-3.576073,3.960122,-0.09331,-0.250149,0.117897,30.99,66.6657596754536
8382,-8.446664,-3.594618,4.00379,-0.091935,-0.248469,0.117286,30.97,66.4353070135607
8392,-8.453244,-3.579663,4.03729,-0.090255,-0.243735,0.11805,30.97,66.2603585880724
8402,-8.449057,-3.579065,4.054638,-0.090713,-0.236252,0.118661,31.02,66.1602593161318
8412,-8.43111,-3.591627,4.086343,-0.091935,-0.226631,0.119271,31.02,65.9678773763842
8422,-8.42812,-3.578466,4.114459,-0.096211,-0.213803,0.118202,31,65.8029410220703
8432,-8.42453,-3.576073,4.142574,-0.100793,-0.198989,0.117744,31,65.6467683901737
8442,-8.408977,-3.595814,4.170092,-0.106443,-0.163406,0.116675,30.97,65.4884198104158
8452,-8.395817,-3.591029,4.168896,-0.119882,-0.143859,0.115148,30.98,65.4615225913223
8462,-8.394022,-3.586841,4.183252,-0.127365,-0.122326,0.114537,30.98,65.3791916985263
8472,-8.39462,-3.588037,4.198207,-0.136528,-0.100793,0.113163,31.03,65.3040932962371
8482,-8.385049,-3.591029,4.192824,-0.145386,-0.078954,0.111788,31.03,65.3138295393211
8492,-8.387442,-3.589832,4.195815,-0.154091,-0.05681,0.110414,30.97,65.302443132353
8502,-8.383254,-3.582056,4.185645,-0.162948,-0.034972,0.108123,30.97,65.3387306424477
8512,-8.382656,-3.584448,4.165905,-0.1715,-0.014813,0.105527,31.03,65.4422057621765
8522,-8.385648,-3.591627,4.160521,-0.179747,0.004887,0.104305,31.03,65.4834306115483
8532,-8.380861,-3.582654,4.137789,-0.186467,0.023213,0.10232,30.99,65.582979443965
8542,-8.387442,-3.585046,4.119842,-0.19395,0.039859,0.099876,30.99,65.6930742925768
8552,-8.394022,-3.577868,4.101896,-0.198684,0.055131,0.097891,30.98,65.7943657204887
8562,-8.396414,-3.586841,4.079762,-0.203418,0.068111,0.094531,30.98,65.9234697100256
8572,-8.412566,-3.586841,4.058227,-0.208,0.078343,0.092699,30.97,66.0707678141845
8582,-8.422735,-3.582056,4.029513,-0.209679,0.086132,0.090255,30.97,66.2385238465437
8592,-8.434101,-3.574877,4.010371,-0.211512,0.092852,0.087812,31.02,66.3565801634511
8602,-8.436494,-3.581457,3.956532,-0.211818,0.096059,0.083994,31.02,66.6506360127607
8612,-8.487941,-3.573681,3.936193,-0.211818,0.096364,0.077274,31.02,66.8580361244359
8622,-8.497512,-3.574279,3.932006,-0.208305,0.089644,0.073151,31.01,66.9003884612708
8632,-8.513064,-3.578466,3.897908,-0.205556,0.082925,0.069486,31.01,67.1154604293651
8642,-8.525029,-3.576672,3.885346,-0.203113,0.074526,0.065515,30.98,67.2045511308396
8652,-8.533404,-3.565306,3.876971,-0.200364,0.062766,0.059712,30.98,67.2560490583386
8662,-8.559725,-3.57069,3.864408,-0.195782,0.050244,0.055131,30.97,67.3802414463532
8672,-8.565108,-3.562913,3.856632,-0.191659,0.036041,0.04948,30.97,67.4255178085805
8682,-8.569895,-3.562315,3.842275,-0.187994,0.0197,0.043524,30.98,67.5103125524589
8692,-8.577072,-3.548556,3.835097,-0.184329,0.003665,0.037263,30.98,67.55111359591
8702,-8.584252,-3.549752,3.837489,-0.180969,-0.013592,0.03207,31.02,67.553949105688
8712,-8.585447,-3.550351,3.835097,-0.176998,-0.031001,0.025809,31.02,67.5694534166915
8722,-8.57827,-3.557529,3.8339,-0.174097,-0.049175,0.019242,31.01,67.5673106016594
8732,-8.580065,-3.546762,3.833302,-0.170737,-0.066126,0.013439,31.01,67.5651079155627
8742,-8.579466,-3.542574,3.847061,-0.169057,-0.082925,0.008399,31.03,67.4879025413764
8752,-8.572886,-3.549752,3.855436,-0.167224,-0.099724,0.003207,31.03,67.4364974735849
8762,-8.565108,-3.55394,3.851248,-0.166155,-0.114232,-0.000764,30.98,67.4463447336562
8772,-8.546564,-3.542574,3.867399,-0.165086,-0.127518,-0.003512,30.98,67.3140356279209
8782,-8.525029,-3.562315,3.888337,-0.164781,-0.139735,-0.006261,31,67.1765113328648
8792,-8.512466,-3.553342,3.906881,-0.164781,-0.15852,-0.00672,31,67.0453618953755
8802,-8.489736,-3.556931,3.912863,-0.164475,-0.166003,-0.006109,31.01,66.9700512835748
8812,-8.471789,-3.549752,3.918247,-0.164934,-0.171653,-0.003818,31.03,66.8982416696592
8822,-8.445468,-3.561118,3.927818,-0.165239,-0.17654,-0.000153,31.03,66.8028838366377
8832,-8.441879,-3.564708,3.929613,-0.164934,-0.179136,0.006261,31.01,66.7890773766785
8842,-8.427522,-3.56411,3.951746,-0.166155,-0.180816,0.01405,31.01,66.6416545335354
8852,-8.408379,-3.570091,3.975077,-0.165544,-0.180969,0.021228,31.02,66.4835987079878
8862,-8.402397,-3.579065,3.973282,-0.166308,-0.1799,0.031307,31.02,66.4884927560583
8872,-8.386245,-3.574279,3.98405,-0.166155,-0.176693,0.041386,31.04,66.3931774694774
8882,-8.372486,-3.565904,3.981059,-0.165544,-0.173791,0.052229,31.04,66.3721643052519
8892,-8.376674,-3.582654,3.993621,-0.164781,-0.168446,0.06353,30.98,66.3299457931157
8902,-8.35813,-3.592823,4.006782,-0.164628,-0.163254,0.075289,30.98,66.2303074631383
8912,-8.359326,-3.596412,4.008576,-0.163865,-0.156382,0.087506,30.98,66.2266919757518
8922,-8.350353,-3.586841,4.021138,-0.162948,-0.149204,0.098655,30.98,66.1324690695343
8932,-8.356933,-3.600002,4.03071,-0.160658,-0.140194,0.10965,30.97,66.1082695047514
8942,-8.356335,-3.604189,4.030112,-0.159894,-0.131794,0.119882,30.97,66.1140008565119
8952,-8.369495,-3.613162,4.045067,-0.158367,-0.121715,0.128587,31.02,66.0718216059656
8962,-8.391031,-3.611966,4.050451,-0.157145,-0.10232,0.142026,31.02,66.0884944825872
8972,-8.379665,-3.61376,4.057629,-0.155007,-0.093004,0.144928,30.96,66.0282268267663
8982,-8.385049,-3.624528,4.055236,-0.153785,-0.082161,0.148746,31.02,66.0622160474121
8992,-8.394022,-3.616751,4.059424,-0.152411,-0.072235,0.149509,31.02,66.0522740904342
9002,-8.400601,-3.63051,4.059424,-0.151647,-0.062766,0.149204,31,66.0789698541218
9012,-8.414959,-3.628117,4.048656,-0.149967,-0.052993,0.147219,31,66.1636336265735
9022,-8.420342,-3.629912,4.04746,-0.148746,-0.043066,0.143706,30.97,66.1829485445435
9032,-8.440084,-3.628117,4.049254,-0.147219,-0.035277,0.138819,30.97,66.2137357338562
9042,-8.438888,-3.626323,4.052245,-0.146455,-0.026573,0.133474,31.02,66.1939555782004
9052,-8.450851,-3.628716,4.049852,-0.145233,-0.01909,0.127213,31.02,66.2339084952241
9062,-8.455637,-3.626921,4.039085,-0.143553,-0.012523,0.120799,31,66.2985764229386
9072,-8.466404,-3.638287,4.030112,-0.143248,-0.006872,0.113316,31,66.378304482357
9082,-8.474181,-3.62393,4.033103,-0.142332,-0.001374,0.106291,31.01,66.3661001538272
9092,-8.476574,-3.625725,4.024727,-0.140957,0.002291,0.098502,31.01,66.4164406649817
9102,-8.477173,-3.62393,4.015755,-0.140194,0.00504,0.08995,31.01,66.4629375869439
9112,-8.482555,-3.625725,4.010371,-0.140499,0.007636,0.08323,31.01,66.5039150648651
9122,-8.500502,-3.622734,4.001398,-0.14111,0.009163,0.076511,31.04,66.585520839067
9132,-8.501101,-3.621537,4.007978,-0.142026,0.009316,0.062308,31.04,66.5513575259946
9142,-8.501101,-3.605984,3.994219,-0.144317,0.009163,0.056047,31.01,66.6094531255291
9152,-8.507681,-3.603591,3.988835,-0.14615,0.008247,0.051618,31.02,66.6491691677136
9162,-8.505288,-3.59402,3.991827,-0.148135,0.007178,0.046578,31.02,66.6201290547278
9172,-8.511868,-3.589832,3.991228,-0.150884,0.00504,0.041692,31,66.6332756197501
9182,-8.513663,-3.591627,3.991228,-0.154702,0.002902,0.037415,31,66.6385845565428
9192,-8.505288,-3.574279,3.97747,-0.158367,0.000611,0.033445,31.02,66.6779349939327
9202,-8.512466,-3.573082,3.978666,-0.16249,-0.001222,0.030543,31.02,66.6855624858279
9212,-8.507681,-3.562315,3.972086,-0.166308,-0.003971,0.027642,31,66.7006741204048
9222,-8.516056,-3.566502,3.9673,-0.170584,-0.007025,0.025351,31,66.7468055006673
9232,-8.507083,-3.540779,3.958327,-0.174249,-0.010079,0.024587,31.02,66.7528757242431
9242,-8.507083,-3.550949,3.958327,-0.178525,-0.014203,0.022297,31.02,66.761695594445
9252,-8.513663,-3.534199,3.95055,-0.18326,-0.017715,0.020311,31.02,66.8017046559406
9262,-8.508279,-3.552743,3.940979,-0.18723,-0.022297,0.019853,31.02,66.8568274950305
9272,-8.505288,-3.543771,3.930212,-0.190895,-0.027489,0.020006,31,66.8994857500136
9282,-8.502296,-3.535994,3.923631,-0.193492,-0.033139,0.020464,31,66.9212203793187
9292,-8.503493,-3.531806,3.918247,-0.195935,-0.039248,0.022144,30.99,66.9484537089901
9302,-8.489736,-3.536592,3.909274,-0.198226,-0.046578,0.02306,30.99,66.9714027856506
9312,-8.480165,-3.524628,3.899105,-0.200058,-0.062156,0.029322,30.99,66.9949705262965
9322,-8.486146,-3.52403,3.897908,-0.199906,-0.070402,0.032834,31,67.0131713416767
9332,-8.477173,-3.52702,3.89073,-0.198378,-0.078954,0.03711,31,67.0351225724652
9342,-8.471789,-3.531208,3.879962,-0.196851,-0.087048,0.042761,31,67.0845919044814
9352,-8.473583,-3.533601,3.884748,-0.194255,-0.0956,0.048258,31,67.0650218797677
9362,-8.453843,-3.53719,3.872783,-0.191201,-0.104916,0.053451,30.96,67.0907083638665
9372,-8.454441,-3.532404,3.871587,-0.18723,-0.112399,0.05849,30.96,67.0941514282805
9382,-8.449057,-3.538387,3.874578,-0.183412,-0.120646,0.064141,30.99,67.0723195683318
9392,-8.437093,-3.543172,3.885944,-0.178831,-0.127976,0.071166,30.99,66.9913748217859
9402,-8.4347,-3.536592,3.882355,-0.172875,-0.135001,0.076969,31,66.9997121018054
9412,-8.422137,-3.553342,3.89073,-0.167072,-0.141415,0.081856,31,66.9437886551302
9422,-8.413763,-3.556333,3.888935,-0.160963,-0.147524,0.087659,30.98,66.9385144298413
9432,-8.421539,-3.565904,3.905087,-0.154243,-0.151953,0.092393,30.98,66.8774680908956
9442,-8.416155,-3.562913,3.916452,-0.147982,-0.15516,0.096364,30.98,66.8033814852265
9452,-8.415558,-3.571288,3.923631,-0.142332,-0.158367,0.100335,30.98,66.7715452710977
9462,-8.41137,-3.571886,3.9338,-0.136681,-0.16081,0.103694,30.96,66.7095049089496
9472,-8.408977,-3.573082,3.955336,-0.131336,-0.161116,0.105222,30.96,66.5917193311928
9482,-8.408379,-3.591029,3.982255,-0.126449,-0.158214,0.107665,31.03,66.4645897257837
9492,-8.414959,-3.591029,4.00379,-0.118202,-0.155618,0.10797,30.99,66.3651822174316
9502,-8.427522,-3.597609,4.013362,-0.115606,-0.151342,0.108887,30.99,66.3474197694367
9512,-8.422735,-3.605386,4.037888,-0.113316,-0.145691,0.108734,31,66.2157711141993
9522,-8.432307,-3.608377,4.048058,-0.112246,-0.138819,0.107512,31,66.185580486784
9532,-8.415558,-3.609573,4.06062,-0.111177,-0.131489,0.104458,31,66.0853758360175
9542,-8.427522,-3.614359,4.074379,-0.112857,-0.122784,0.10232,31,66.043374216222
9552,-8.4347,-3.613162,4.086343,-0.11469,-0.112094,0.09896,30.98,65.9951982314734
9562,-8.437093,-3.606582,4.109673,-0.11637,-0.100029,0.095753,30.98,65.8728420920879
9572,-8.439486,-3.618546,4.113262,-0.119882,-0.08827,0.092088,31,65.8702708755892
9582,-8.447861,-3.61735,4.130012,-0.123242,-0.074831,0.087354,31,65.8001408531803
9592,-8.458628,-3.6341,4.132405,-0.128282,-0.061392,0.083689,31.02,65.826145749564
9602,-8.450253,-3.608377,4.133003,-0.134238,-0.046273,0.078649,31.02,65.7815292593723
9612,-8.453244,-3.618546,4.142574,-0.140041,-0.031307,0.073609,31.02,65.7476663555178
9622,-8.467003,-3.620341,4.14078,-0.146608,-0.016799,0.068264,31.02,65.7880800641974
9632,-8.460423,-3.625126,4.121637,-0.153174,-0.002138,0.062766,30.94,65.87756248035
9642,-8.466404,-3.616751,4.121637,-0.159894,0.011301,0.05681,30.94,65.8826802237
9652,-8.47119,-3.613162,4.102495,-0.166766,0.023976,0.047037,31.02,65.9889178411372
9662,-8.479566,-3.616153,4.080361,-0.180358,0.045968,0.041844,31,66.1243620995707
9672,-8.478967,-3.606582,4.063612,-0.186772,0.054978,0.037721,31,66.2015955624315
9682,-8.484351,-3.605386,4.049852,-0.192728,0.061697,0.034208,31,66.2835393262571
9692,-8.489736,-3.596412,4.030112,-0.198531,0.065515,0.030238,31,66.3897733013598
9702,-8.487342,-3.597011,4.015755,-0.203113,0.068264,0.027031,30.97,66.4602385466389
9712,-8.495118,-3.605386,3.988237,-0.206625,0.069333,0.025504,30.97,66.6277536637765
9722,-8.492128,-3.592823,3.951149,-0.209832,0.066737,0.023671,30.98,66.8048554269933
9732,-8.485548,-3.598207,3.937988,-0.211054,0.062461,0.022297,30.98,66.865094629453
9742,-8.497512,-3.585645,3.904488,-0.211818,0.056352,0.023518,31.04,67.055094362144
9752,-8.487941,-3.588037,3.886542,-0.211359,0.047037,0.024893,31.04,67.1321575217524
9762,-8.49452,-3.59402,3.877569,-0.210901,0.036957,0.025809,30.98,67.1981726184918
9772,-8.496315,-3.586243,3.857828,-0.208305,0.024435,0.027184,30.98,67.2994250881854
9782,-8.499306,-3.579663,3.834498,-0.205251,0.010232,0.030238,31.03,67.423334263949
9792,-8.493923,-3.580859,3.824329,-0.201586,-0.004734,0.032529,31.03,67.4673323998326
9802,-8.501101,-3.586243,3.815356,-0.196699,-0.020769,0.036346,31.05,67.5340390005541
9812,-8.507083,-3.581457,3.800999,-0.191506,-0.037721,0.040012,31.05,67.6182051878283
9822,-8.490931,-3.57727,3.792624,-0.18555,-0.055589,0.047037,31,67.6265843531261
9832,-8.489736,-3.575475,3.802794,-0.173638,-0.091324,0.050702,31.02,67.5685821487338
9842,-8.493923,-3.56052,3.801597,-0.167377,-0.107665,0.054672,31.02,67.570703311859
9852,-8.485548,-3.565306,3.808775,-0.161727,-0.123089,0.057421,31.04,67.5196555770826
9862,-8.490333,-3.562913,3.818945,-0.155312,-0.138361,0.061087,31.04,67.4733018549897
9872,-8.477771,-3.565904,3.841079,-0.148746,-0.1518,0.065821,31.01,67.3328174349053
9882,-8.456833,-3.55394,3.856632,-0.143248,-0.163865,0.069791,31.01,67.1970657596379
9892,-8.453843,-3.555735,3.862016,-0.138666,-0.174555,0.072998,31,67.1638909449171
9902,-8.458031,-3.56052,3.879962,-0.133627,-0.182038,0.076664,31,67.0815363607163
9912,-8.44128,-3.552145,3.92064,-0.128587,-0.188757,0.081092,30.98,66.8241947329631
9922,-8.435897,-3.557529,3.930212,-0.125533,-0.193033,0.083841,30.98,66.7670943499057
9932,-8.429317,-3.562315,3.944568,-0.121715,-0.194408,0.087965,30.97,66.6817186543149
9942,-8.413763,-3.552145,3.976871,-0.118508,-0.194255,0.091783,30.97,66.469457462747
9952,-8.410771,-3.550351,3.990032,-0.117133,-0.191048,0.095448,31.04,66.3921353381847
9962,-8.409575,-3.549154,4.006782,-0.115454,-0.185703,0.09896,31.04,66.3003116173662
9972,-8.393424,-3.546762,4.041477,-0.113774,-0.179289,0.103847,31.02,66.0811806078901
9982,-8.399406,-3.56052,4.049852,-0.113468,-0.169821,0.10797,31.02,66.0625357255343
9992,-8.401799,-3.546163,4.079762,-0.113316,-0.15913,0.11133,31.01,65.8978684618292
10002,-8.400003,-3.563511,4.093522,-0.115454,-0.132863,0.114843,31.01,65.837855223922
10012,-8.401799,-3.555136,4.105485,-0.117592,-0.117897,0.117744,30.97,65.7715611313166
10022,-8.4012,-3.563511,4.121637,-0.120188,-0.102473,0.118966,30.98,65.6936571787454
10032,-8.410173,-3.562913,4.128217,-0.123242,-0.08659,0.118813,30.98,65.6782674257846
10042,-8.41436,-3.56052,4.132405,-0.127365,-0.070555,0.117897,31.05,65.6633398370826
10052,-8.42812,-3.561717,4.134798,-0.131794,-0.05452,0.117592,31.05,65.6817967893449
10062,-8.42812,-3.570091,4.133601,-0.136376,-0.038179,0.114995,30.96,65.6956854613774
10072,-8.427522,-3.573681,4.114459,-0.142026,-0.023366,0.111788,30.96,65.797279329307
10082,-8.450851,-3.576672,4.11745,-0.148135,-0.010385,0.107054,30.97,65.8346297612771
10092,-8.454441,-3.585046,4.104289,-0.154396,0.001833,0.101404,30.97,65.9183531913792
10102,-8.465208,-3.582056,4.088736,-0.159436,0.013592,0.097738,30.98,66.0195515184493
10112,-8.468798,-3.585645,4.080959,-0.164323,0.022755,0.09163,30.98,66.0709053216113
10122,-8.471789,-3.58744,4.053442,-0.170431,0.028863,0.083689,31,66.2222338965499
10132,-8.483753,-3.58385,4.048656,-0.175166,0.035125,0.078343,31,66.2692688383362
10142,-8.480165,-3.592823,4.031906,-0.179747,0.038943,0.069944,30.96,66.3570945243523
10152,-8.481958,-3.593421,4.004389,-0.183565,0.041386,0.062614,30.96,66.5051927398358
10162,-8.493923,-3.603591,3.965506,-0.186314,0.040164,0.056352,31.02,66.7427201304
10172,-8.496315,-3.592823,3.948756,-0.18891,0.034972,0.043524,31.02,66.8260873482703
10182,-8.498111,-3.601198,3.94397,-0.191354,0.02978,0.038485,31,66.8622530964107
10192,-8.491529,-3.602395,3.931407,-0.191354,0.023671,0.033292,31.04,66.9157088983268
10202,-8.495118,-3.591029,3.907479,-0.189826,0.016341,0.029016,31.04,67.0390923736166
10212,-8.495118,-3.595814,3.894917,-0.188452,0.008094,0.026267,31,67.1094374865097
10222,-8.487941,-3.588037,3.890131,-0.186619,-0.001069,0.023518,31,67.1132152285297
10232,-8.498708,-3.595216,3.881158,-0.184329,-0.010996,0.02138,31,67.1888254628412
10242,-8.501101,-3.591029,3.872783,-0.181122,-0.021533,0.0197,31,67.2342954574701
10252,-8.496913,-3.59402,3.879962,-0.178525,-0.031612,0.019395,30.99,67.1904334570581
10262,-8.507083,-3.588636,3.879364,-0.175471,-0.042608,0.018784,30.99,67.2097187545449
10272,-8.496913,-3.586841,3.875774,-0.171348,-0.053298,0.020464,30.98,67.2063390500405
10282,-8.502296,-3.586243,3.883551,-0.168293,-0.064904,0.020464,30.98,67.175788070643
10292,-8.507083,-3.586243,3.885346,-0.165697,-0.074678,0.020922,30.99,67.1761115659745
10302,-8.504092,-3.583252,3.891926,-0.162643,-0.08491,0.021838,30.99,67.13272184729
10312,-8.508877,-3.580261,3.906881,-0.160963,-0.094531,0.022602,31.03,67.0611774128487
10322,-8.496913,-3.589832,3.911069,-0.158978,-0.101862,0.023976,31.03,67.0228379155086
10332,-8.500502,-3.579663,3.934997,-0.157451,-0.109192,0.025504,31,66.8955284619865
10342,-8.489137,-3.57069,3.934997,-0.157451,-0.115759,0.028253,31,66.864197975118
10352,-8.477173,-3.5671,3.947559,-0.156534,-0.124769,0.028863,30.96,66.7701312875859
10362,-8.487941,-3.579663,3.961318,-0.156382,-0.127518,0.029169,30.97,66.7312435433509
10372,-8.481958,-3.574279,3.97388,-0.15684,-0.129503,0.030849,30.97,66.6481223464323
10382,-8.479566,-3.569493,3.976871,-0.156534,-0.129962,0.033445,31,66.6232206577429
10392,-8.465208,-3.574279,3.982853,-0.156229,-0.129198,0.035583,31,66.565994577826
10402,-8.455039,-3.572484,3.996014,-0.156382,-0.127824,0.037874,30.98,66.4739710006049
10412,-8.446067,-3.574279,4.002594,-0.157298,-0.125686,0.040317,30.98,66.4221380313805
10422,-8.444869,-3.5671,4.006782,-0.158214,-0.12202,0.043066,30.95,66.3912244479622
10432,-8.438289,-3.566502,4.003192,-0.157756,-0.118202,0.0478,30.95,66.3956308992813
10442,-8.423933,-3.580859,4.002594,-0.157603,-0.114232,0.050702,30.99,66.3812866801444
10452,-8.425727,-3.576672,4.009174,-0.156687,-0.109039,0.055894,30.99,66.3467523626034
10462,-8.413763,-3.572484,4.010969,-0.155923,-0.103084,0.061087,31.05,66.3081857075933
10472,-8.404191,-3.585046,4.01396,-0.154854,-0.09728,0.066126,31.05,66.2834910525321
10482,-8.404191,-3.576672,4.012166,-0.153174,-0.091019,0.071929,30.97,66.2853418406219
10492,-8.39462,-3.579065,4.015156,-0.1518,-0.084452,0.077885,30.97,66.2514256119992
10502,-8.38146,-3.58744,3.997808,-0.150273,-0.07926,0.083994,30.99,66.322392240756
10512,-8.38804,-3.589832,4.004987,-0.147829,-0.073151,0.089034,30.99,66.3007292301055
10522,-8.383853,-3.594618,4.015755,-0.142942,-0.061545,0.100029,30.99,66.2395092054069
10532,-8.380263,-3.595216,4.0008,-0.139888,-0.055589,0.105069,30.98,66.3111608977784
10542,-8.387442,-3.582654,3.993023,-0.136528,-0.05116,0.109498,30.98,66.3559733220032
10552,-8.376674,-3.59402,3.992425,-0.134085,-0.045968,0.113621,30.98,66.3465980820658
10562,-8.383254,-3.591627,3.983452,-0.130878,-0.041692,0.116981,30.98,66.4057070796062
10572,-8.385049,-3.597011,3.988835,-0.127365,-0.037874,0.12034,31.02,66.3860085529625
10582,-8.386245,-3.600002,3.985844,-0.124464,-0.034056,0.123395,31.02,66.4070271026702
10592,-8.402397,-3.594618,3.985246,-0.122631,-0.030849,0.125075,31.01,66.4394456445396
10602,-8.407183,-3.594618,3.979264,-0.120951,-0.028253,0.125686,31.01,66.4810581587856
10612,-8.419147,-3.610171,3.990032,-0.117592,-0.026267,0.125533,30.98,66.46361646031
10622,-8.425129,-3.591029,3.986442,-0.115912,-0.023824,0.126602,30.98,66.477859256919
10632,-8.435897,-3.581457,3.988835,-0.114385,-0.022144,0.125533,31.04,66.4793786566377
10642,-8.460423,-3.598207,3.990032,-0.113774,-0.020464,0.122937,31.04,66.5395480358644
10652,-8.458031,-3.599404,3.991228,-0.112857,-0.0197,0.120951,31.01,66.5293316745104
10662,-8.482555,-3.592823,3.991827,-0.113468,-0.018479,0.117744,31.01,66.5716592981754
10672,-8.489137,-3.59402,3.999603,-0.113621,-0.017715,0.113316,30.96,66.545776329949
10682,-8.505288,-3.586243,3.998407,-0.11469,-0.01741,0.108429,30.96,66.5788919244627
10692,-8.522635,-3.59043,4.006183,-0.116981,-0.017562,0.097128,30.99,66.5781242344655
10702,-8.525029,-3.581457,3.998407,-0.123089,-0.017562,0.089034,30.98,66.6158275683907
10712,-8.532208,-3.580859,4.005585,-0.125991,-0.018784,0.081551,30.98,66.5927954004924
10722,-8.549556,-3.574877,4.010371,-0.131183,-0.020006,0.072998,30.97,66.598731733515
10732,-8.553144,-3.585046,4.000201,-0.135001,-0.020922,0.064904,30.97,66.6679836429702
10742,-8.55135,-3.565306,4.007978,-0.140346,-0.023518,0.055283,30.99,66.6066158205448
10752,-8.557931,-3.572484,3.997808,-0.145691,-0.025198,0.046578,30.99,66.6794808306372
10762,-8.560921,-3.564708,3.993621,-0.152105,-0.0281,0.036805,31.01,66.7007770543595
10772,-8.554939,-3.57069,3.99721,-0.157603,-0.030391,0.027642,31.01,66.6748412252499
10782,-8.550154,-3.565904,3.98405,-0.162796,-0.033139,0.0197,30.99,66.7294208524603
10792,-8.547761,-3.569493,3.979862,-0.168599,-0.036041,0.011301,30.99,66.7494302861449
10802,-8.548957,-3.565904,3.982255,-0.173638,-0.040317,0.003971,30.96,66.7363111395137
10812,-8.527422,-3.552145,3.978666,-0.178373,-0.043982,-0.002902,30.96,66.6984611024999
10822,-8.52144,-3.54736,3.962514,-0.182801,-0.047647,-0.007941,31.01,66.7664664311656
10832,-8.514261,-3.558127,3.957729,-0.186161,-0.051924,-0.012828,31.01,66.7859721308072
10842,-8.514261,-3.557529,3.957131,-0.188452,-0.056505,-0.015577,31,66.7885897658599
10852,-8.496913,-3.559324,3.938586,-0.190743,-0.061545,-0.018326,31,66.851549996725
10862,-8.469995,-3.557529,3.932006,-0.191812,-0.066279,-0.020464,30.98,66.8287249004448
10872,-8.478967,-3.553342,3.929613,-0.193186,-0.075595,-0.017257,31.02,66.8563353583805
10882,-8.46461,-3.553342,3.932006,-0.191354,-0.081092,-0.016035,31.02,66.8138571408362
10892,-8.469396,-3.557529,3.918845,-0.189368,-0.08659,-0.012065,30.99,66.8968912538868
10902,-8.442476,-3.558127,3.915256,-0.186008,-0.090713,-0.006261,30.99,66.8604074368548
10912,-8.433504,-3.561717,3.918247,-0.182649,-0.095142,-0.001527,30.99,66.8290469530262
10922,-8.411968,-3.5671,3.909274,-0.178525,-0.100487,0.00336,30.99,66.8363733817133
10932,-8.413164,-3.561717,3.91406,-0.174097,-0.104763,0.010079,30.99,66.8087430081346
10942,-8.402995,-3.562913,3.907479,-0.167683,-0.107818,0.018173,30.99,66.8234338710069
10952,-8.413164,-3.564708,3.909872,-0.161268,-0.110872,0.025962,31,66.8335840069587
10962,-8.397013,-3.56411,3.916452,-0.155923,-0.113926,0.032834,31,66.7643782723691
10972,-8.398808,-3.580859,3.930212,-0.149509,-0.116064,0.041844,30.96,66.7101638866053
10982,-8.385648,-3.574279,3.935595,-0.143248,-0.117744,0.048717,30.96,66.648123858441
10992,-8.395219,-3.575475,3.934997,-0.136834,-0.117744,0.0562,30.97,66.6724841816194
11002,-8.382057,-3.578466,3.946362,-0.131794,-0.117286,0.063225,30.97,66.5873006904261
11012,-8.38804,-3.574877,3.969095,-0.126144,-0.116523,0.07086,31.01,66.4764819821929
11022,-8.382057,-3.584448,3.970889,-0.121257,-0.114537,0.076053,31.01,66.4629914121127
11032,-8.377871,-3.594618,3.989433,-0.117286,-0.111483,0.08262,31,66.365463593914
11042,-8.385648,-3.585645,3.994817,-0.108581,-0.102778,0.093921,30.98,66.3454218076137
11052,-8.380263,-3.592823,4.006782,-0.105527,-0.097128,0.09896,30.98,66.2774667856905
11062,-8.382656,-3.597609,4.01396,-0.103084,-0.091783,0.102931,30.99,66.2491371910114
11072,-8.383254,-3.605386,4.027121,-0.101098,-0.085063,0.107512,30.99,66.188315176361
11082,-8.401799,-3.6006,4.030112,-0.099724,-0.077274,0.110719,30.97,66.2077085160444
11092,-8.392226,-3.601796,4.04387,-0.099266,-0.06918,0.114079,30.97,66.116221667004
11102,-8.414959,-3.61077,4.063612,-0.100182,-0.060781,0.115301,31,66.0695508117007
11112,-8.410173,-3.61077,4.059424,-0.10064,-0.05116,0.117133,31,66.0812478306215
11122,-8.409575,-3.614359,4.073183,-0.101862,-0.041386,0.117897,30.96,66.0113299894371
11132,-8.417352,-3.620341,4.064209,-0.103694,-0.031612,0.117133,30.96,66.0802886029891
11142,-8.439486,-3.616153,4.068995,-0.105832,-0.02138,0.117897,30.96,66.0985553202059
11152,-8.444869,-3.621537,4.076173,-0.108734,-0.012065,0.11637,30.96,66.0774750733657
11162,-8.461619,-3.620939,4.070789,-0.112094,-0.002749,0.113163,31,66.140495464038
11172,-8.458628,-3.61077,4.070789,-0.115606,0.00672,0.110872,31,66.1249487919773
11182,-8.472386,-3.61735,4.072584,-0.119424,0.015119,0.107207,30.97,66.1506919935867
11192,-8.487941,-3.610171,4.067799,-0.122937,0.022602,0.102931,30.97,66.2019828707886
11202,-8.498708,-3.609573,4.049254,-0.127671,0.029169,0.097586,31,66.3205955885358
11212,-8.514261,-3.611368,4.027121,-0.131489,0.038943,0.085674,31,66.4699867999531
11222,-8.520842,-3.611966,4.016353,-0.140346,0.040623,0.079565,31.01,66.540322013456
11232,-8.530412,-3.602993,4.010969,-0.144317,0.041844,0.072388,31,66.5803813637296
11242,-8.526226,-3.608377,4.00379,-0.148135,0.041539,0.066432,31,66.6138288546288
11252,-8.539386,-3.592823,3.991827,-0.1518,0.039248,0.059559,31,66.6898950639355
11262,-8.541181,-3.59043,3.964309,-0.156076,0.035736,0.052687,31,66.8352124841541
11272,-8.53819,-3.598207,3.951149,-0.158367,0.031001,0.045968,30.96,66.9046165576921
11282,-8.543573,-3.589832,3.939782,-0.16081,0.024282,0.039859,30.96,66.9679333316051
11292,-8.542377,-3.59043,3.919443,-0.164017,0.016035,0.033903,30.97,67.072586317291
11302,-8.542377,-3.580859,3.898506,-0.164475,0.006872,0.028863,30.97,67.1742976107325
11312,-8.544769,-3.583252,3.89731,-0.165086,-0.003207,0.024587,31.03,67.1875046346201
11322,-8.541181,-3.571288,3.882355,-0.16585,-0.014508,0.020464,31.03,67.248633137769
11332,-8.529815,-3.573082,3.879364,-0.16585,-0.026725,0.01741,31.03,67.2427559695501
11342,-8.535797,-3.574279,3.875774,-0.164781,-0.039401,0.013897,31.03,67.2748724647307
11352,-8.533404,-3.561717,3.856632,-0.163865,-0.051313,0.012065,30.96,67.3602610010721
11362,-8.523234,-3.550949,3.858427,-0.16249,-0.06521,0.01069,30.96,67.3209540713155
11372,-8.527422,-3.555735,3.857828,-0.160963,-0.078038,0.009927,31.01,67.3367090293801
11382,-8.498111,-3.558127,3.851846,-0.15852,-0.090255,0.01069,31.01,67.3106284160087
11392,-8.486743,-3.549752,3.864408,-0.153938,-0.11469,0.011912,31.01,67.2136874194811
11402,-8.484351,-3.543172,3.869792,-0.151342,-0.126296,0.013439,30.98,67.1746238350023
11412,-8.472985,-3.54736,3.875176,-0.148593,-0.137597,0.014966,30.98,67.1263283493061
11422,-8.468798,-3.545565,3.884149,-0.145997,-0.14615,0.018021,31,67.0686347279548
11432,-8.452645,-3.541378,3.891926,-0.14279,-0.154549,0.021075,31,66.9903866932344
11442,-8.44128,-3.547958,3.912863,-0.140957,-0.16081,0.023671,30.99,66.8616565935919
11452,-8.44128,-3.540779,3.92722,-0.138972,-0.166003,0.025962,30.99,66.7794334202241
11462,-8.426923,-3.53061,3.948158,-0.136223,-0.168446,0.030085,31,66.6296925462518
11472,-8.419147,-3.549154,3.954139,-0.134696,-0.169973,0.033903,31,66.5981314882902
11482,-8.41137,-3.550949,3.968496,-0.132252,-0.170126,0.038637,30.99,66.5075154805366
11492,-8.405388,-3.533601,3.981657,-0.130267,-0.168446,0.043066,30.99,66.409890936272
11502,-8.391031,-3.540181,3.999005,-0.128434,-0.164017,0.047189,30.97,66.2936969233521
11512,-8.39462,-3.543771,4.028317,-0.12706,-0.158672,0.051924,30.97,66.1502200748823
11522,-8.383254,-3.553342,4.036094,-0.126449,-0.150578,0.05681,31,66.0936250111665
11532,-8.370093,-3.562913,4.04746,-0.124158,-0.141415,0.062156,31,66.0143077667848
11542,-8.373085,-3.5671,4.068995,-0.122784,-0.13042,0.067348,30.99,65.911494141103
11552,-8.374281,-3.56411,4.088736,-0.121409,-0.118966,0.071471,30.99,65.8078363976264
11562,-8.365308,-3.558127,4.101298,-0.119271,-0.091477,0.081703,31,65.7170503077212
11572,-8.377273,-3.5671,4.099504,-0.118508,-0.076664,0.085827,30.98,65.7607036522026
11582,-8.370691,-3.571288,4.116253,-0.118966,-0.061392,0.08827,30.98,65.6627043702738
11592,-8.382057,-3.57727,4.108477,-0.118966,-0.045968,0.09163,30.98,65.7335489394718
11602,-8.389835,-3.579065,4.109075,-0.118813,-0.030238,0.09331,30.98,65.7489235883116
11612,-8.397612,-3.581457,4.104887,-0.120035,-0.01573,0.094837,31.01,65.7898044248918
11622,-8.399406,-3.598207,4.095914,-0.120493,-0.001069,0.095753,31.01,65.8559481159669
11632,-8.416754,-3.595814,4.093522,-0.121409,0.012828,0.094837,30.98,65.9035025578776
11642,-8.423933,-3.592225,4.077968,-0.122326,0.024893,0.093004,30.98,65.9967729225789
11652,-8.435298,-3.604787,4.076771,-0.123853,0.036499,0.091783,31.04,66.0387339989504
11662,-8.443673,-3.595814,4.074977,-0.12538,0.046731,0.089339,31.04,66.0577801013013
11672,-8.455637,-3.6006,4.053442,-0.126907,0.054214,0.085368,31,66.1998713252224
11682,-8.474181,-3.605386,4.034897,-0.12874,0.06017,0.081092,31,66.3401129898571
11692,-8.480165,-3.601796,4.021737,-0.130572,0.064446,0.075747,30.99,66.4181965909761
11702,-8.472386,-3.610171,4.000201,-0.132863,0.066432,0.07086,30.99,66.5219689443789
11712,-8.490931,-3.614359,3.989433,-0.133474,0.067348,0.06689,30.98,66.6207205672519
11722,-8.492725,-3.61077,3.957131,-0.135612,0.065821,0.060934,30.98,66.7904644783929
11732,-8.502895,-3.619144,3.928416,-0.137139,0.05681,0.050702,31,66.9694663897112
11742,-8.518449,-3.61735,3.921836,-0.137903,0.049633,0.046731,30.98,67.0343410991742
11752,-8.503493,-3.623332,3.908078,-0.139583,0.041233,0.042455,30.98,67.0812217880316
11762,-8.520243,-3.612564,3.887738,-0.140041,0.031765,0.039554,30.98,67.2130586279232
11772,-8.510075,-3.611966,3.886542,-0.138972,0.02138,0.038943,30.98,67.1981288331261
11782,-8.523833,-3.609573,3.888935,-0.138819,0.009163,0.036194,31.01,67.2114875881485
11792,-8.513663,-3.616153,3.871587,-0.138514,-0.002291,0.035583,31.01,67.2878397624141
11802,-8.525029,-3.619742,3.878766,-0.138819,-0.015882,0.035583,31,67.2761914409946
11812,-8.52443,-3.610171,3.870391,-0.137597,-0.029169,0.035583,31,67.3108438906011
11822,-8.520842,-3.611368,3.872783,-0.136834,-0.042455,0.036499,30.99,67.291990586577
11832,-8.507681,-3.61077,3.868596,-0.136834,-0.055589,0.036499,30.99,67.2868151716028
11842,-8.52144,-3.599404,3.867998,-0.136223,-0.067806,0.036805,30.98,67.3081452165672
11852,-8.522635,-3.600002,3.887738,-0.135459,-0.080481,0.038332,30.98,67.2071036517909
11862,-8.517851,-3.592225,3.892524,-0.135765,-0.09163,0.038943,30.99,67.165454468532
11872,-8.508877,-3.591627,3.894917,-0.135154,-0.102473,0.040317,30.99,67.133991056102
11882,-8.513663,-3.592823,3.89731,-0.135154,-0.112246,0.040317,30.99,67.1322151018827
11892,-8.503493,-3.5671,3.92722,-0.135001,-0.120799,0.040775,30.99,66.9316860248671
11902,-8.501699,-3.567699,3.941577,-0.13607,-0.133474,0.04047,31.02,66.8530238660656
11912,-8.505887,-3.5671,3.95055,-0.136834,-0.137445,0.040164,30.97,66.8140596398414
11922,-8.489736,-3.564708,3.963113,-0.138056,-0.141263,0.039401,30.97,66.7124569887896
11932,-8.48136,-3.570091,3.972684,-0.138666,-0.143401,0.038332,30.96,66.6494671406236
11942,-8.483753,-3.571288,3.983452,-0.139735,-0.143248,0.036805,30.96,66.5990375410134
11952,-8.484351,-3.554538,3.991228,-0.140804,-0.142026,0.035277,31.03,66.544793877995
11962,-8.46102,-3.559324,4.005585,-0.140804,-0.140041,0.035583,31.03,66.4246778244464
11972,-8.464012,-3.561118,4.012166,-0.14111,-0.136834,0.034667,30.98,66.3980882902979
11982,-8.438289,-3.552743,4.015156,-0.140957,-0.133016,0.034819,30.98,66.3205290390911
11992,-8.447861,-3.555136,4.020541,-0.140957,-0.128434,0.034972,31,66.3147152705638
12002,-8.435897,-3.561118,4.026522,-0.141415,-0.123547,0.034208,31,66.2633209341248
12012,-8.422735,-3.552145,4.02413,-0.140804,-0.11637,0.035277,30.99,66.2398241900898
12022,-8.419745,-3.552743,4.029513,-0.138972,-0.10965,0.036041,30.99,66.2057304550953
12032,-8.409575,-3.543172,4.022335,-0.137597,-0.103084,0.037415,30.99,66.2131237076983
12042,-8.407781,-3.552145,4.034299,-0.135154,-0.0956,0.040012,30.99,66.1545169158505
12052,-8.399406,-3.555136,4.036692,-0.133169,-0.087354,0.041997,30.98,66.1267357571829
12062,-8.380861,-3.556931,4.030112,-0.130267,-0.079718,0.044593,30.98,66.1232262771607
12072,-8.38804,-3.558726,4.024727,-0.12706,-0.071929,0.05116,30.98,66.1685688707415
12082,-8.386245,-3.573681,4.022933,-0.121409,-0.0562,0.055436,30.97,66.1877631154774
12092,-8.377273,-3.57069,4.019942,-0.117897,-0.049022,0.059254,30.97,66.1816077108144
12102,-8.372486,-3.559324,4.021138,-0.115759,-0.041692,0.062766,31,66.1547035152806
12112,-8.372486,-3.57069,4.00738,-0.112399,-0.034819,0.066737,31,66.237570260253
12122,-8.382057,-3.572484,4.010969,-0.109039,-0.0281,0.071166,31,66.2407148627204
12132,-8.382057,-3.576073,4.00738,-0.106596,-0.022297,0.073762,31,66.2628845095719
12142,-8.382057,-3.582056,4.010371,-0.104611,-0.01573,0.077427,30.97,66.2525731845648
12152,-8.385049,-3.574877,4.00738,-0.102625,-0.011301,0.080634,30.97,66.268172494659
12162,-8.394022,-3.580859,4.010969,-0.100793,-0.00672,0.082925,30.98,66.2738092117498
12172,-8.397013,-3.586243,4.005585,-0.099724,-0.002291,0.085521,30.98,66.3133803011317
12182,-8.39821,-3.588636,3.996014,-0.098807,0.00168,0.087965,31,66.3684679863964
12192,-8.408379,-3.583252,3.998407,-0.098349,0.005498,0.090866,31,66.3725444120612
12202,-8.419147,-3.582654,4.006183,-0.098655,0.008552,0.092393,31.02,66.353916488215
12212,-8.417352,-3.580859,4.005585,-0.099418,0.011454,0.092546,31.02,66.3516412026839
12222,-8.442476,-3.586841,3.996612,-0.100182,0.013592,0.092546,31.01,66.4571931040377
12232,-8.453843,-3.59043,4.0008,-0.102778,0.016188,0.092852,31.01,66.462340639109
12242,-8.459825,-3.595814,3.993621,-0.104458,0.017715,0.093004,31,66.5173429965496
12252,-8.480762,-3.59402,3.999005,-0.109345,0.019853,0.090408,31,66.5313929605366
12262,-8.492128,-3.598805,3.996014,-0.112705,0.020006,0.086743,30.98,66.5750263863315
12272,-8.495118,-3.585645,3.985844,-0.115454,0.020006,0.084299,30.98,66.6228726157262
12282,-8.520243,-3.589234,3.99721,-0.117897,0.0197,0.08094,30.98,66.6189259004854
12292,-8.528618,-3.597609,3.987041,-0.121562,0.017868,0.076358,31,66.6967389742231
12302,-8.532208,-3.588037,3.983452,-0.125227,0.015119,0.071166,31,66.7145658774259
12312,-8.537591,-3.591029,3.982255,-0.129045,0.012523,0.064904,30.97,66.7345678283762
12322,-8.554939,-3.591029,3.976273,-0.1321,0.009316,0.057727,30.97,66.8016187956362
12332,-8.562716,-3.597609,3.96072,-0.135459,0.005345,0.051618,31,66.9044615110832
12342,-8.566903,-3.588636,3.954139,-0.139277,-0.000153,0.045204,31,66.939687687253
12352,-8.566903,-3.589234,3.949952,-0.14279,-0.006109,0.038637,30.97,66.962070021497
12362,-8.566903,-3.585046,3.944568,-0.145691,-0.012828,0.030085,30.97,66.9866106019166
12372,-8.576474,-3.591029,3.934398,-0.148288,-0.020617,0.023213,31.02,67.0644458000426
12382,-8.577072,-3.584448,3.934997,-0.150884,-0.028405,0.016188,31.02,67.056917520475
12392,-8.577072,-3.597609,3.932604,-0.152716,-0.038026,0.008858,31.02,67.0806626768179
12402,-8.567502,-3.589234,3.933203,-0.154549,-0.046578,0.002596,31.02,67.0508444449601
12412,-8.555537,-3.576672,3.913461,-0.156076,-0.056352,-0.003054,30.97,67.1190690001055
12422,-8.537591,-3.584448,3.911667,-0.15684,-0.0759,-0.012675,30.97,67.0984655689959
12432,-8.529815,-3.580859,3.908078,-0.157145,-0.085979,-0.015424,30.95,67.0983249248947
12442,-8.522038,-3.566502,3.909274,-0.156076,-0.095142,-0.018937,31,67.0637540569935
12452,-8.516056,-3.579065,3.896114,-0.154396,-0.103847,-0.019853,31,67.1315518569881
12462,-8.499306,-3.576073,3.905685,-0.152564,-0.112399,-0.020311,31.02,67.0441848035526
12472,-8.474779,-3.574279,3.905087,-0.150731,-0.120646,-0.020617,31.02,66.9952352518496
12482,-8.469396,-3.57069,3.912265,-0.147982,-0.127671,-0.018631,31.02,66.9430944588692
12492,-8.457432,-3.580859,3.918247,-0.145386,-0.132405,-0.016341,31.02,66.8956383363604
12502,-8.4347,-3.578466,3.924827,-0.141873,-0.138208,-0.012523,30.98,66.8115328875953
12512,-8.423334,-3.582056,3.924827,-0.138208,-0.142332,-0.008705,30.98,66.7910142366745
12522,-8.410173,-3.574279,3.932006,-0.134696,-0.143859,-0.001985,30.96,66.7186171978152
12532,-8.397013,-3.578466,3.937988,-0.131183,-0.145233,0.003818,30.96,66.6630968335595
12542,-8.38804,-3.579663,3.953541,-0.126755,-0.14508,0.010537,30.99,66.5630064373463
12552,-8.379066,-3.573681,3.955934,-0.123395,-0.144317,0.018173,30.99,66.5260125170097
12562,-8.373683,-3.580859,3.961318,-0.118813,-0.142026,0.024435,30.97,66.4926242512605
12572,-8.356335,-3.569493,3.970889,-0.114385,-0.138972,0.033598,30.97,66.3948570116961
12582,-8.346764,-3.563511,3.997808,-0.111025,-0.134238,0.042608,30.98,66.2265483422809
12592,-8.337791,-3.565306,4.009174,-0.106749,-0.127976,0.060628,30.98,66.1488607071562
12602,-8.3348,-3.588037,4.021138,-0.100793,-0.111636,0.069791,30.98,66.1001993582564
12612,-8.330612,-3.581457,4.031906,-0.097433,-0.102625,0.078954,30.98,66.0282792535115
12622,-8.32463,-3.579663,4.046861,-0.0956,-0.092393,0.087048,30.98,65.9348337901899
12632,-8.322835,-3.588636,4.058825,-0.093004,-0.08094,0.095142,31.03,65.8762776017965
12642,-8.346166,-3.580261,4.051647,-0.090103,-0.068111,0.103236,31.03,65.9567008449996
12652,-8.338987,-3.58385,4.070789,-0.088881,-0.055741,0.110719,30.96,65.8438555753343
12662,-8.356335,-3.584448,4.074379,-0.087506,-0.043219,0.116064,30.96,65.8630864662204
12672,-8.373085,-3.588636,4.079762,-0.086896,-0.030085,0.121104,31,65.8748975872564
12682,-8.380263,-3.586841,4.082754,-0.086285,-0.016799,0.124922,31,65.8730470046208
12692,-8.38146,-3.59043,4.084548,-0.08659,-0.002749,0.127824,30.96,65.8695487094223
12702,-8.403594,-3.59043,4.08395,-0.086743,0.009163,0.129962,30.96,65.9202938511151
12712,-8.423933,-3.584448,4.077968,-0.088117,0.021991,0.13042,30.97,65.98968500582
12722,-8.440681,-3.592225,4.073781,-0.089797,0.032376,0.130267,30.97,66.0543859798837
12732,-8.462815,-3.595216,4.071986,-0.09163,0.042913,0.127671,30.98,66.1135425158869
12742,-8.472386,-3.595814,4.067201,-0.093921,0.051924,0.124158,30.98,66.1593056678433
12752,-8.492725,-3.601796,4.060022,-0.096822,0.059407,0.119577,30.97,66.2450248018623
12762,-8.517252,-3.576073,4.032505,-0.100182,0.065821,0.112705,30.97,66.4170372966167
12772,-8.519047,-3.58385,4.021737,-0.107054,0.071929,0.097433,31.02,66.483751795474
12782,-8.53819,-3.59402,4.018147,-0.110872,0.072998,0.088728,30.98,66.5513085459136
12792,-8.558528,-3.59402,3.996612,-0.115301,0.071624,0.079565,30.98,66.7056100429127
12802,-8.551949,-3.582654,3.983452,-0.11973,0.069028,0.068875,31.03,66.7507444386256
12812,-8.563912,-3.58744,3.962514,-0.123853,0.064294,0.058643,31.03,66.8887926023581
12822,-8.56451,-3.585645,3.942773,-0.126907,0.05849,0.049022,30.99,66.9916065894441
12832,-8.5681,-3.580261,3.940381,-0.130878,0.050702,0.038943,30.99,67.0068526456389
12842,-8.57169,-3.583252,3.919443,-0.133627,0.041539,0.02978,30.99,67.1262858086756
12852,-8.563912,-3.569493,3.914658,-0.136376,0.031001,0.021075,30.99,67.1237742146599
12862,-8.560324,-3.57727,3.900899,-0.138208,0.020159,0.013592,30.98,67.1952428719483
12872,-8.559127,-3.578466,3.894917,-0.139735,0.007789,0.006414,30.98,67.2252252321795
12882,-8.55434,-3.580859,3.882953,-0.141873,-0.004887,0.000611,31.03,67.2803867940415
12892,-8.541779,-3.573681,3.87398,-0.142942,-0.01909,-0.004429,31.03,67.2959780940691
12902,-8.535797,-3.579065,3.868596,-0.142637,-0.031918,-0.008399,31,67.3167676575987
12912,-8.528021,-3.563511,3.863212,-0.142026,-0.045051,-0.010843,31,67.3161121306133
12922,-8.536395,-3.567699,3.851248,-0.142484,-0.059101,-0.012217,30.98,67.3998187551187
12932,-8.510672,-3.565306,3.862614,-0.140499,-0.07254,-0.012065,30.98,67.2854500836015
12942,-8.498708,-3.562315,3.85723,-0.139125,-0.098044,-0.009163,31,67.2869369273603
12952,-8.501699,-3.559324,3.866203,-0.135918,-0.109498,-0.006872,30.96,67.2430358030589
12962,-8.495118,-3.558726,3.874578,-0.134543,-0.12034,-0.004429,30.96,67.1847750264815
12972,-8.48136,-3.553342,3.88714,-0.133016,-0.130267,-0.001527,31.03,67.0854529410091
12982,-8.469396,-3.56052,3.902096,-0.131794,-0.140041,0.000611,31.03,66.9879313278216
12992,-8.46102,-3.562315,3.906283,-0.130572,-0.14676,0.004276,30.98,66.9500293065439
13002,-8.458628,-3.565306,3.921836,-0.129656,-0.153174,0.007789,30.98,66.8655392929368
13012,-8.465208,-3.558726,3.939782,-0.128282,-0.158367,0.010537,30.96,66.7788232206943
13022,-8.447262,-3.557529,3.954139,-0.127671,-0.161574,0.013439,30.96,66.6646092194157
13032,-8.437093,-3.559324,3.962514,-0.127213,-0.163101,0.01741,30.98,66.6007219610467
13042,-8.436494,-3.56052,3.974478,-0.126755,-0.163559,0.020922,30.98,66.5375016569822
13052,-8.420342,-3.561118,3.991228,-0.125991,-0.161268,0.02474,31,66.4157587993466
13062,-8.408379,-3.563511,4.010969,-0.126296,-0.157756,0.029016,31,66.2886572217264
13072,-8.410173,-3.5671,4.017549,-0.125686,-0.152716,0.031307,30.98,66.2611167806731
13082,-8.391031,-3.570091,4.037888,-0.125686,-0.146455,0.034208,30.98,66.1161103411093
13092,-8.391031,-3.567699,4.038486,-0.124769,-0.138208,0.036957,31,66.1107908961151
13102,-8.391629,-3.572484,4.066004,-0.123395,-0.129351,0.040623,31,65.972056663857
13112,-8.373683,-3.580859,4.067799,-0.122326,-0.10568,0.0478,31,65.9317189046449
13122,-8.36471,-3.580261,4.069593,-0.121104,-0.093615,0.052382,31.02,65.9024115755252
13132,-8.360522,-3.594618,4.088138,-0.120493,-0.080634,0.055589,31.02,65.8094361686917
13142,-8.363514,-3.595216,4.079762,-0.118355,-0.066126,0.060018,31.01,65.8603437541657
13152,-8.360522,-3.589832,4.080959,-0.117286,-0.052687,0.064446,31.01,65.8426140885716
13162,-8.376076,-3.594618,4.082156,-0.114843,-0.038332,0.068417,31,65.8743374402846
13172,-8.370691,-3.593421,4.080361,-0.113316,-0.024435,0.072082,31,65.8710231336547
13182,-8.373085,-3.593421,4.074379,-0.111483,-0.011148,0.074678,30.98,65.9075245783943
13192,-8.376674,-3.6006,4.074379,-0.109192,0.001985,0.077885,30.98,65.9218829419318
13202,-8.379066,-3.608975,4.062415,-0.107207,0.014355,0.080481,31.04,65.9974406191527
13212,-8.390432,-3.614957,4.051647,-0.105527,0.024129,0.082467,31.04,66.0836970046013
13222,-8.4012,-3.602993,4.045665,-0.103847,0.033903,0.083689,30.98,66.1270479863312
13232,-8.417352,-3.60718,4.035496,-0.102014,0.042761,0.085063,30.98,66.2185084072259
13242,-8.420342,-3.609573,4.022933,-0.10064,0.049327,0.084605,31.03,66.2928621271121
13252,-8.440681,-3.615555,4.010969,-0.100182,0.053909,0.085216,31.03,66.4038956151217
13262,-8.450851,-3.608377,4.002594,-0.09896,0.058185,0.083689,31.04,66.4627066673408
13272,-8.455637,-3.61376,3.985246,-0.098044,0.06017,0.08262,31.04,66.5685104651467
13282,-8.477173,-3.605386,3.972684,-0.096669,0.060781,0.078649,31.05,66.6718717851492
13292,-8.480762,-3.604787,3.951149,-0.097891,0.05681,0.076664,31,66.7918167196183
13302,-8.486743,-3.608975,3.948158,-0.098349,0.052993,0.074526,31,66.823593526397
13312,-8.504092,-3.60718,3.939184,-0.09896,0.047495,0.071929,30.98,66.9049428032312
13322,-8.506484,-3.602993,3.924827,-0.100029,0.041081,0.068417,30.98,66.9816015868605
13332,-8.509476,-3.611368,3.92064,-0.101251,0.033445,0.067195,31.03,67.0170312172837
13342,-8.518449,-3.606582,3.919443,-0.103084,0.025198,0.064141,31.03,67.0375529943308
13352,-8.52144,-3.591627,3.907479,-0.105069,0.016646,0.062156,31,67.0936013898354
13362,-8.534002,-3.59402,3.905087,-0.107054,0.00672,0.059559,31,67.1339143915332
13372,-8.530412,-3.586841,3.900899,-0.108734,-0.003665,0.057879,30.98,67.142421690326
13382,-8.525029,-3.589234,3.899703,-0.111788,-0.013744,0.055589,30.98,67.1397689856817
13392,-8.528618,-3.588037,3.900301,-0.113774,-0.02474,0.053756,31,67.1429283615568
13402,-8.540583,-3.576073,3.906881,-0.115759,-0.035277,0.051771,31,67.1225383786349
13412,-8.540583,-3.582654,3.90389,-0.118355,-0.046426,0.049938,31.01,67.1438852190792
13422,-8.538787,-3.580859,3.902096,-0.120646,-0.056963,0.047953,31.01,67.1481058546951
13432,-8.545966,-3.573082,3.898506,-0.122937,-0.067501,0.047342,30.98,67.1749773719443
13442,-8.534002,-3.568297,3.901497,-0.125227,-0.07758,0.044746,30.98,67.1307194969713
13452,-8.534599,-3.575475,3.930809,-0.127365,-0.08659,0.04215,31.01,66.9841579585659
13462,-8.52144,-3.567699,3.924827,-0.131031,-0.104153,0.039706,31.01,66.9817933379351
13472,-8.520243,-3.559922,3.934997,-0.132558,-0.111636,0.036957,30.99,66.9192006723796
13482,-8.522038,-3.556931,3.946961,-0.134696,-0.118202,0.033903,30.97,66.8575338991998
13492,-8.510075,-3.550949,3.956532,-0.135918,-0.122937,0.031307,30.97,66.7773344185403
13502,-8.514261,-3.548556,3.958327,-0.136528,-0.127365,0.028711,31,66.7745412126234
13512,-8.501101,-3.565904,3.971487,-0.136987,-0.130114,0.025962,31,66.6932451375416
13522,-8.501101,-3.559922,3.976273,-0.138056,-0.132863,0.023518,30.96,66.662933107651
13532,-8.484351,-3.554538,3.985844,-0.139125,-0.133932,0.021533,30.96,66.5730216872197
13542,-8.472985,-3.552145,3.985844,-0.138972,-0.133627,0.01909,30.96,66.5470739912251
13552,-8.47119,-3.549154,3.997808,-0.13775,-0.131947,0.01741,30.96,66.4778944033871
13562,-8.467602,-3.548556,4.002594,-0.137597,-0.129351,0.013897,31.05,66.4447075181458
13572,-8.447861,-3.556931,4.00379,-0.137292,-0.125991,0.013134,31.05,66.4041881907973
13582,-8.437692,-3.54736,4.009174,-0.135001,-0.120646,0.012217,30.96,66.3458666006339
13592,-8.440084,-3.552743,4.024727,-0.133169,-0.115912,0.011301,30.96,66.2741279904791
13602,-8.42453,-3.551547,4.031906,-0.131794,-0.110719,0.010232,30.97,66.2022996104655
13612,-8.413164,-3.557529,4.023531,-0.129198,-0.103389,0.010232,30.97,66.2274231339047
13622,-8.39462,-3.552743,4.029513,-0.126755,-0.095906,0.011606,30.99,66.1520512261142
13632,-8.400601,-3.564708,4.03071,-0.125227,-0.08094,0.012065,30.99,66.1693916898059
13642,-8.38445,-3.572484,4.029513,-0.119119,-0.071777,0.014508,31.01,66.1482274974323
13652,-8.38146,-3.574279,4.031308,-0.117133,-0.064141,0.01741,30.98,66.1340278797715
13662,-8.380861,-3.576073,4.03071,-0.114232,-0.0562,0.020464,30.98,66.1375284737237
13672,-8.374281,-3.567699,4.031906,-0.111941,-0.047037,0.024282,31,66.1094950099415
13682,-8.38146,-3.573681,4.022933,-0.109192,-0.039248,0.029322,31,66.1775398512499
13692,-8.359326,-3.573681,4.027121,-0.106901,-0.031154,0.031918,30.98,66.1080856292075
13702,-8.35454,-3.579663,4.02413,-0.105069,-0.02306,0.037263,30.98,66.1190717172164
13712,-8.362915,-3.582654,4.027121,-0.103847,-0.015882,0.041844,31.02,66.1240152403547
13722,-8.363514,-3.57727,4.017549,-0.101709,-0.008247,0.047342,31.02,66.1707902750802
13732,-8.370691,-3.591029,4.024727,-0.101251,-0.001833,0.051924,30.96,66.1609402277604
13742,-8.367702,-3.585645,4.025326,-0.100029,0.004581,0.058643,30.96,66.1464594438334
13752,-8.373683,-3.59043,4.017549,-0.098502,0.010996,0.063988,30.99,66.2045650057373
13762,-8.376674,-3.58385,4.018147,-0.097586,0.016035,0.069944,30.99,66.2017853433999
13772,-8.400601,-3.604787,4.008576,-0.097433,0.021991,0.074984,30.98,66.3220934327337
13782,-8.405987,-3.601198,3.996014,-0.097586,0.026267,0.080787,30.98,66.3962948493859
13792,-8.407183,-3.594618,3.993621,-0.097586,0.02978,0.085063,30.98,66.405462136309
13802,-8.4347,-3.59402,3.991228,-0.096822,0.032834,0.092393,30.98,66.4755312581915
13812,-8.453244,-3.602993,3.985844,-0.09896,0.038026,0.096059,31,66.550751471368
13822,-8.467602,-3.60718,3.998407,-0.100335,0.038485,0.09896,31.02,66.5186858523824
13832,-8.466404,-3.60718,3.97747,-0.101556,0.038637,0.100029,31.02,66.6259218656975
13842,-8.484351,-3.598207,3.97388,-0.102931,0.038026,0.10064,31.02,66.6741939664871
13852,-8.499306,-3.607778,3.967898,-0.104763,0.035888,0.099571,31.02,66.7450283223149
13862,-8.514261,-3.614359,3.962514,-0.106596,0.033445,0.098349,30.97,66.8099217389222
13872,-8.522635,-3.606582,3.969693,-0.108429,0.029932,0.095142,30.97,66.7828496827975
13882,-8.536395,-3.602993,3.958327,-0.110108,0.025656,0.091324,30.99,66.8675294529088
13892,-8.541779,-3.604189,3.95055,-0.113468,0.019853,0.087354,30.99,66.9203080754655
13902,-8.569895,-3.596412,3.95055,-0.115301,0.013592,0.08262,31,66.9712369935803
13912,-8.551949,-3.597011,3.939184,-0.117744,0.00672,0.075442,31,66.9944221933707
13922,-8.57169,-3.58744,3.935595,-0.119882,-0.001833,0.068111,30.99,67.0453562503328
13932,-8.577072,-3.608377,3.931407,-0.121715,-0.010385,0.060781,30.99,67.0961276568002
13942,-8.572886,-3.59043,3.929015,-0.124311,-0.020464,0.052229,30.99,67.0847594460786
13952,-8.583653,-3.591627,3.921836,-0.126144,-0.030085,0.04444,30.99,67.145244588908
13962,-8.57827,-3.592225,3.909872,-0.129198,-0.040928,0.035583,31,67.1974137944696
13972,-8.574082,-3.592225,3.911069,-0.130114,-0.052229,0.027336,31,67.1826401069625
13982,-8.558528,-3.579663,3.906283,-0.131794,-0.07422,0.013439,31,67.1653728981836
13992,-8.560324,-3.595814,3.892524,-0.13271,-0.085521,0.005803,31,67.2549856241426
14002,-8.55434,-3.580261,3.908078,-0.132405,-0.096517,-0.000611,31,67.1479273903701
14012,-8.542974,-3.573681,3.906881,-0.1321,-0.10736,-0.005651,31.01,67.1253798695917
14022,-8.532805,-3.578466,3.903292,-0.131031,-0.116217,-0.009621,31.01,67.1275443187293
