t_ms,ax,ay,az,gx,gy,gz,temp,ang_deg
12,-8.196614,-3.821338,4.099504,0.207083,0.092852,-0.097433,32.34,65.6150555792901
22,-8.212168,-3.82732,4.11745,0.213803,0.074831,-0.078038,32.32,65.560470046001
32,-8.215756,-3.816552,4.142574,0.219301,0.058643,-0.06185,32.32,65.4258389414655
42,-8.231908,-3.811168,4.153342,0.223271,0.045204,-0.047037,32.33,65.3991868759205
52,-8.255239,-3.82074,4.191627,0.226631,0.031918,-0.033903,32.33,65.2600524455047
62,-8.262416,-3.816552,4.204788,0.23106,0.008705,-0.01573,32.34,65.2031184912799
72,-8.266006,-3.823731,4.223332,0.232282,-0.00168,-0.010385,32.35,65.1220516712963
82,-8.276773,-3.824927,4.229314,0.232892,-0.011759,-0.00504,32.35,65.1157560139858
92,-8.280961,-3.814159,4.236493,0.234878,-0.019853,-0.001833,32.37,65.0769418343487
102,-8.2678,-3.813561,4.245465,0.236405,-0.028863,-0.001069,32.37,65.0012092501961
112,-8.270193,-3.815954,4.261617,0.238237,-0.037263,-0.001833,32.34,64.9254461636595
122,-8.25464,-3.820141,4.273581,0.239459,-0.043371,-0.003207,32.34,64.8337955221449
132,-8.251051,-3.814758,4.293322,0.240528,-0.049938,-0.004887,32.35,64.7185931804725
142,-8.251051,-3.806981,4.299902,0.242361,-0.054367,-0.006872,32.35,64.6767459903428
152,-8.231908,-3.800999,4.320839,0.243277,-0.0562,-0.009774,32.34,64.5202622294383
162,-8.230114,-3.799204,4.347759,0.243124,-0.056658,-0.01237,32.34,64.3759258197825
172,-8.221739,-3.799204,4.364508,0.242361,-0.054825,-0.014966,32.37,64.2711238431941
182,-8.209177,-3.77408,4.373481,0.239765,-0.050396,-0.018173,32.37,64.1706569530912
192,-8.198408,-3.769294,4.399803,0.235489,-0.043219,-0.02306,32.36,64.006133976453
202,-8.194221,-3.757928,4.413561,0.231212,-0.034514,-0.027947,32.36,63.9141582291994
212,-8.200203,-3.753142,4.436294,0.224646,-0.024435,-0.033598,32.36,63.8063975798343
222,-8.206185,-3.736392,4.460222,0.217621,-0.013439,-0.039095,32.36,63.6803013589443
232,-8.217552,-3.720241,4.475775,0.209221,0.011301,-0.05284,32.3,63.6102477293081
242,-8.230114,-3.710072,4.481159,0.191964,0.024129,-0.062003,32.36,63.6011782412788
252,-8.244471,-3.690929,4.493721,0.182343,0.037415,-0.071624,32.36,63.5505378291255
262,-8.263614,-3.680759,4.494319,0.172722,0.050855,-0.081703,32.36,63.5811849798907
272,-8.258228,-3.683152,4.50748,0.163101,0.064599,-0.092699,32.36,63.5043905600245
282,-8.263015,-3.681956,4.515256,0.153785,0.077427,-0.103542,32.38,63.4747752302718
292,-8.268997,-3.664608,4.515256,0.14508,0.090713,-0.114995,32.38,63.4707801536327
302,-8.266603,-3.669394,4.494319,0.138361,0.10232,-0.12706,32.32,63.5764235268743
312,-8.279166,-3.659822,4.488338,0.1321,0.113621,-0.136681,32.32,63.6260005741506
322,-8.267202,-3.662813,4.472784,0.126602,0.124769,-0.147677,32.32,63.6805963903272
332,-8.249854,-3.649653,4.462614,0.122937,0.135001,-0.156229,32.32,63.6790049807101
342,-8.2349,-3.655036,4.445267,0.121562,0.144775,-0.163865,32.33,63.7386210019799
352,-8.216953,-3.643671,4.426124,0.120493,0.155771,-0.169515,32.33,63.7836217209782
362,-8.210971,-3.655036,4.419543,0.120646,0.16417,-0.17318,32.33,63.8152426788273
372,-8.199606,-3.651447,4.396214,0.122326,0.172875,-0.173028,32.33,63.9052984161233
382,-8.182856,-3.655036,4.369893,0.124158,0.181732,-0.171806,32.35,64.006161826589
392,-8.157133,-3.652046,4.331607,0.126755,0.18891,-0.168141,32.35,64.1422318242335
402,-8.128419,-3.657429,4.31067,0.13042,0.19563,-0.154243,32.3,64.1907077511381
412,-8.112864,-3.651447,4.295117,0.138514,0.206014,-0.143706,32.34,64.2298957143273
422,-8.119445,-3.662215,4.269992,0.142942,0.209221,-0.132405,32.34,64.3874251697008
432,-8.100304,-3.66401,4.248456,0.147066,0.209832,-0.119577,32.33,64.4583570995592
442,-8.111071,-3.681956,4.234698,0.152105,0.20861,-0.106443,32.33,64.5735854536132
452,-8.116454,-3.680161,4.222734,0.156992,0.205403,-0.092546,32.35,64.6467413754318
462,-8.133204,-3.674777,4.2006,0.161268,0.200822,-0.079565,32.35,64.7953582746689
472,-8.147561,-3.696313,4.191029,0.166308,0.193339,-0.068111,32.33,64.8998156942903
482,-8.176275,-3.697509,4.178466,0.171042,0.182801,-0.057421,32.33,65.0311016995874
492,-8.190632,-3.692724,4.172484,0.175166,0.170431,-0.048564,32.31,65.0896062403404
502,-9.958928,-2.349154,4.166502,0.179289,0.124617,-0.080787,32.31,67.8441678872467
512,-8.139785,-3.625725,4.175476,0.174707,-0.018784,-0.251524,32.36,64.8928180737368
522,-8.06441,-3.78066,4.116851,0.18387,-0.050702,-0.2558,32.36,65.192530573008
532,-8.08475,-3.750151,4.185645,0.194102,-0.05681,-0.23503,32.29,64.8426749242094
542,-8.100902,-3.78066,4.193422,0.206778,-0.064294,-0.210749,32.29,64.8696990155063
552,-8.094321,-3.807579,4.194618,0.215635,-0.068875,-0.195782,32.38,64.8768715841918
562,-8.141579,-3.785445,4.27717,0.225867,-0.073609,-0.176387,32.38,64.5280433104454
572,-8.224131,-3.817749,4.348357,0.233045,-0.075747,-0.168446,32.36,64.3786715693901
582,-8.138588,-3.834498,4.323831,0.242819,-0.075595,-0.156382,32.33,64.3308869337971
592,-8.250452,-3.832105,4.405187,0.24511,-0.072998,-0.150884,32.33,64.1615362168607
602,-8.190034,-3.868596,4.393223,0.24343,-0.068264,-0.158061,32.34,64.1254979817647
612,-8.263614,-3.844069,4.483552,0.240375,-0.060781,-0.157909,32.34,63.8054158239004
622,-8.192427,-3.882953,4.445267,0.233809,-0.051924,-0.168141,32.3,63.8803452869287
632,-8.295916,-3.847659,4.534997,0.226784,-0.041844,-0.1715,32.3,63.6226403392024
642,-8.194221,-3.891926,4.487141,0.215941,-0.028863,-0.182343,32.35,63.6811195376967
652,-8.268997,-3.872783,4.559524,0.205403,-0.015882,-0.185856,32.35,63.4649004112229
662,-8.182258,-3.894917,4.528417,0.193186,-0.000305,-0.194561,32.3,63.4479987380282
672,-8.222337,-3.870989,4.569095,0.181732,0.01573,-0.196393,32.3,63.3084680148613
682,-8.145766,-3.904488,4.527819,0.16921,0.034208,-0.201738,32.32,63.378025025261
692,-8.188837,-3.881158,4.568497,0.158061,0.052076,-0.199906,32.32,63.2456822478561
702,-8.115856,-3.900301,4.519444,0.147371,0.071929,-0.199753,32.34,63.3472710350354
712,-8.149954,-3.893123,4.542774,0.138666,0.090408,-0.194102,32.34,63.2993939510881
722,-8.073383,-3.902694,4.496712,0.131336,0.108276,-0.189521,32.33,63.3679445848506
732,-8.09791,-3.894319,4.496712,0.12706,0.124617,-0.181427,32.33,63.4151187616507
742,-8.07458,-3.905685,4.466204,0.124158,0.158214,-0.161421,32.29,63.5299852621585
752,-8.050054,-3.902694,4.4339,0.123853,0.172264,-0.15012,32.29,63.6361303047412
762,-8.069196,-3.902694,4.432704,0.129962,0.186925,-0.137292,32.34,63.6861071256496
772,-8.031509,-3.904488,4.399205,0.136834,0.200975,-0.123547,32.36,63.7744105411841
782,-8.051848,-3.886542,4.38724,0.144928,0.214108,-0.110108,32.36,63.8628053742057
792,-8.053044,-3.885944,4.37408,0.155923,0.225409,-0.098807,32.34,63.9328803143028
802,-8.065607,-3.893721,4.356732,0.168293,0.235947,-0.088117,32.34,64.0596737289305
812,-8.073383,-3.875176,4.359723,0.182038,0.245873,-0.077274,32.36,64.0415914983997
822,-8.08475,-3.872783,4.342375,0.196851,0.254884,-0.067653,32.36,64.1545133082479
832,-8.095517,-3.86381,4.344768,0.211818,0.262061,-0.058643,32.32,64.156775829777
842,-8.095517,-3.844069,4.328018,0.228464,0.268933,-0.051924,32.32,64.2222684680902
852,-8.170293,-3.792624,4.321437,0.244193,0.274584,-0.044746,32.31,64.3705393682147
862,-8.696713,-3.384648,4.409374,0.253967,0.249538,-0.064904,32.31,64.709554941356
872,-8.033303,-3.815954,4.28734,0.256258,0.197004,-0.109345,32.33,64.2625736795213
882,-8.122437,-3.812365,4.331009,0.271835,0.198378,-0.096517,32.33,64.2338109364383
892,-8.039885,-3.81715,4.285545,0.28558,0.204334,-0.086743,32.3,64.2882202135837
902,-8.116454,-3.775874,4.336392,0.301157,0.210901,-0.069791,32.3,64.1536316540903
912,-8.042875,-3.8004,4.338188,0.311541,0.216552,-0.060781,32.34,64.0024117792219
922,-8.077571,-3.765106,4.291527,0.320704,0.221897,-0.032987,32.34,64.2870224829694
932,-8.172686,-3.739383,4.336991,0.329562,0.231212,-0.018631,32.29,64.2400770262063
942,-8.130214,-3.742973,4.298108,0.329256,0.233961,-0.010843,32.36,64.3491055586628
952,-8.195418,-3.715455,4.32742,0.326507,0.23503,-0.000305,32.36,64.3163984979917
962,-8.177471,-3.725027,4.296911,0.319483,0.235641,0.005192,32.32,64.4436963009762
972,-8.260024,-3.705884,4.319643,0.311083,0.23274,0.012828,32.32,64.4924832896602
982,-8.246264,-3.709473,4.283751,0.299019,0.229074,0.015882,32.31,64.6506566692318
992,-8.31147,-3.686144,4.304688,0.285427,0.221133,0.018326,32.31,64.664869773154
1002,-8.296515,-3.687938,4.277769,0.26985,0.211512,0.016646,32.34,64.7721516716985
1012,-8.343773,-3.675375,4.284349,0.252898,0.200364,0.015577,32.34,64.8307355623201
1022,-8.348558,-3.669992,4.25743,0.234114,0.185703,0.01069,32.36,64.9747872852107
1032,-8.38804,-3.661617,4.252046,0.215788,0.170126,0.004734,32.36,65.08126774582
1042,-8.429914,-3.650849,4.229314,0.197004,0.150578,-0.004734,32.34,65.2794791414367
1052,-8.486146,-3.614359,4.240082,0.178831,0.124158,-0.0197,32.34,65.3122368472408
1062,-8.410771,-3.665804,4.211967,0.160658,0.096364,-0.036194,32.32,65.3413802315197
1072,-8.435298,-3.662215,4.216154,0.146302,0.072846,-0.047953,32.32,65.3695913504739
1082,-8.419147,-3.658626,4.178466,0.133779,0.049938,-0.059559,32.33,65.5257500441474
1102,-8.410173,-3.659822,4.172484,0.113621,-0.021686,-0.094379,32.36,65.538445554185
1112,-8.401799,-3.661617,4.1671,0.112399,-0.044593,-0.105832,32.33,65.5499318975443
1122,-8.385648,-3.676572,4.17069,0.114385,-0.066432,-0.116523,32.33,65.5105586361665
1132,-8.365308,-3.671786,4.166502,0.118355,-0.086285,-0.127824,32.32,65.4836998016262
1142,-8.343773,-3.67418,4.180261,0.126144,-0.104611,-0.137445,32.32,65.3677378073544
1152,-8.334201,-3.667599,4.193422,0.135001,-0.120035,-0.145997,32.32,65.2721760642886
1162,-8.30489,-3.678965,4.21735,0.145691,-0.134085,-0.154854,32.32,65.0946463253069
1172,-8.277372,-3.672385,4.234698,0.156687,-0.144775,-0.161574,32.34,64.9373072204881
1182,-8.238488,-3.678366,4.245465,0.169362,-0.151953,-0.16753,32.34,64.8007146820355
1192,-8.231908,-3.690929,4.278965,0.181274,-0.156687,-0.172569,32.38,64.6246375735655
1202,-8.203793,-3.668197,4.302894,0.193186,-0.15852,-0.176235,32.38,64.4141796524631
1212,-8.185248,-3.674777,4.346562,0.203724,-0.155618,-0.178525,32.3,64.1525019294438
1222,-8.154739,-3.672385,4.378866,0.213803,-0.149815,-0.181885,32.3,63.9129646357108
1232,-8.139186,-3.671786,4.417151,0.22098,-0.140194,-0.183412,32.34,63.6787165333995
1242,-8.105088,-3.669992,4.436892,0.226478,-0.126602,-0.182954,32.34,63.4954604629292
1252,-8.088937,-3.67059,4.468596,0.229838,-0.111025,-0.182343,32.36,63.294784731742
1262,-8.053642,-3.68734,4.533203,0.230907,-0.090866,-0.18158,32.36,62.8973126664428
1272,-8.030313,-3.667001,4.554738,0.225867,-0.041386,-0.176387,32.29,62.708766083164
1282,-8.023134,-3.683152,4.579265,0.219911,-0.012523,-0.172111,32.34,62.5837088517719
1292,-8.014161,-3.680161,4.596014,0.21197,0.016799,-0.168599,32.34,62.4731030513657
1302,-8.009974,-3.68375,4.609175,0.201891,0.047189,-0.164323,32.3,62.399749483384
1312,-8.002795,-3.687938,4.610969,0.190895,0.079565,-0.157756,32.3,62.3778587774008
1322,-8.012366,-3.698706,4.615755,0.178831,0.111941,-0.15348,32.29,62.3886745553752
1332,-8.021938,-3.71067,4.625326,0.166308,0.142332,-0.148593,32.29,62.3764532396917
1342,-8.039286,-3.724428,4.621737,0.15348,0.174097,-0.143248,32.32,62.4519013582544
1352,-8.05125,-3.73041,4.6008,0.14111,0.205098,-0.138819,32.32,62.5937572961104
1362,-8.075178,-3.734598,4.590032,0.129351,0.232587,-0.135307,32.34,62.7103056431185
1372,-8.111669,-3.745365,4.575675,0.11805,0.257938,-0.132405,32.34,62.8816400846735
1382,-8.134401,-3.761517,4.548756,0.10797,0.280693,-0.131489,32.36,63.0894627819178
1392,-8.164909,-3.769892,4.52423,0.099266,0.300851,-0.129809,32.36,63.2943224948301
1402,-8.193025,-3.771089,4.492525,0.09163,0.315817,-0.131489,32.31,63.5219044117804
1412,-8.229516,-3.789633,4.459025,0.086285,0.327729,-0.133779,32.31,63.7955183372244
1422,-8.238488,-3.799204,4.421339,0.082467,0.335518,-0.135612,32.34,64.0179488482415
1432,-8.267202,-3.809374,4.364508,0.081551,0.337656,-0.138208,32.34,64.3833330864978
1442,-8.300702,-3.815356,4.322036,0.080787,0.331089,-0.14508,32.33,64.6811741286997
1452,-8.320443,-3.823731,4.290331,0.085674,0.32269,-0.147677,32.35,64.8954965898172
1462,-8.334201,-3.832105,4.265805,0.089492,0.309098,-0.150578,32.35,65.0597243164118
1472,-8.325827,-3.836891,4.231707,0.095295,0.294284,-0.152411,32.34,65.2217593168901
1482,-8.32463,-3.842873,4.21077,0.102014,0.276875,-0.153022,32.34,65.3330856557303
1492,-8.322835,-3.854837,4.188038,0.109498,0.258396,-0.152105,32.34,65.4585142185605
1502,-8.315658,-3.844668,4.153342,0.117592,0.237627,-0.150426,32.34,65.6127762797784
1512,-8.303694,-3.853043,4.145566,0.12538,0.217315,-0.146608,32.37,65.6358854120472
1522,-8.298308,-3.845864,4.132405,0.134543,0.194713,-0.141263,32.37,65.6857075758605
1532,-8.282157,-3.853641,4.106084,0.144317,0.173333,-0.134543,32.35,65.7961407802916
1542,-8.261221,-3.844069,4.101896,0.15348,0.150578,-0.126449,32.35,65.7639281202501
1552,-8.245667,-3.849453,4.101298,0.162643,0.128434,-0.117439,32.32,65.7391980877842
1562,-8.228318,-3.848257,4.088736,0.17318,0.108123,-0.105832,32.32,65.7667272562314
1572,-8.222935,-3.841677,4.085146,0.182496,0.08659,-0.094226,32.34,65.7674663906845
1582,-8.206783,-3.84048,4.085146,0.191506,0.065821,-0.082314,32.34,65.7316481928296
1592,-8.19123,-3.824329,4.069593,0.200211,0.046884,-0.069944,32.36,65.7638775246032
1602,-8.17807,-3.822534,4.101298,0.208916,0.027489,-0.055741,32.36,65.5667321034706
1612,-8.170293,-3.811168,4.103093,0.217621,0.010232,-0.030238,32.31,65.5289134425613
1622,-8.165507,-3.802794,4.124628,0.230907,-0.020769,-0.01741,32.34,65.3966895317317
1632,-8.160124,-3.799204,4.150351,0.237627,-0.033598,-0.004581,32.34,65.2461067316503
1642,-8.170892,-3.782454,4.170092,0.241292,-0.045204,0.005803,32.32,65.1491529345636
1652,-8.169695,-3.775874,4.189833,0.246179,-0.055131,0.015577,32.32,65.0364341072319
1662,-8.182856,-3.761517,4.211368,0.248775,-0.063072,0.024435,32.34,64.9383760327235
1672,-8.19781,-3.75075,4.239483,0.249691,-0.069486,0.031001,32.34,64.8140814411479
1682,-8.196015,-3.735795,4.271787,0.248928,-0.07422,0.03543,32.36,64.6268781562038
1692,-8.213365,-3.731607,4.287939,0.247706,-0.077122,0.038179,32.36,64.5777175302694
1702,-8.222337,-3.719045,4.335197,0.244652,-0.078954,0.039859,32.34,64.3407841128057
1712,-8.246264,-3.70409,4.348955,0.240528,-0.079412,0.039095,32.34,64.3087041794942
1722,-8.248658,-3.704688,4.372285,0.235336,-0.077733,0.036652,32.35,64.1947816559319
1732,-8.26481,-3.69392,4.400999,0.228464,-0.074984,0.033139,32.35,64.0732516864791
1742,-8.27139,-3.681358,4.429713,0.221439,-0.069791,0.027642,32.36,63.9286717999286
1752,-8.291729,-3.678366,4.439284,0.213956,-0.064294,0.020006,32.36,63.9232116355844
1762,-8.285748,-3.664608,4.46381,0.205251,-0.056963,0.011454,32.34,63.7707099330373
1772,-8.282157,-3.656233,4.481159,0.195935,-0.048564,0.002138,32.34,63.6657205471171
1782,-8.291131,-3.644867,4.505685,0.186619,-0.038179,-0.010537,32.34,63.5503430255145
1792,-8.287541,-3.646662,4.514658,0.167988,-0.012981,-0.03711,32.34,63.4983812417595
1802,-8.288139,-3.643671,4.517649,0.158672,0.000305,-0.05284,32.34,63.4815644698038
1812,-8.282157,-3.638287,4.528417,0.148898,0.014813,-0.067806,32.35,63.407667010454
1822,-8.277969,-3.622135,4.526024,0.140652,0.029474,-0.084452,32.35,63.3936050050517
1832,-8.266603,-3.633501,4.520042,0.133321,0.046578,-0.101251,32.33,63.4091016500733
1842,-8.265409,-3.629314,4.51406,0.125991,0.063225,-0.116675,32.33,63.4324115345719
1852,-8.263614,-3.634698,4.510471,0.118508,0.078649,-0.133627,32.33,63.4519641443008
1862,-8.23789,-3.63051,4.49731,0.111788,0.093921,-0.149357,32.33,63.4547908994565
1872,-8.23131,-3.625725,4.481159,0.106596,0.109345,-0.165086,32.32,63.516911690864
1882,-8.219944,-3.628117,4.4674,0.102014,0.1237,-0.178678,32.32,63.563207452322
1892,-8.210373,-3.638885,4.452445,0.096822,0.137292,-0.191506,32.34,63.6285600839415
1902,-8.205587,-3.632305,4.441079,0.094379,0.149051,-0.202502,32.34,63.6689364547134
1912,-8.197212,-3.641278,4.417151,0.091935,0.159894,-0.210138,32.36,63.7816165122067
1922,-8.184649,-3.650251,4.40399,0.089339,0.168599,-0.217315,32.36,63.8295187136158
1932,-8.173284,-3.647858,4.377669,0.087812,0.177151,-0.221286,32.33,63.9365654008753
1942,-8.158329,-3.66401,4.359723,0.087965,0.18387,-0.223424,32.33,64.0115659568396
1952,-8.134999,-3.678366,4.328616,0.088575,0.188757,-0.22266,32.34,64.1341368990041
1962,-8.142776,-3.668197,4.308277,0.090255,0.19563,-0.212123,32.34,64.2472112210521
1972,-8.13141,-3.680759,4.291527,0.096059,0.196851,-0.204029,32.35,64.3214465394201
1982,-8.132606,-3.705286,4.265805,0.099418,0.197309,-0.192881,32.36,64.4837283066818
1992,-8.132008,-3.699304,4.256832,0.103389,0.194866,-0.179289,32.36,64.5230729297098
2002,-8.143971,-3.708875,4.241877,0.109498,0.191964,-0.164934,32.35,64.6381469594414
2012,-8.143971,-3.713661,4.225127,0.115301,0.18723,-0.149051,32.35,64.7306838999156
2022,-8.152946,-3.731009,4.228716,0.12202,0.181885,-0.133627,32.35,64.7498509451406
2032,-8.163115,-3.731607,4.210171,0.128587,0.173791,-0.118508,32.35,64.8701988953335
2042,-8.185248,-3.745365,4.208377,0.135612,0.16585,-0.102014,32.32,64.9428631306779
2052,-8.183454,-3.75733,4.208975,0.142179,0.156229,-0.087201,32.32,64.9479300988884
2062,-8.19781,-3.773481,4.208377,0.148746,0.146913,-0.073457,32.3,64.9992648201727
2072,-8.213962,-3.764508,4.2006,0.154854,0.135918,-0.061545,32.3,65.0663620184587
2082,-8.223534,-3.771687,4.211967,0.160505,0.125227,-0.050244,32.33,65.0354845746997
2092,-8.246264,-3.796811,4.211368,0.166003,0.114079,-0.042608,32.33,65.1138498462581
2102,-8.252247,-3.792624,4.22752,0.168904,0.104458,-0.036652,32.33,65.0389184415147
2112,-8.273185,-3.792624,4.229912,0.171959,0.092852,-0.033292,32.33,65.0723834101264
2122,-8.288737,-3.798606,4.252644,0.174402,0.082467,-0.033292,32.32,64.9949019651642
2132,-8.306684,-3.80399,4.25743,0.175776,0.072388,-0.039401,32.32,65.0148389876576
2142,-8.318647,-3.81057,4.262814,0.173333,0.053145,-0.043982,32.35,65.0197841472004
2152,-8.323434,-3.814758,4.275376,0.170431,0.04444,-0.052687,32.36,64.9698178874768
2162,-8.334201,-3.818347,4.281358,0.167377,0.035888,-0.062156,32.36,64.9661582128226
2172,-8.328219,-3.817749,4.295715,0.162796,0.027336,-0.072998,32.34,64.8788733888271
2182,-8.316854,-3.823133,4.293322,0.158367,0.020159,-0.082925,32.34,64.8717064608951
2193,-8.322237,-3.826123,4.292724,0.153327,0.013439,-0.094379,32.37,64.8895407248575
2202,-8.322237,-3.82074,4.308277,0.147219,0.005498,-0.104458,32.37,64.8044098586677
2212,-8.301898,-3.821936,4.310072,0.142637,0,-0.113163,32.33,64.7517988329229
2222,-8.283952,-3.817749,4.302295,0.137597,-0.006261,-0.121868,32.33,64.7480167678604
2232,-8.28156,-3.820141,4.30409,0.132863,-0.011454,-0.129045,32.33,64.7359558229841
2242,-8.261221,-3.821936,4.307081,0.128893,-0.016035,-0.133627,32.33,64.6775570378499
2252,-8.237292,-3.811767,4.308876,0.126907,-0.020922,-0.135612,32.29,64.6049199953027
2262,-8.23789,-3.809374,4.313661,0.125227,-0.025504,-0.136376,32.29,64.5791442969057
2272,-8.220542,-3.805186,4.31067,0.124769,-0.028253,-0.134238,32.32,64.5516609525542
2282,-8.204989,-3.798606,4.31725,0.124769,-0.030085,-0.130572,32.32,64.4762112304702
2292,-8.185846,-3.808177,4.318447,0.125686,-0.031918,-0.125838,32.34,64.4371316476275
2302,-8.156534,-3.789035,4.335197,0.128129,-0.03207,-0.119271,32.34,64.2646139356457
2312,-8.14457,-3.789035,4.338188,0.133779,-0.027794,-0.102014,32.35,64.2220815409991
2322,-8.142776,-3.778267,4.351348,0.137903,-0.023366,-0.093157,32.32,64.1386216427172
2332,-8.137392,-3.768696,4.362116,0.142179,-0.018326,-0.083383,32.32,64.0606207788644
2342,-8.135597,-3.765106,4.378268,0.145844,-0.010537,-0.074526,32.35,63.9693239797942
2352,-8.134999,-3.762115,4.38425,0.149662,-0.00168,-0.065057,32.35,63.9339249142935
2362,-8.146365,-3.749553,4.395615,0.153327,0.00901,-0.057269,32.32,63.8881066863645
2372,-8.132606,-3.747759,4.407579,0.156382,0.020006,-0.050396,32.32,63.7929620841247
2382,-8.136793,-3.735795,4.408776,0.15913,0.032223,-0.044746,32.31,63.7837648718523
2392,-8.151749,-3.733402,4.432704,0.161116,0.044593,-0.040317,32.31,63.692672836436
2402,-8.154739,-3.725027,4.4339,0.162185,0.058185,-0.037874,32.36,63.6845902012801
2412,-8.151749,-3.721437,4.424329,0.162185,0.071777,-0.036652,32.36,63.7230729598852
2422,-8.161918,-3.711866,4.44407,0.162185,0.085063,-0.035888,32.35,63.6351230154172
2432,-8.164909,-3.712464,4.44407,0.161574,0.098502,-0.036805,32.35,63.6426731363482
2442,-8.17149,-3.705286,4.436892,0.161268,0.11133,-0.038485,32.37,63.6871763951165
2452,-8.179864,-3.705286,4.429713,0.160658,0.123853,-0.040012,32.37,63.7433451127366
2462,-8.179267,-3.701697,4.423133,0.160199,0.134543,-0.044135,32.32,63.7720011525588
2472,-8.188239,-3.70409,4.405785,0.159436,0.144775,-0.048869,32.32,63.8842603906467
2482,-8.185846,-3.705286,4.387838,0.15852,0.162185,-0.056352,32.31,63.9723402570065
2492,-8.179267,-3.70409,4.382454,0.159436,0.169668,-0.059712,32.34,63.9837612031377
2502,-8.196015,-3.69392,4.376472,0.16081,0.175471,-0.062919,32.34,64.0424048281552
2512,-8.203195,-3.692724,4.353143,0.161421,0.179442,-0.066126,32.3,64.1778542853543
2522,-8.196015,-3.70409,4.333402,0.162796,0.182801,-0.068264,32.3,64.2751558201836
2532,-8.204391,-3.696911,4.329813,0.16417,0.186008,-0.069639,32.3,64.3053656007694
2542,-8.193025,-3.69392,4.317849,0.164781,0.186619,-0.069944,32.3,64.3384383142533
2552,-8.203793,-3.693322,4.305884,0.165392,0.18723,-0.070555,32.33,64.4242030549045
2562,-8.213365,-3.694518,4.297509,0.165697,0.186772,-0.070402,32.33,64.4904313153487
2572,-8.215158,-3.698107,4.283153,0.164781,0.184787,-0.070708,32.3,64.5725364780021
2582,-8.23131,-3.703491,4.286742,0.16249,0.182038,-0.069486,32.3,64.595653626123
2592,-8.223534,-3.699304,4.272385,0.159894,0.177915,-0.06918,32.33,64.6484207059791
2602,-8.246264,-3.698706,4.260421,0.156687,0.173333,-0.067806,32.33,64.7607272437985
2612,-8.255836,-3.691527,4.25085,0.152564,0.166461,-0.066584,32.36,64.8245501649683
2622,-8.271988,-3.705884,4.246662,0.147371,0.15852,-0.064904,32.36,64.8964246361863
2632,-8.28455,-3.709473,4.24068,0.141263,0.148288,-0.064294,32.3,64.9587783478202
2642,-8.295916,-3.702893,4.218546,0.135154,0.136681,-0.065363,32.3,65.0921082855932
2652,-8.330013,-3.705286,4.217948,0.12874,0.122784,-0.064294,32.33,65.1723574805687
2662,-8.3348,-3.699304,4.199404,0.11637,0.091477,-0.065363,32.33,65.2730711298416
2672,-8.337791,-3.71067,4.186841,0.110719,0.07254,-0.066584,32.33,65.3557286995893
2682,-8.344969,-3.707081,4.191627,0.105069,0.052687,-0.06857,32.33,65.3430511124947
2692,-8.359326,-3.706482,4.189234,0.101556,0.032376,-0.071319,32.33,65.386048093265
2702,-8.36471,-3.71067,4.185645,0.097891,0.010996,-0.074831,32.31,65.4203251126697
2712,-8.36112,-3.71725,4.197609,0.095448,-0.010843,-0.078954,32.31,65.3569585237943
2722,-8.362915,-3.713661,4.205386,0.094531,-0.031001,-0.083689,32.32,65.3171756694674
2732,-8.343773,-3.725027,4.214957,0.094226,-0.050091,-0.087965,32.32,65.2370729982193
2742,-8.327621,-3.725027,4.224528,0.096517,-0.067501,-0.094684,32.33,65.1523399446745
2752,-8.323434,-3.720839,4.241278,0.099266,-0.083536,-0.101862,32.33,65.0524890115185
2762,-8.328817,-3.728018,4.248456,0.102778,-0.096669,-0.10797,32.3,65.0342781403883
2772,-8.30788,-3.733402,4.27717,0.107054,-0.10736,-0.115759,32.3,64.8454404054625
2782,-8.285748,-3.721437,4.303492,0.112552,-0.113621,-0.12202,32.35,64.6488229999912
2792,-8.255239,-3.736991,4.325625,0.117897,-0.116981,-0.129351,32.35,64.4823624680902
2802,-8.239087,-3.731009,4.342973,0.122631,-0.116828,-0.137292,32.34,64.350690353949
2812,-8.210971,-3.737589,4.376472,0.12874,-0.112399,-0.142026,32.34,64.1215423661547
2822,-8.173284,-3.738187,4.421339,0.13439,-0.104305,-0.146455,32.35,63.8056414658262
2832,-8.145168,-3.739982,4.445267,0.14279,-0.077122,-0.154702,32.33,63.6199552610124
2842,-8.124829,-3.743571,4.457829,0.146302,-0.059407,-0.157298,32.33,63.5121979237825
2852,-8.097312,-3.732804,4.47398,0.149051,-0.03879,-0.157603,32.32,63.3536111846152
2862,-8.082954,-3.735196,4.493123,0.151036,-0.016341,-0.156229,32.32,63.2243155396508
2872,-8.063214,-3.742973,4.498507,0.1518,0.008247,-0.15348,32.37,63.1587348350111
2882,-8.05783,-3.738187,4.511667,0.151342,0.034514,-0.150426,32.37,63.0732932770422
2892,-8.060822,-3.745964,4.525426,0.150426,0.060476,-0.145691,32.34,63.0184051005309
2902,-8.053044,-3.735795,4.515256,0.148288,0.085979,-0.139735,32.34,63.0409521263546
2912,-8.060822,-3.750151,4.508676,0.144317,0.111788,-0.133016,32.28,63.1088042842551
2922,-8.053044,-3.74716,4.509274,0.139735,0.135612,-0.124922,32.28,63.0841077578043
2932,-8.066804,-3.750151,4.488935,0.135307,0.156992,-0.117592,32.32,63.2241494345917
2942,-8.084151,-3.761517,4.464409,0.130572,0.176387,-0.109345,32.32,63.403085004218
2952,-8.088339,-3.768098,4.453043,0.124922,0.193492,-0.102014,32.31,63.4783881782094
2962,-8.10808,-3.77049,4.432704,0.119271,0.207389,-0.09331,32.31,63.6313321637553
2972,-8.139186,-3.777669,4.404588,0.11469,0.218842,-0.085674,32.29,63.8552426467884
2982,-8.155936,-3.769294,4.378866,0.109498,0.226173,-0.078649,32.29,64.0171066569054
2992,-8.19781,-3.790231,4.324429,0.106443,0.230143,-0.071624,32.33,64.4144092993574
3002,-8.233703,-3.786044,4.299902,0.102931,0.228158,-0.061697,32.33,64.6168493761215
3012,-8.253444,-3.79382,4.285545,0.100335,0.222813,-0.057574,32.3,64.7426474559124
3022,-8.255836,-3.796811,4.258028,0.100945,0.21365,-0.054062,32.36,64.8930741747961
3032,-8.282756,-3.802794,4.238287,0.10232,0.201891,-0.05284,32.36,65.0601792286887
3043,-8.305488,-3.786044,4.232305,0.104763,0.187536,-0.052382,32.33,65.1239737458593
3052,-8.316256,-3.802195,4.206582,0.106749,0.171195,-0.052076,32.33,65.2963298550584
3062,-8.327023,-3.802195,4.198207,0.111483,0.154549,-0.051618,32.37,65.3629023852468
3072,-8.322835,-3.809374,4.2006,0.11637,0.136223,-0.052534,32.37,65.3485732135501
3082,-8.333604,-3.798606,4.182056,0.123242,0.118202,-0.053298,32.32,65.4571172150129
3092,-8.333005,-3.789035,4.186841,0.129962,0.099876,-0.055741,32.32,65.4216768876894
3102,-8.3348,-3.794419,4.186841,0.135459,0.081092,-0.056963,32.36,65.4308205652597
3112,-8.324032,-3.789633,4.19402,0.14111,0.063225,-0.058185,32.36,65.3657431988768
3122,-8.320443,-3.786044,4.205984,0.146302,0.047037,-0.060628,32.35,65.2925389223908
3132,-8.325827,-3.783651,4.208975,0.151342,0.03207,-0.062614,32.35,65.2863772034852
3142,-8.306085,-3.772883,4.225725,0.155771,0.018784,-0.06353,32.31,65.1462282241521
3152,-8.277969,-3.790829,4.233501,0.159741,0.006872,-0.06521,32.31,65.0624732401482
3162,-8.273185,-3.767499,4.269992,0.162032,-0.003207,-0.066432,32.31,64.8399316017954
3172,-8.236693,-3.753741,4.271787,0.164475,-0.011759,-0.066737,32.31,64.7359306044593
3182,-8.212766,-3.755535,4.286742,0.168141,-0.022449,-0.063988,32.35,64.6069913222491
3192,-8.190034,-3.74716,4.295715,0.167988,-0.026573,-0.063988,32.34,64.5009687286675
3202,-8.172088,-3.746562,4.293921,0.168293,-0.028253,-0.061239,32.34,64.4692694227267
3212,-8.155936,-3.743571,4.299902,0.168141,-0.028711,-0.058338,32.3,64.3986679513851
3222,-8.130812,-3.736392,4.307679,0.168141,-0.026114,-0.054672,32.3,64.2938179304071
3232,-8.113463,-3.72383,4.318447,0.168293,-0.022755,-0.050855,32.31,64.1851127598728
3242,-8.105088,-3.725625,4.32742,0.168141,-0.017562,-0.044899,32.31,64.1211664190082
3252,-8.108678,-3.719045,4.341179,0.167835,-0.011606,-0.040623,32.32,64.0509772303389
3262,-8.09791,-3.713661,4.336991,0.168446,-0.004123,-0.033598,32.32,64.0423083293241
3272,-8.105686,-3.695116,4.339384,0.169515,0.003818,-0.026267,32.34,64.0282483941018
3282,-8.109276,-3.698107,4.35075,0.170279,0.010996,-0.020464,32.34,63.9806213978767
3292,-8.121839,-3.695116,4.353741,0.171348,0.018784,-0.014813,32.3,63.990914173017
3302,-8.117052,-3.679563,4.351348,0.172569,0.025962,-0.010537,32.3,63.9760046726987
3312,-8.133204,-3.686144,4.359125,0.173028,0.03375,-0.007025,32.32,63.9797992411115
3322,-8.160124,-3.685545,4.374678,0.172722,0.040164,-0.004123,32.32,63.9606800705435
3332,-8.180463,-3.671786,4.383651,0.171806,0.046578,-0.004123,32.31,63.9468996829695
3342,-8.232506,-3.656831,4.395017,0.170584,0.052687,-0.003818,32.31,63.9925293084223
3352,-8.274381,-3.664608,4.409374,0.16585,0.064446,-0.01237,32.3,64.0224914318534
3362,-8.295319,-3.659822,4.422534,0.161268,0.06857,-0.020464,32.32,63.9981273763339
3372,-8.316854,-3.66042,4.426722,0.156076,0.07254,-0.029627,32.32,64.0263623661156
3382,-8.323434,-3.64726,4.430909,0.149967,0.075136,-0.041081,32.34,64.0068502539353
3392,-8.350951,-3.650251,4.439284,0.143095,0.077274,-0.055131,32.34,64.0297159140267
3402,-8.370691,-3.659224,4.448257,0.135154,0.079871,-0.071471,32.3,64.0377651555694
3412,-8.358727,-3.650251,4.447659,0.12706,0.081551,-0.088881,32.3,64.0048218936043
3422,-8.382057,-3.65384,4.45065,0.11805,0.082772,-0.106596,32.32,64.0460233900087
3432,-8.367103,-3.658626,4.453043,0.108887,0.084147,-0.124617,32.32,64.0047910398237
3442,-8.364112,-3.664608,4.447659,0.098655,0.085216,-0.14279,32.32,64.0312448950622
3452,-8.350951,-3.661617,4.447061,0.090255,0.087048,-0.159589,32.32,64.0015023420514
3462,-8.322237,-3.665206,4.43749,0.081551,0.089492,-0.175929,32.34,63.9885477510186
3472,-8.303095,-3.67418,4.426124,0.074067,0.093004,-0.189215,32.34,64.0119423704271
3482,-8.273782,-3.681956,4.418347,0.066279,0.096975,-0.200364,32.34,63.9927930530928
3492,-8.255836,-3.683152,4.408776,0.060476,0.102167,-0.208305,32.34,64.0020640182232
3502,-8.218149,-3.698107,4.393223,0.055131,0.107665,-0.214414,32.34,64.0111165262433
3512,-8.149954,-3.712464,4.354938,0.052993,0.113926,-0.215483,32.34,64.0674183999517
3522,-8.134401,-3.705884,4.344768,0.050702,0.12706,-0.211359,32.32,64.0775849100619
3532,-8.111669,-3.725027,4.33041,0.051924,0.133321,-0.204029,32.32,64.1200747867188
3542,-8.099705,-3.728018,4.295715,0.05452,0.138819,-0.195171,32.32,64.2764719760275
3552,-8.085348,-3.741179,4.287939,0.059101,0.144164,-0.182954,32.32,64.2981510543528
3562,-8.082357,-3.744768,4.27717,0.064599,0.147982,-0.169362,32.32,64.351382411241
3572,-8.075776,-3.753741,4.25743,0.071777,0.150578,-0.154243,32.3,64.4491652992335
3582,-8.07458,-3.765705,4.246064,0.080329,0.151342,-0.138514,32.3,64.5186247229438
3592,-8.102695,-3.768696,4.21735,0.088881,0.15012,-0.122173,32.34,64.735649685634
3602,-8.102695,-3.783651,4.209573,0.097128,0.147371,-0.106901,32.34,64.7920496229014
3612,-8.121839,-3.789035,4.200002,0.106443,0.142179,-0.09163,32.32,64.8905636222281
3622,-8.130812,-3.786044,4.186841,0.116217,0.135154,-0.077885,32.32,64.9764207841642
3632,-8.16132,-3.79382,4.182056,0.126296,0.126907,-0.063988,32.34,65.077013289587
3642,-8.164909,-3.802195,4.17069,0.135154,0.114995,-0.052534,32.34,65.153023582639
3652,-8.190632,-3.79382,4.172484,0.143706,0.102778,-0.042302,32.32,65.1915851722107
3662,-8.217552,-3.806383,4.169494,0.1518,0.088881,-0.032987,32.32,65.2788142798946
3672,-8.244471,-3.809972,4.173083,0.159894,0.073609,-0.025045,32.32,65.322307284342
3682,-8.246264,-3.800999,4.192225,0.166613,0.058185,-0.017868,32.32,65.2175598457267
3692,-8.264212,-3.804588,4.207779,0.172264,0.041997,-0.010232,32.34,65.1794976424074
3702,-8.291729,-3.80399,4.21735,0.180511,0.01069,-0.007941,32.31,65.1892117666398
3712,-8.296515,-3.804588,4.25743,0.182954,-0.00336,-0.007025,32.31,64.9932236761265
3722,-8.313862,-3.805784,4.266403,0.182954,-0.016188,-0.007483,32.34,64.9860990708559
3732,-8.322237,-3.806383,4.28076,0.182496,-0.0281,-0.010385,32.34,64.9311754670256
3742,-8.312068,-3.808775,4.298706,0.180358,-0.036041,-0.013439,32.38,64.819165770565
3752,-8.313264,-3.795017,4.317849,0.177151,-0.044593,-0.017715,32.38,64.7097821711096
3762,-8.306085,-3.801597,4.334598,0.173333,-0.050091,-0.022755,32.34,64.6147834070813
3772,-8.318647,-3.783651,4.35075,0.168141,-0.054214,-0.029932,32.34,64.5418353601861
3782,-8.297112,-3.796811,4.366303,0.161116,-0.056505,-0.036346,32.34,64.4278910091128
3792,-8.290532,-3.786044,4.377071,0.154702,-0.057574,-0.044899,32.34,64.3472597043538
3802,-8.283952,-3.775874,4.387838,0.147677,-0.055589,-0.052534,32.3,64.2671803490396
3812,-8.271988,-3.78066,4.404588,0.141721,-0.053145,-0.059865,32.3,64.1597284659004
3822,-8.257033,-3.771687,4.414758,0.135459,-0.049175,-0.067806,32.34,64.0648967812651
3832,-8.251051,-3.768098,4.421937,0.129351,-0.043371,-0.074526,32.34,64.0110263270217
3842,-8.216953,-3.768696,4.424329,0.123395,-0.035888,-0.08094,32.34,63.9220621572312
3852,-8.207382,-3.753142,4.433302,0.117286,-0.027794,-0.086285,32.34,63.838116267047
3862,-8.179267,-3.746562,4.439882,0.11301,-0.018021,-0.08995,32.35,63.7331186277095
3872,-8.167302,-3.735196,4.43749,0.105985,0.003054,-0.095448,32.35,63.7058750033646
3882,-8.163713,-3.733402,4.435695,0.104916,0.016035,-0.096669,32.35,63.7049189969716
3892,-8.140383,-3.731009,4.434498,0.103694,0.028405,-0.097586,32.27,63.6546607067415
3902,-8.124829,-3.716652,4.4339,0.103084,0.041539,-0.097128,32.27,63.6064507143738
3912,-8.132008,-3.71725,4.428516,0.103236,0.054214,-0.096364,32.32,63.6514446559401
3922,-8.12782,-3.710072,4.421339,0.104305,0.067501,-0.094684,32.32,63.6710840138646
3932,-8.118848,-3.706482,4.429713,0.106443,0.080176,-0.092546,32.32,63.6033067042437
3942,-8.125427,-3.698107,4.405187,0.109498,0.093157,-0.089644,32.32,63.7361761012464
3952,-8.113463,-3.696313,4.415954,0.113163,0.105069,-0.087048,32.35,63.6509325882162
3962,-8.126624,-3.691527,4.408776,0.116523,0.116981,-0.083383,32.35,63.7134914384669
3972,-8.127223,-3.692126,4.400401,0.120799,0.128282,-0.080329,32.34,63.7587431034749
3982,-8.134401,-3.683152,4.396811,0.124006,0.137903,-0.076358,32.34,63.7844833905794
3992,-8.143373,-3.681358,4.397409,0.128282,0.147524,-0.074067,32.32,63.8002903613098
4002,-8.154739,-3.686741,4.38066,0.131947,0.157145,-0.069486,32.32,63.9186295345852
4012,-8.169096,-3.681358,4.375875,0.134848,0.16417,-0.06689,32.31,63.970785763471
4022,-8.162517,-3.671188,4.372883,0.137903,0.170126,-0.063377,32.31,63.9605695829228
4032,-8.191828,-3.676572,4.352544,0.140194,0.175471,-0.060781,32.31,64.1384574842836
4042,-8.200802,-3.676572,4.347161,0.144011,0.181885,-0.054978,32.31,64.1867548169142
4052,-8.201998,-3.668795,4.341777,0.144317,0.182801,-0.052534,32.36,64.2093652275509
4062,-8.218747,-3.675974,4.329215,0.145539,0.183107,-0.04948,32.33,64.319700582197
4072,-8.237292,-3.680759,4.318447,0.14447,0.182343,-0.047342,32.33,64.4221621486004
4082,-8.250452,-3.687938,4.311268,0.144011,0.179594,-0.045509,32.33,64.496134770426
4092,-8.245667,-3.678965,4.3005,0.142942,0.175624,-0.04444,32.33,64.5320102599949
4102,-8.261221,-3.681956,4.289733,0.140499,0.170737,-0.043524,32.31,64.6256097348688
4112,-8.258827,-3.682554,4.277769,0.137903,0.165392,-0.042608,32.31,64.6827548161366
4122,-8.283354,-3.69392,4.265805,0.134848,0.158672,-0.043982,32.32,64.8106550171554
4132,-8.287541,-3.708875,4.265206,0.1321,0.149662,-0.045357,32.32,64.8378723220107
4142,-8.289336,-3.705884,4.26401,0.128129,0.139735,-0.047189,32.32,64.8450686479788
4152,-8.309675,-3.711268,4.256233,0.123395,0.129809,-0.052076,32.32,64.9355521078077
4162,-8.320443,-3.711866,4.242475,0.120188,0.118661,-0.054367,32.32,65.0309365749563
4172,-8.316854,-3.723232,4.237689,0.116981,0.105985,-0.06017,32.32,65.0589480028946
4182,-8.333005,-3.732804,4.241877,0.113621,0.092393,-0.065973,32.35,65.0820988623677
4192,-8.330612,-3.726821,4.234099,0.110261,0.078802,-0.073151,32.35,65.1111653008769
4202,-8.333005,-3.728616,4.228716,0.107207,0.063835,-0.078802,32.32,65.1459658013809
4212,-8.338388,-3.743571,4.221537,0.104458,0.034514,-0.093004,32.32,65.2094167872348
4222,-8.327023,-3.739982,4.221537,0.099571,0.019395,-0.099876,32.33,65.1811389845008
4232,-8.317451,-3.745964,4.218546,0.097891,0.004734,-0.105985,32.32,65.1815972549523
4242,-8.319246,-3.739982,4.234099,0.097738,-0.010079,-0.112094,32.32,65.0992107528631
4252,-8.308478,-3.75075,4.212564,0.097586,-0.023518,-0.115148,32.33,65.1976972152865
4262,-8.292925,-3.75075,4.228117,0.098349,-0.037415,-0.119424,32.33,65.083149717336
4272,-8.287541,-3.753142,4.237091,0.099266,-0.050396,-0.121562,32.35,65.0272603592633
4282,-8.262416,-3.748357,4.240082,0.100793,-0.06185,-0.121868,32.35,64.9517033349946
4292,-8.263015,-3.757928,4.255635,0.103084,-0.07254,-0.122937,32.32,64.8820741418263
4302,-8.242078,-3.75733,4.261019,0.104611,-0.081398,-0.120646,32.32,64.8072742832686
4312,-8.243275,-3.745365,4.28076,0.107054,-0.089492,-0.118202,32.35,64.6956643002335
4322,-8.218149,-3.75075,4.297509,0.109956,-0.095448,-0.114995,32.35,64.5584239175172
4332,-8.202596,-3.742374,4.311268,0.111788,-0.099266,-0.112094,32.33,64.4437780333019
4342,-8.2014,-3.747759,4.324429,0.114232,-0.101251,-0.107665,32.33,64.3785910670001
4352,-8.195418,-3.746562,4.338188,0.116523,-0.100487,-0.102625,32.34,64.2928060052842
4362,-8.175676,-3.745365,4.366303,0.118966,-0.097891,-0.097433,32.34,64.1017460793059
4372,-8.161918,-3.74058,4.411767,0.120799,-0.093004,-0.093615,32.32,63.8312256965397
4382,-8.148758,-3.742973,4.420142,0.123547,-0.085521,-0.084758,32.32,63.7604389652379
4392,-8.143971,-3.742973,4.433302,0.124158,-0.063835,-0.081398,32.27,63.6817839916278
4402,-8.130812,-3.732205,4.46381,0.126144,-0.049633,-0.077885,32.37,63.4832764507472
4412,-8.115258,-3.735795,4.484748,0.126602,-0.033292,-0.075442,32.37,63.3435636409479
4422,-8.117052,-3.735795,4.489533,0.12706,-0.01573,-0.074067,32.33,63.3232504874399
4432,-8.115856,-3.741776,4.49731,0.127365,0.00336,-0.073151,32.33,63.2870942867754
4442,-8.116454,-3.731009,4.504489,0.12706,0.024435,-0.073457,32.34,63.240174783771
4452,-8.116454,-3.738187,4.50748,0.12706,0.045662,-0.075289,32.34,63.2326196382614
4462,-8.112864,-3.742374,4.511667,0.126907,0.067959,-0.076358,32.36,63.2073328431744
4472,-8.112267,-3.742973,4.512266,0.125227,0.08995,-0.078496,32.36,63.2035207062404
4482,-8.124829,-3.736392,4.502096,0.124311,0.112246,-0.079107,32.33,63.2778027229088
4492,-8.121839,-3.744169,4.49731,0.123547,0.133627,-0.081245,32.33,63.3036514331502
4502,-8.134401,-3.739982,4.49073,0.122173,0.154549,-0.08491,32.32,63.3621040844694
4512,-8.137392,-3.752544,4.482355,0.120493,0.17318,-0.086896,32.32,63.4253488641083
4522,-8.143373,-3.75075,4.457829,0.118508,0.191354,-0.087659,32.33,63.562849845283
4532,-8.163115,-3.74716,4.450052,0.116981,0.207236,-0.089644,32.33,63.6444819758112
4542,-8.178668,-3.745365,4.427918,0.115454,0.220828,-0.089797,32.3,63.7917906142476
4552,-8.190034,-3.753741,4.38724,0.112552,0.230296,-0.089186,32.3,64.0353681354944
4562,-8.19781,-3.754937,4.370491,0.109345,0.242514,-0.088117,32.32,64.1404172412209
4572,-8.209774,-3.744169,4.345366,0.107054,0.244041,-0.086132,32.31,64.2857461594464
4582,-8.233105,-3.760919,4.320241,0.106138,0.242514,-0.082772,32.31,64.4849102523205
4592,-8.237292,-3.756732,4.292724,0.105374,0.238085,-0.078954,32.3,64.6320155632569
4602,-8.238488,-3.75733,4.268198,0.104763,0.230143,-0.074373,32.3,64.7621344957571
4612,-8.247462,-3.762714,4.246662,0.103389,0.220675,-0.068722,32.3,64.899007556291
4622,-8.259426,-3.76391,4.22094,0.104,0.208152,-0.063377,32.3,65.0599686337961
4632,-8.277969,-3.765106,4.204788,0.104916,0.194102,-0.057116,32.32,65.1856141682299
4642,-8.276175,-3.75733,4.195216,0.105374,0.177915,-0.050855,32.32,65.2236908505445
4653,-8.268398,-3.756732,4.175476,0.107818,0.159589,-0.045357,32.35,65.3088224256309
4662,-8.283354,-3.757928,4.175476,0.108887,0.139735,-0.040012,32.35,65.3425707864123
4672,-8.29472,-3.763312,4.15394,0.111483,0.119424,-0.035277,32.31,65.4846142196242
4682,-8.300103,-3.754339,4.155735,0.114232,0.099418,-0.030085,32.31,65.4781196133026
4692,-8.307282,-3.749553,4.156931,0.116981,0.078802,-0.027184,32.29,65.4827480671756
4702,-8.307282,-3.744169,4.164708,0.120646,0.057879,-0.025045,32.29,65.4370291906089
4712,-8.313264,-3.742973,4.174279,0.123547,0.038332,-0.023213,32.32,65.3990775953688
4722,-8.303694,-3.733402,4.18086,0.126144,0.019853,-0.023824,32.32,65.3347293324404
4732,-8.301898,-3.731009,4.198806,0.128893,-0.013744,-0.025504,32.36,65.2352594497385
4742,-8.287541,-3.739383,4.209573,0.133474,-0.028253,-0.028253,32.35,65.1562281297432
4752,-8.285149,-3.731009,4.232305,0.135918,-0.040012,-0.030391,32.35,65.0248158008286
4762,-8.275578,-3.732205,4.245465,0.136834,-0.050091,-0.03543,32.34,64.936737542734
4772,-8.258228,-3.722634,4.271787,0.138056,-0.057421,-0.038943,32.34,64.7524663298526
4782,-8.252247,-3.714857,4.289733,0.139735,-0.062614,-0.043524,32.37,64.6385043837724
4792,-8.250452,-3.708875,4.301099,0.13943,-0.065363,-0.047647,32.37,64.5697298353401
4802,-8.230114,-3.712464,4.322036,0.138972,-0.065515,-0.052076,32.36,64.4195402354713
4812,-8.216953,-3.707679,4.331607,0.139277,-0.064446,-0.056505,32.36,64.3355427857599
4822,-8.200802,-3.713661,4.349553,0.137903,-0.062156,-0.059559,32.36,64.2124347077914
4832,-8.195418,-3.699902,4.365107,0.138056,-0.057574,-0.062156,32.36,64.1057852832059
4842,-8.190632,-3.70409,4.37408,0.137445,-0.051618,-0.066126,32.36,64.0529212066434
4852,-8.173882,-3.695116,4.377071,0.135612,-0.044593,-0.067042,32.36,63.9898628299884
4862,-8.181659,-3.691527,4.386044,0.13607,-0.036805,-0.067653,32.34,63.9577237894317
4872,-8.177471,-3.689733,4.391428,0.135154,-0.028253,-0.069333,32.34,63.9185039523251
4882,-8.170892,-3.681358,4.394419,0.134696,-0.020006,-0.070097,32.36,63.8792593440234
4892,-8.168499,-3.688536,4.393821,0.134543,-0.010843,-0.068417,32.36,63.8842870802281
4902,-8.175676,-3.685545,4.403392,0.133474,-0.003054,-0.069028,32.36,63.8484116710029
4912,-8.177471,-3.692724,4.399205,0.132863,0.013744,-0.067501,32.34,63.8815564114332
4922,-8.191828,-3.697509,4.40399,0.132252,0.021533,-0.067042,32.34,63.8948998991606
4932,-8.2014,-3.68734,4.405187,0.131183,0.028253,-0.067042,32.3,63.9002068810433
4942,-8.205587,-3.684947,4.406981,0.129656,0.034208,-0.067959,32.3,63.8981341020627
4952,-8.224131,-3.68375,4.408776,0.127976,0.040317,-0.069486,32.35,63.9302134411134
4962,-8.219944,-3.675375,4.408178,0.126296,0.045509,-0.071777,32.35,63.9150924460058
4972,-8.23789,-3.68734,4.404588,0.123089,0.050396,-0.074526,32.32,63.9868383249676
4982,-8.243872,-3.683152,4.405187,0.120188,0.055283,-0.077427,32.32,63.9931508034201
4992,-8.251051,-3.684947,4.420142,0.115301,0.058948,-0.084147,32.33,63.9347961673016
5002,-8.260622,-3.69392,4.414758,0.10965,0.063225,-0.090255,32.33,63.9933217280751
5012,-8.270193,-3.693322,4.41416,0.104916,0.067806,-0.096517,32.37,64.0175572355344
5022,-8.272586,-3.686144,4.422534,0.098502,0.072082,-0.104763,32.37,63.9729243055509
5032,-8.277372,-3.69392,4.436294,0.092393,0.075747,-0.112857,32.33,63.9215031341072
5044,-8.263614,-3.699304,4.439284,0.085674,0.080481,-0.12034,32.33,63.8803570641487
5052,-8.263614,-3.699304,4.439284,0.078343,0.085216,-0.128587,32.29,63.8803570641487
5062,-8.252247,-3.7005,4.441079,0.072082,0.090255,-0.13607,32.29,63.8464462717541
5072,-8.243275,-3.725027,4.42732,0.065515,0.097128,-0.143248,32.34,63.9214390625218
5082,-8.23131,-3.72383,4.424329,0.054062,0.109956,-0.155771,32.34,63.9082080369028
5092,-8.222337,-3.734,4.411169,0.049786,0.11637,-0.160505,32.34,63.9656220271073
5102,-8.215158,-3.74058,4.402196,0.045968,0.123547,-0.163712,32.33,64.0020757579737
5112,-8.188837,-3.739982,4.383651,0.04383,0.13042,-0.164781,32.33,64.0367641050764
5122,-8.182856,-3.74716,4.369893,0.041997,0.137292,-0.164017,32.35,64.1014495381551
5132,-8.158927,-3.762115,4.353143,0.043524,0.143553,-0.160199,32.35,64.1490728248612
5142,-8.145168,-3.758526,4.336991,0.045357,0.149509,-0.15516,32.33,64.197562407977
5152,-8.139785,-3.763312,4.317849,0.048717,0.153938,-0.148898,32.33,64.28955312604
5162,-8.130214,-3.775874,4.289733,0.053756,0.156992,-0.140041,32.33,64.4270960891635
5172,-8.114061,-3.789035,4.277769,0.060934,0.15913,-0.127976,32.33,64.4667552780135
5182,-8.117651,-3.787838,4.253242,0.069639,0.160658,-0.115454,32.34,64.601470322913
5192,-8.097312,-3.78724,4.238287,0.078343,0.159436,-0.101556,32.34,64.6333078809077
5202,-8.112864,-3.802794,4.222135,0.088575,0.157145,-0.086437,32.36,64.7689818812102
5212,-8.113463,-3.798008,4.215555,0.099571,0.1518,-0.070555,32.36,64.7997577251384
5222,-8.120044,-3.812365,4.185645,0.110414,0.145386,-0.05452,32.3,64.9861065772582
5232,-8.133204,-3.802195,4.17727,0.121409,0.13775,-0.039095,32.3,65.0486201961006
5242,-8.150552,-3.809972,4.1671,0.132405,0.126755,-0.024435,32.34,65.1482410262793
5252,-8.185248,-3.809374,4.161717,0.142637,0.103694,0.003818,32.34,65.2519436583487
5262,-8.206783,-3.809972,4.156931,0.160658,0.089186,0.01405,32.32,65.3246022954363
5272,-8.220542,-3.802794,4.177869,0.168599,0.073915,0.024282,32.35,65.2380123041776
5282,-8.248658,-3.79382,4.178466,0.175013,0.058032,0.031001,32.35,65.287181925346
5292,-8.278568,-3.798606,4.188038,0.180205,0.042302,0.035125,32.31,65.3072008749829
5302,-8.303694,-3.792624,4.197609,0.184176,0.025656,0.038332,32.31,65.306105308463
5312,-8.313264,-3.796213,4.212564,0.185398,0.008858,0.03711,32.35,65.2529965247994
5322,-8.337791,-3.784847,4.23051,0.185398,-0.006872,0.033903,32.35,65.202299037453
5332,-8.346764,-3.769294,4.251448,0.184481,-0.021075,0.028863,32.3,65.0986286069711
5342,-8.349156,-3.769892,4.272983,0.182343,-0.03543,0.021686,32.3,64.9937028175316
5352,-8.357532,-3.759125,4.296313,0.178678,-0.0478,0.012981,32.34,64.8816996411737
5362,-8.367702,-3.75075,4.319045,0.172875,-0.058948,0.001985,32.34,64.7793852457924
5372,-8.359326,-3.748955,4.34058,0.166308,-0.068264,-0.009621,32.36,64.6491026815996
5382,-8.356933,-3.729812,4.35075,0.158978,-0.074678,-0.021991,32.36,64.5729208208558
5392,-8.34796,-3.736392,4.371687,0.150578,-0.079412,-0.035583,32.3,64.4526815081964
5402,-8.335398,-3.725027,4.391428,0.141263,-0.081245,-0.0478,32.3,64.3126681609648
5412,-8.318049,-3.720839,4.435097,0.131489,-0.082009,-0.060781,32.31,64.0471758956915
5422,-8.279764,-3.705286,4.450052,0.122784,-0.078954,-0.083383,32.31,63.8684324257404
5432,-8.260024,-3.704688,4.46381,0.103542,-0.066279,-0.092393,32.3,63.7526671742995
5442,-8.236095,-3.702295,4.46381,0.094073,-0.056505,-0.099266,32.31,63.6952891191518
5452,-8.215756,-3.68734,4.470391,0.086437,-0.044746,-0.106291,32.31,63.5993380947185
5462,-8.172686,-3.690331,4.473382,0.078343,-0.030849,-0.11133,32.32,63.4872972468103
5472,-8.158927,-3.68375,4.475775,0.072235,-0.016188,-0.113926,32.32,63.4360722758808
5482,-8.137392,-3.671188,4.481757,0.067042,-0.000153,-0.115454,32.34,63.3417790145895
5492,-8.120642,-3.672983,4.466802,0.063072,0.016952,-0.115606,32.34,63.3811357092584
5502,-8.105088,-3.672983,4.46082,0.061239,0.035888,-0.113316,32.31,63.3753754083517
5512,-8.100304,-3.675974,4.46082,0.060628,0.053145,-0.111788,32.31,63.3673207925
5522,-8.094321,-3.676572,4.455436,0.060934,0.071319,-0.107818,32.34,63.3816184823913
5532,-8.092526,-3.662813,4.432704,0.062919,0.088117,-0.103694,32.34,63.4799900005302
5542,-8.090732,-3.667001,4.42732,0.065668,0.103847,-0.098502,32.31,63.5080419151714
5552,-8.07458,-3.680161,4.402196,0.07025,0.118508,-0.094073,32.31,63.6142136465286
5562,-8.081161,-3.676572,4.401597,0.075595,0.132405,-0.087812,32.32,63.6288842633283
5572,-8.096116,-3.686144,4.385446,0.081398,0.143706,-0.082161,32.32,63.7575803935767
5582,-8.115258,-3.680161,4.351348,0.08827,0.15348,-0.078343,32.36,63.9724886774702
5592,-8.142776,-3.668197,4.325027,0.095142,0.161268,-0.072082,32.36,64.1601022557281
5602,-8.161918,-3.688536,4.322036,0.108581,0.171195,-0.062766,32.31,64.2404306938842
5612,-8.167302,-3.686741,4.302894,0.115759,0.173028,-0.059254,32.34,64.3502399370114
5622,-8.203195,-3.692724,4.305884,0.122784,0.172264,-0.056352,32.34,64.422241881961
5632,-8.210971,-3.699902,4.282554,0.127518,0.169821,-0.054062,32.34,64.5680452051137
5642,-8.223534,-3.689733,4.281358,0.133016,0.16585,-0.051007,32.34,64.5922172705732
5652,-8.245069,-3.693322,4.27059,0.136528,0.159283,-0.050244,32.32,64.6999384182208
5662,-8.257033,-3.695715,4.268198,0.138972,0.151647,-0.049938,32.32,64.7414492396324
5672,-8.272586,-3.692724,4.26401,0.140804,0.141873,-0.050855,32.33,64.7948133151543
5682,-8.288139,-3.707679,4.26401,0.140499,0.131489,-0.050396,32.33,64.8441948096336
5692,-8.30788,-3.719045,4.253242,0.139735,0.120035,-0.052534,32.3,64.9547133273542
5702,-8.31446,-3.720839,4.271188,0.136987,0.108276,-0.054672,32.3,64.8783669686498
5712,-8.321639,-3.728616,4.265805,0.133016,0.096059,-0.057421,32.32,64.9296160129562
5722,-8.319246,-3.728616,4.271188,0.128893,0.083383,-0.059865,32.32,64.8966006898169
5732,-8.33121,-3.731607,4.273581,0.123242,0.071319,-0.063072,32.32,64.9135625672584
5742,-8.328219,-3.742374,4.271188,0.116675,0.05849,-0.067195,32.32,64.9299260525613
5752,-8.319246,-3.743571,4.278367,0.109192,0.046884,-0.070708,32.36,64.8744148957019
5762,-8.306684,-3.751348,4.278367,0.10232,0.036499,-0.074373,32.36,64.8544665909336
5772,-8.295916,-3.759723,4.289733,0.095295,0.018326,-0.081551,32.32,64.78053573126
5782,-8.287541,-3.755535,4.297509,0.081092,0.009927,-0.085063,32.33,64.717779063176
5792,-8.268997,-3.764508,4.297509,0.074678,0.003207,-0.088117,32.33,64.6857070281581
5802,-8.266603,-3.764508,4.30409,0.069944,-0.002138,-0.091172,32.35,64.6464858005238
5812,-8.247462,-3.771687,4.313063,0.065821,-0.007941,-0.094684,32.35,64.5649611296427
5822,-8.232506,-3.771687,4.302894,0.063072,-0.011301,-0.096517,32.32,64.5840643687037
5832,-8.22473,-3.768696,4.303492,0.061087,-0.013897,-0.097738,32.32,64.5605655706969
5842,-8.218747,-3.781856,4.304688,0.060018,-0.01573,-0.099266,32.36,64.5545227462121
5852,-8.209177,-3.781856,4.311268,0.061239,-0.016188,-0.099418,32.36,64.4991572924212
5862,-8.204989,-3.771089,4.316652,0.063225,-0.016646,-0.09896,32.33,64.4508701264803
5872,-8.20798,-3.778267,4.320839,0.06689,-0.016493,-0.098197,32.33,64.4433648655028
5882,-8.193025,-3.771089,4.308277,0.07086,-0.015272,-0.096517,32.26,64.4673115284381
5892,-8.177471,-3.777669,4.324429,0.076358,-0.013439,-0.094073,32.26,64.3556396377713
5902,-8.164311,-3.77049,4.318447,0.081551,-0.01069,-0.092546,32.35,64.3494334691928
5912,-8.172088,-3.772285,4.326822,0.089644,-0.008705,-0.088423,32.35,64.3255238482107
5922,-8.173284,-3.762714,4.335197,0.096517,-0.005345,-0.086285,32.32,64.2749637987261
5932,-8.176275,-3.762115,4.341179,0.103084,-0.001833,-0.082925,32.32,64.2502022978663
5942,-8.1679,-3.759125,4.347161,0.110567,0.001833,-0.076358,32.31,64.1972142427085
5952,-8.173284,-3.758526,4.356732,0.122173,0.009774,-0.073304,32.28,64.1594010276051
5962,-8.169096,-3.753142,4.369295,0.127671,0.014813,-0.069639,32.28,64.0794635294236
5972,-8.180463,-3.742973,4.369893,0.131641,0.020311,-0.06521,32.31,64.0916444093733
5982,-8.185846,-3.738786,4.377669,0.134696,0.025198,-0.06185,32.31,64.0594914003816
5992,-8.181659,-3.736991,4.38724,0.137445,0.03146,-0.060018,32.34,63.9988102554311
6002,-8.17448,-3.726223,4.387838,0.139583,0.037874,-0.056505,32.34,63.9680918349959
6012,-8.185846,-3.728018,4.395017,0.13943,0.045815,-0.05284,32.33,63.9590216036339
6022,-8.186445,-3.726821,4.417749,0.138972,0.05284,-0.050091,32.33,63.8423695078262
6032,-8.187043,-3.725027,4.424927,0.136834,0.060323,-0.048869,32.32,63.8050424762932
6042,-8.183454,-3.726821,4.420142,0.133932,0.069486,-0.047495,32.32,63.8232250775273
6052,-8.193025,-3.735196,4.424927,0.130725,0.078343,-0.044899,32.32,63.829391586515
6062,-8.193025,-3.734,4.417749,0.127213,0.087201,-0.043982,32.32,63.86494498053
6072,-8.194819,-3.738187,4.421339,0.122784,0.097433,-0.043066,32.32,63.8550160862844
6082,-8.200203,-3.723232,4.422534,0.11805,0.106291,-0.042761,32.32,63.8456331376091
6092,-8.213962,-3.73041,4.413561,0.113926,0.114232,-0.043219,32.31,63.9305494188498
6102,-8.216354,-3.731009,4.396811,0.109345,0.122478,-0.043524,32.31,64.0225143775377
6112,-8.220542,-3.728616,4.386642,0.105222,0.129503,-0.044288,32.33,64.0817671630376
6122,-8.227122,-3.741179,4.380062,0.096059,0.141263,-0.046884,32.36,64.1434225831723
6132,-8.230712,-3.736991,4.369295,0.092852,0.145997,-0.048411,32.36,64.2025388481876
6142,-8.232506,-3.739982,4.351348,0.089339,0.147982,-0.051007,32.36,64.3019311772191
6152,-8.239087,-3.732205,4.336991,0.087354,0.149662,-0.053298,32.36,64.3827117505108
6162,-8.250452,-3.726223,4.320241,0.085368,0.149815,-0.056047,32.31,64.4884663017347
6172,-8.248059,-3.731009,4.308876,0.083689,0.147524,-0.05849,32.31,64.546567269776
6182,-8.246264,-3.731009,4.283153,0.082772,0.143859,-0.059712,32.32,64.6754447785895
6192,-8.269596,-3.731009,4.285545,0.081703,0.138056,-0.062919,32.32,64.7150340085855
6202,-8.261818,-3.734598,4.264608,0.081703,0.131489,-0.063988,32.32,64.8095837610047
6212,-8.263015,-3.728616,4.247859,0.082467,0.122937,-0.065515,32.32,64.8929844136849
6222,-8.271988,-3.728616,4.243671,0.082772,0.112705,-0.06689,32.36,64.934528381014
6232,-8.270193,-3.726821,4.229314,0.084299,0.101556,-0.067501,32.36,65.0032193177515
6242,-8.272586,-3.734598,4.21735,0.086132,0.08995,-0.068264,32.33,65.0783067976454
6252,-8.280961,-3.732205,4.212564,0.087812,0.07758,-0.067959,32.33,65.1191803246922
6262,-8.276773,-3.73041,4.206582,0.090866,0.062919,-0.066584,32.32,65.1392797935902
6272,-8.268997,-3.736991,4.21735,0.093157,0.049786,-0.065668,32.32,65.0727917382546
6282,-8.264212,-3.73041,4.205984,0.09499,0.035583,-0.063988,32.34,65.1147957242835
6292,-8.253444,-3.732804,4.214957,0.101098,0.008247,-0.059712,32.34,65.0468138244558
6302,-8.249256,-3.724428,4.216752,0.104458,-0.003665,-0.057116,32.34,65.0198869811437
6312,-8.252247,-3.729812,4.219743,0.10736,-0.016493,-0.055131,32.32,65.0163080312482
6322,-8.238488,-3.726223,4.22393,0.109956,-0.02642,-0.051618,32.32,64.9605338827268
6332,-8.23131,-3.714259,4.244868,0.113621,-0.035736,-0.049327,32.33,64.8237400277486
6342,-8.233105,-3.726821,4.259224,0.116064,-0.043524,-0.04612,32.33,64.7658430066607
6352,-8.233105,-3.726821,4.275376,0.118355,-0.049938,-0.043371,32.33,64.6821099616523
6362,-8.217552,-3.717848,4.286742,0.120035,-0.054062,-0.041844,32.33,64.5793192498488
6372,-8.210971,-3.713063,4.302894,0.121868,-0.056047,-0.039554,32.36,64.4759937817872
6382,-8.19781,-3.715455,4.321437,0.1237,-0.057116,-0.036652,32.36,64.3527592902223
6392,-8.19781,-3.704688,4.334,0.124006,-0.0562,-0.037263,32.33,64.276751771946
6402,-8.196015,-3.716652,4.345964,0.124006,-0.053298,-0.036805,32.33,64.2231660698934
6412,-8.191828,-3.719045,4.358526,0.124464,-0.048564,-0.036805,32.32,64.151292731561
6422,-8.186445,-3.708875,4.373481,0.123853,-0.042761,-0.036957,32.32,64.051390606623
6432,-8.19781,-3.718446,4.393223,0.123242,-0.036041,-0.039248,32.34,63.9856472566541
6442,-8.190632,-3.708277,4.400401,0.121868,-0.027336,-0.040928,32.34,63.9217736757185
6452,-8.205587,-3.702295,4.423133,0.120188,-0.018784,-0.04444,32.31,63.8331739964313
6462,-8.206185,-3.694518,4.432704,0.119271,0.000305,-0.051924,32.31,63.7774377631196
6472,-8.209774,-3.709473,4.436294,0.11469,0.01069,-0.057269,32.32,63.7828118130427
6482,-8.210373,-3.701697,4.442873,0.111941,0.021228,-0.062156,32.3,63.7424511621322
6492,-8.219944,-3.713063,4.457231,0.109192,0.03207,-0.067959,32.3,63.7028793969486
6502,-8.230712,-3.716652,4.454239,0.105985,0.042761,-0.074526,32.34,63.7466035423425
6512,-8.233105,-3.711866,4.447659,0.103236,0.053298,-0.080329,32.34,63.780726263631
6522,-8.23789,-3.711268,4.445865,0.099724,0.06353,-0.087354,32.33,63.8002322361942
6532,-8.238488,-3.711866,4.441677,0.094684,0.073151,-0.093615,32.33,63.8236023934846
6542,-8.229516,-3.715455,4.442873,0.08995,0.082925,-0.100945,32.3,63.8006554981467
6552,-8.233105,-3.717848,4.45065,0.086285,0.092088,-0.106749,32.3,63.7716442548225
6562,-8.233105,-3.711866,4.439284,0.082161,0.100335,-0.112094,32.34,63.8235036631259
6572,-8.228318,-3.718446,4.422534,0.077733,0.10736,-0.117592,32.34,63.9050023024107
6582,-8.232506,-3.727419,4.417749,0.073609,0.11469,-0.121409,32.35,63.9483046391736
6592,-8.219944,-3.720839,4.400401,0.06918,0.12034,-0.124311,32.35,64.0017703016205
6602,-8.222337,-3.73041,4.38724,0.065363,0.125991,-0.127213,32.33,64.0846242839535
6612,-8.222935,-3.724428,4.378866,0.062156,0.130114,-0.128893,32.33,64.1228319225518
6622,-8.218747,-3.723232,4.354339,0.058643,0.133932,-0.129656,32.36,64.238283401163
6632,-8.200802,-3.733402,4.341179,0.055283,0.13607,-0.127213,32.36,64.2759671628661
6642,-8.203793,-3.742973,4.329813,0.051007,0.138819,-0.124311,32.34,64.3512524431299
6652,-8.198408,-3.737589,4.322036,0.04948,0.138666,-0.120188,32.32,64.3737442885881
6662,-8.203195,-3.74058,4.313063,0.049327,0.137292,-0.115454,32.32,64.4340010181301
6672,-8.194221,-3.759125,4.293921,0.049175,0.135154,-0.110414,32.34,64.531971943099
6682,-8.204391,-3.754937,4.284947,0.050091,0.13271,-0.104763,32.34,64.5969474981189
6692,-8.190034,-3.769892,4.269393,0.05116,0.12874,-0.099418,32.31,64.6608657568706
6702,-8.17807,-3.76391,4.256832,0.054214,0.124311,-0.092241,32.31,64.6932630136463
6712,-8.188837,-3.772883,4.243073,0.057879,0.120035,-0.084299,32.36,64.7980457285815
6722,-8.18764,-3.771089,4.244868,0.061545,0.114232,-0.076358,32.36,64.784206309512
6732,-8.190034,-3.778865,4.233501,0.066279,0.107818,-0.06857,32.39,64.8566432169373
6742,-8.190632,-3.782454,4.23051,0.071624,0.099876,-0.06017,32.39,64.8772131949976
6752,-8.195418,-3.790231,4.224528,0.078496,0.092393,-0.05284,32.32,64.9269045666617
6762,-8.196614,-3.786044,4.216752,0.085216,0.083841,-0.045509,32.32,64.9657665469169
6772,-8.209774,-3.790231,4.214359,0.092699,0.0759,-0.037263,32.31,65.0115209476469
6782,-8.212766,-3.787838,4.22094,0.099876,0.06689,-0.030238,32.31,64.9814347141966
6792,-8.218747,-3.791427,4.211368,0.10797,0.058032,-0.024129,32.32,65.0480488520602
6802,-8.230114,-3.79382,4.220341,0.115301,0.049175,-0.018784,32.32,65.0288020643788
6812,-8.239684,-3.788436,4.220341,0.130114,0.030543,-0.005956,32.31,65.0443785211754
6822,-8.243872,-3.791427,4.232903,0.137445,0.020922,-0.003207,32.33,64.991409657004
6832,-8.252846,-3.789035,4.240082,0.143095,0.011912,0.000916,32.33,64.9715097879354
6842,-8.246863,-3.784249,4.246064,0.14844,0.002902,0.00336,32.32,64.9225218722437
6852,-8.253444,-3.777071,4.239483,0.1518,-0.005956,0.00504,32.32,64.963866672725
6862,-8.264212,-3.768098,4.252644,0.15516,-0.014508,0.005498,32.34,64.9104086830272
6872,-8.269596,-3.771089,4.261617,0.157145,-0.022449,0.004581,32.34,64.8788856101643
6882,-8.26481,-3.769892,4.274778,0.158214,-0.029932,0.00336,32.33,64.7991267107441
6892,-8.266603,-3.754339,4.286742,0.157756,-0.037568,0.001833,32.33,64.7256615881217
6902,-8.2678,-3.752544,4.308277,0.158061,-0.043677,0.000458,32.33,64.6154864919972
6912,-8.270791,-3.756134,4.305884,0.155312,-0.050702,-0.003512,32.33,64.6380893443047
6922,-8.275578,-3.746562,4.320241,0.151189,-0.056047,-0.00733,32.3,64.5651875956996
6932,-8.272586,-3.738786,4.338188,0.147219,-0.059712,-0.012675,32.3,64.4583881157628
6942,-8.258827,-3.725027,4.357928,0.14279,-0.062614,-0.017562,32.31,64.3121576107613
6952,-8.257631,-3.721437,4.360321,0.136223,-0.064446,-0.021991,32.31,64.2935268635376
6962,-8.254042,-3.716054,4.373481,0.130267,-0.064141,-0.027947,32.35,64.2123922973689
6972,-8.249854,-3.714259,4.412365,0.123395,-0.062614,-0.035125,32.35,64.0018245367547
6982,-8.233703,-3.693322,4.4339,0.116523,-0.053756,-0.046273,32.32,63.8332895316747
6992,-8.234302,-3.689733,4.445267,0.101556,-0.046731,-0.052534,32.33,63.7728623167758
7002,-8.222935,-3.685545,4.445865,0.093462,-0.039095,-0.058948,32.33,63.739348245687
7012,-8.215756,-3.681358,4.465007,0.085827,-0.028711,-0.066584,32.33,63.6206280630721
7022,-8.199007,-3.675375,4.472186,0.077885,-0.016799,-0.07254,32.33,63.5389386007987
7032,-8.19123,-3.673581,4.49073,0.07025,-0.003818,-0.079565,32.3,63.424262961235
7045,-8.191828,-3.672385,4.48415,0.063988,0.010232,-0.084299,32.3,63.4580067511437
7052,-8.185248,-3.661019,4.480561,0.057421,0.025962,-0.090561,32.34,63.4491557556163
7062,-8.178668,-3.662813,4.487739,0.051924,0.04215,-0.095448,32.34,63.3989734363064
7072,-8.173882,-3.666403,4.485346,0.048258,0.05849,-0.099724,32.34,63.4037862032114
7082,-8.164311,-3.676572,4.476971,0.044746,0.074831,-0.103236,32.34,63.4349600338673
7092,-8.160722,-3.668795,4.476373,0.043524,0.091477,-0.106596,32.33,63.4214679476423
7102,-8.161918,-3.665206,4.465007,0.042302,0.107207,-0.109498,32.33,63.478737940162
7112,-8.164909,-3.669992,4.45065,0.041386,0.122326,-0.110261,32.29,63.5643638754131
7122,-8.159525,-3.675974,4.439882,0.041539,0.137292,-0.110261,32.29,63.6133948891827
7132,-8.151749,-3.679563,4.417151,0.043677,0.15012,-0.111177,32.31,63.716027977963
7142,-8.156534,-3.680759,4.38066,0.047495,0.161574,-0.110108,32.31,63.9165397800444
7152,-8.151151,-3.692724,4.368098,0.050549,0.170431,-0.103847,32.32,63.981520514028
7162,-8.164909,-3.701099,4.332804,0.061087,0.183107,-0.099876,32.32,64.2043938806945
7172,-8.163713,-3.706482,4.325027,0.066737,0.187688,-0.095295,32.32,64.2475385552215
7182,-8.181061,-3.706482,4.299902,0.072388,0.188452,-0.089644,32.29,64.4172438592611
7192,-8.185846,-3.712464,4.284947,0.078954,0.18723,-0.083536,32.29,64.5118244576786
7202,-8.19781,-3.721437,4.265206,0.085674,0.184481,-0.076511,32.32,64.6504517710382
7212,-8.20798,-3.726223,4.25384,0.092088,0.178984,-0.069333,32.32,64.7371550846828
7222,-8.216953,-3.726821,4.238287,0.097891,0.171348,-0.063988,32.3,64.8386488582834
7232,-8.223534,-3.735795,4.21735,0.103847,0.161727,-0.057269,32.3,64.9712797489751
7242,-8.23131,-3.738786,4.210171,0.109039,0.150884,-0.051618,32.33,65.0288661779506
7252,-8.243872,-3.737589,4.198207,0.113468,0.138514,-0.045509,32.33,65.1176772965195
7262,-8.258827,-3.75075,4.201199,0.116217,0.124922,-0.041386,32.34,65.1480782387148
7272,-8.280362,-3.756134,4.201199,0.118813,0.109956,-0.037263,32.34,65.2005717604896
7282,-8.282756,-3.757928,4.19402,0.119424,0.094837,-0.034667,32.35,65.2448619069164
7292,-8.295916,-3.764508,4.204189,0.11973,0.077733,-0.033445,32.35,65.2272859584331
7302,-8.297711,-3.761517,4.205386,0.118966,0.061087,-0.032987,32.31,65.2220353687579
7312,-8.308478,-3.766303,4.211967,0.116064,0.04444,-0.033292,32.31,65.2161215731222
7322,-8.326425,-3.768098,4.234099,0.113468,0.027947,-0.035277,32.3,65.1425717750672
7332,-8.318647,-3.76391,4.231707,0.104458,-0.002749,-0.041692,32.3,65.1338370719068
7342,-8.331809,-3.771089,4.249055,0.099113,-0.016493,-0.046273,32.32,65.0801298333929
7352,-8.321041,-3.772285,4.269393,0.09331,-0.029169,-0.051007,32.33,64.9530366143607
7362,-8.321041,-3.764508,4.271188,0.086743,-0.040164,-0.056505,32.33,64.9360764825287
7372,-8.316256,-3.768696,4.293921,0.079107,-0.050549,-0.063683,32.32,64.8128085898193
7382,-8.298308,-3.766901,4.299304,0.073304,-0.058643,-0.06857,32.32,64.7437627154346
7392,-8.288139,-3.772285,4.319643,0.068111,-0.064752,-0.07422,32.33,64.6221421833857
7402,-8.270791,-3.774678,4.326224,0.06185,-0.069944,-0.080023,32.33,64.5522250706042
7412,-8.259426,-3.775276,4.331009,0.057727,-0.073151,-0.085063,32.34,64.502931634297
7422,-8.243275,-3.782454,4.342375,0.053756,-0.073457,-0.088423,32.34,64.4157903439225
7432,-8.222935,-3.769892,4.349553,0.052076,-0.072388,-0.090561,32.35,64.3203498851493
7442,-8.204391,-3.766303,4.355535,0.050702,-0.069944,-0.092241,32.35,64.2440749411886
7452,-8.195418,-3.762714,4.360919,0.050855,-0.065057,-0.09331,32.35,64.1923484567609
7462,-8.190632,-3.765106,4.360321,0.052993,-0.059101,-0.091935,32.35,64.1870829290053
7472,-8.164311,-3.760321,4.366901,0.055589,-0.051771,-0.089186,32.32,64.0884328200316
7482,-8.146963,-3.76391,4.368098,0.06017,-0.043371,-0.085368,32.32,64.0465075747415
7492,-8.138588,-3.763312,4.373481,0.065668,-0.034667,-0.080787,32.35,63.9989712946589
7502,-8.112267,-3.758526,4.372285,0.071929,-0.014813,-0.068722,32.35,63.9398025091112
7512,-8.101499,-3.753741,4.376472,0.089034,-0.004123,-0.061392,32.33,63.8883061490189
7522,-8.120642,-3.744169,4.377071,0.097128,0.006261,-0.054367,32.29,63.9190514887017
7532,-8.111669,-3.745365,4.370491,0.105374,0.015272,-0.047495,32.29,63.9337309176974
7542,-8.115258,-3.737589,4.375276,0.113621,0.025351,-0.040164,32.29,63.9089828739519
7552,-8.124829,-3.739982,4.376472,0.122784,0.034514,-0.032376,32.29,63.9273353070351
7562,-8.142776,-3.736392,4.381856,0.129656,0.042913,-0.026114,32.38,63.9369419468787
7572,-8.139186,-3.732205,4.39083,0.135154,0.051313,-0.021533,32.38,63.8779835661812
7582,-8.15773,-3.717848,4.392026,0.139277,0.059407,-0.016188,32.33,63.8993543851813
7592,-8.150552,-3.720839,4.398008,0.14279,0.06689,-0.014203,32.33,63.8551576448515
7602,-8.18764,-3.706482,4.397409,0.14447,0.074831,-0.011759,32.3,63.9284377600772
7612,-8.184649,-3.713661,4.398606,0.144775,0.08094,-0.011301,32.3,63.9228831891294
7622,-8.214561,-3.703491,4.418347,0.143248,0.087354,-0.012065,32.34,63.8795313002352
7632,-8.216354,-3.702893,4.415954,0.140041,0.094379,-0.015119,32.34,63.8952886518913
7642,-8.226524,-3.695116,4.415356,0.135154,0.099571,-0.017868,32.33,63.9136271562232
7652,-8.243872,-3.701099,4.417749,0.129198,0.105527,-0.021686,32.33,63.9471629795493
7662,-8.252247,-3.692724,4.420142,0.121562,0.111177,-0.027336,32.29,63.9454677482564
7672,-8.278568,-3.696313,4.411169,0.112705,0.116064,-0.039248,32.29,64.0549108020433
7682,-8.269596,-3.696911,4.412963,0.094531,0.124311,-0.046731,32.34,64.0259652953448
7692,-8.266006,-3.705884,4.405187,0.085216,0.129045,-0.053145,32.32,64.0666989871032
7702,-8.270791,-3.697509,4.396811,0.074984,0.132252,-0.060323,32.32,64.1119082565583
7712,-8.269596,-3.7005,4.381856,0.066432,0.134543,-0.066737,32.33,64.18883052035
7722,-8.270791,-3.704688,4.383651,0.058338,0.136834,-0.071624,32.33,64.186577210072
7732,-8.252846,-3.708277,4.356732,0.050855,0.137445,-0.076205,32.32,64.2878131143975
7742,-8.252846,-3.710072,4.346562,0.043982,0.137139,-0.081398,32.32,64.3419353979661
7752,-8.24148,-3.713661,4.335197,0.039095,0.136834,-0.08323,32.32,64.3784794424572
7762,-8.248059,-3.720241,4.308277,0.03543,0.135307,-0.085674,32.32,64.5387678302983
7772,-8.238488,-3.720839,4.293322,0.033598,0.131794,-0.087048,32.33,64.5952076699374
7782,-8.240881,-3.714857,4.281956,0.032376,0.126907,-0.086896,32.33,64.6533329629988
7792,-8.244471,-3.725027,4.260421,0.033139,0.121715,-0.08491,32.32,64.7831299325843
7802,-8.233703,-3.728018,4.24726,0.034819,0.114995,-0.083078,32.32,64.8304737542122
7812,-8.225926,-3.731607,4.238885,0.038485,0.107818,-0.080176,32.34,64.86031806705
7822,-8.240283,-3.731009,4.225127,0.042913,0.098807,-0.076205,32.34,64.9630749953479
7832,-8.22772,-3.746562,4.206582,0.048411,0.088575,-0.072693,32.33,65.0474426620313
7842,-8.232506,-3.742973,4.200002,0.05452,0.077733,-0.067806,32.33,65.0886799608085
7852,-8.231908,-3.744768,4.189234,0.069028,0.055741,-0.058643,32.3,65.1453035062879
7862,-8.235497,-3.745365,4.19402,0.076205,0.043066,-0.055283,32.31,65.1288384040585
7872,-8.236095,-3.74058,4.189833,0.083078,0.030238,-0.050702,32.31,65.1472013584102
7882,-8.236095,-3.741776,4.186243,0.090408,0.01741,-0.046273,32.34,65.1671207257509
7892,-8.237292,-3.737589,4.195216,0.097433,0.005345,-0.043371,32.34,65.1187805880228
7902,-8.237292,-3.739383,4.205386,0.103847,-0.00672,-0.040012,32.34,65.0675838645916
7912,-8.23789,-3.74058,4.212564,0.109039,-0.018784,-0.036499,32.34,65.0327303913774
7922,-8.248059,-3.742973,4.231707,0.113163,-0.029932,-0.035277,32.33,64.9580655621661
7932,-8.238488,-3.729812,4.246064,0.117439,-0.038943,-0.033139,32.33,64.849118191645
7942,-8.258827,-3.729812,4.246064,0.121257,-0.048869,-0.03375,32.36,64.8942129169362
7952,-8.251051,-3.734598,4.267599,0.122784,-0.056505,-0.033445,32.36,64.7701999057652
7962,-8.251051,-3.729812,4.281956,0.124464,-0.062003,-0.034208,32.27,64.6910992722135
7972,-8.257033,-3.726223,4.299902,0.124006,-0.067042,-0.036346,32.27,64.6081093877798
7982,-8.249256,-3.722036,4.323233,0.124158,-0.070097,-0.03711,32.32,64.4661200963711
7992,-8.236693,-3.724428,4.336991,0.123395,-0.072082,-0.038332,32.32,64.369400174541
8002,-8.243872,-3.722036,4.352544,0.120799,-0.072693,-0.041233,32.36,64.3030812366838
8012,-8.245069,-3.716054,4.377669,0.118202,-0.071929,-0.042913,32.36,64.170592967211
8022,-8.221739,-3.711866,4.401597,0.115454,-0.063988,-0.048717,32.3,63.9904781149403
8032,-8.230114,-3.727419,4.415356,0.107512,-0.057574,-0.052229,32.33,63.9551013106718
8042,-8.202596,-3.72383,4.439284,0.102473,-0.050244,-0.054672,32.33,63.7659570743927
8052,-8.210373,-3.718446,4.442873,0.097433,-0.041539,-0.057269,32.32,63.7598489986746
8062,-8.202596,-3.716652,4.445865,0.092852,-0.031001,-0.060628,32.32,63.7248025110354
8072,-8.204391,-3.717848,4.459623,0.087354,-0.019395,-0.063835,32.29,63.6598498247168
8082,-8.185846,-3.727419,4.470391,0.081398,-0.006567,-0.067653,32.29,63.5720860137618
8092,-8.194819,-3.722634,4.476971,0.076053,0.007789,-0.07086,32.33,63.5541966131313
8102,-8.194819,-3.726223,4.475177,0.070555,0.021991,-0.075595,32.33,63.5671202669684
8112,-8.193025,-3.719045,4.458427,0.067042,0.03711,-0.078649,32.32,63.6410115139596
8122,-8.186445,-3.722036,4.473382,0.062156,0.051924,-0.081245,32.32,63.5525311730344
8132,-8.179267,-3.722634,4.474578,0.058338,0.06689,-0.085521,32.31,63.5304406654462
8142,-8.193025,-3.722634,4.470391,0.05452,0.080787,-0.088423,32.31,63.5836421659885
8152,-8.185846,-3.739982,4.450052,0.050549,0.094684,-0.092393,32.29,63.689269445976
8162,-8.182258,-3.729214,4.447659,0.047953,0.10736,-0.095753,32.29,63.6819409824537
8172,-8.18764,-3.726223,4.435097,0.045509,0.118966,-0.098502,32.32,63.7555307269475
8182,-8.197212,-3.73041,4.394419,0.043677,0.129351,-0.100793,32.32,63.9905468028033
8192,-8.19123,-3.744169,4.383651,0.041692,0.138208,-0.102473,32.33,64.0465721910933
8202,-8.19781,-3.736392,4.362714,0.042455,0.150884,-0.102473,32.32,64.161233445247
8212,-8.189436,-3.744169,4.350152,0.042761,0.154396,-0.101556,32.32,64.21505171256
8222,-8.194221,-3.745964,4.33041,0.043219,0.156992,-0.099724,32.31,64.329649126748
8232,-8.199606,-3.751946,4.318447,0.045357,0.158061,-0.096517,32.31,64.4097732616907
8242,-8.197212,-3.747759,4.308277,0.047647,0.156229,-0.092852,32.3,64.4526720271518
8252,-8.200802,-3.753142,4.283751,0.050396,0.152716,-0.088881,32.3,64.5932745483796
8262,-8.196015,-3.756732,4.25384,0.053756,0.14844,-0.084147,32.28,64.7415115457603
8272,-8.200802,-3.75733,4.253242,0.058032,0.142179,-0.077733,32.28,64.7558975856149
8282,-8.213365,-3.765106,4.228117,0.061697,0.135307,-0.070708,32.29,64.922334979105
8292,-8.201998,-3.754937,4.226323,0.066584,0.125838,-0.062766,32.29,64.8961630949611
8302,-8.213962,-3.760919,4.213162,0.072082,0.11637,-0.054214,32.31,64.997265078311
8312,-8.2014,-3.768098,4.214359,0.076358,0.106443,-0.045357,32.31,64.9705419040599
8322,-8.210971,-3.761517,4.201199,0.082467,0.094684,-0.036652,32.32,65.0536227688158
8332,-8.214561,-3.765106,4.200002,0.08827,0.082467,-0.027489,32.32,65.0714038464901
8342,-8.221141,-3.765106,4.203591,0.093157,0.07086,-0.019853,32.29,65.0671905781827
8352,-8.22473,-3.768696,4.2006,0.099266,0.059254,-0.011759,32.29,65.0942915669363
8362,-8.225328,-3.771687,4.210171,0.105222,0.047037,-0.004734,32.31,65.0487829825049
8372,-8.242676,-3.768696,4.218546,0.114995,0.024282,0.007636,32.31,65.0403879865161
8382,-8.238488,-3.76391,4.232305,0.118661,0.013592,0.011301,32.31,64.9548774322601
8392,-8.260024,-3.762714,4.235895,0.12202,0.003512,0.014203,32.31,64.9825169323592
8402,-8.257631,-3.753741,4.249055,0.126144,-0.00504,0.016799,32.31,64.9000446502163
8412,-8.249854,-3.75075,4.262215,0.127824,-0.014355,0.016646,32.38,64.8116779812511
8422,-8.270193,-3.766303,4.269393,0.129503,-0.020922,0.015882,32.38,64.8352167272238
8432,-8.26481,-3.748955,4.282554,0.129656,-0.026267,0.014813,32.36,64.7378798034772
8442,-8.274381,-3.745365,4.303492,0.129503,-0.032681,0.01069,32.36,64.6475366553729
8452,-8.265409,-3.747759,4.308277,0.128434,-0.037263,0.005345,32.33,64.6053295979624
8462,-8.277969,-3.742374,4.331009,0.126907,-0.039706,0.001222,32.33,64.51093239056
8472,-8.275578,-3.731009,4.336392,0.124006,-0.041692,-0.00672,32.29,64.4664566166088
8482,-8.270193,-3.721437,4.361517,0.120035,-0.043066,-0.012523,32.29,64.3156791620908
8492,-8.286943,-3.726223,4.377669,0.115606,-0.043066,-0.020159,32.32,64.2754331353387
8502,-8.27139,-3.720241,4.369893,0.11133,-0.041997,-0.029169,32.32,64.2742016699631
8512,-8.264212,-3.713661,4.389035,0.105832,-0.039401,-0.036957,32.3,64.1532199300615
8522,-8.26481,-3.716652,4.392624,0.099113,-0.037415,-0.04444,32.3,64.1392378916723
8532,-8.243872,-3.705286,4.406384,0.093462,-0.03375,-0.052229,32.3,64.0096357042491
8542,-8.234302,-3.702893,4.406981,0.086743,-0.023976,-0.066432,32.3,63.9823094638888
8552,-8.231908,-3.695116,4.418347,0.074831,-0.017562,-0.073609,32.34,63.9106242292475
8562,-8.219346,-3.699902,4.412365,0.068875,-0.011148,-0.078496,32.35,63.9174561838835
8572,-8.216953,-3.695116,4.41416,0.062461,-0.004123,-0.082925,32.35,63.8978390942984
8582,-8.215158,-3.686144,4.418347,0.057574,0.002443,-0.086896,32.34,63.8630049467313
8592,-8.199606,-3.681956,4.415356,0.053145,0.01069,-0.090103,32.34,63.8382855028215
8602,-8.19123,-3.680161,4.401597,0.049175,0.018937,-0.092546,32.34,63.8878793177052
8612,-8.182856,-3.689733,4.403392,0.046273,0.027336,-0.09331,32.34,63.869291701265
8622,-8.178668,-3.68375,4.403392,0.043982,0.036041,-0.093462,32.31,63.8534418638215
8632,-8.170293,-3.681956,4.404588,0.041692,0.044135,-0.093921,32.31,63.8261110923909
8642,-8.181061,-3.680759,4.402196,0.040164,0.05284,-0.093004,32.31,63.862008877545
8652,-8.169096,-3.693322,4.402196,0.039706,0.061239,-0.092088,32.31,63.84749780868
8662,-8.169695,-3.681956,4.391428,0.040012,0.069333,-0.090713,32.31,63.8925406714306
8672,-8.179267,-3.68375,4.395017,0.04047,0.076969,-0.088423,32.31,63.8979432267721
8682,-8.1679,-3.690929,4.389035,0.042302,0.084452,-0.085521,32.3,63.9100685037385
8692,-8.184052,-3.699304,4.371687,0.044288,0.091477,-0.083841,32.3,64.0452678010489
8702,-8.182856,-3.70409,4.365705,0.046273,0.098197,-0.08094,32.32,64.0783421317673
8712,-8.198408,-3.709473,4.356134,0.049022,0.103389,-0.076511,32.32,64.1687315396372
8722,-8.200802,-3.714857,4.347759,0.055283,0.112246,-0.07422,32.35,64.2229221437018
8732,-8.196614,-3.714259,4.339384,0.058643,0.115912,-0.071166,32.3,64.2560440921661
8742,-8.196015,-3.71725,4.326822,0.063072,0.118508,-0.067806,32.3,64.3226862029852
8752,-8.204391,-3.72383,4.331009,0.066126,0.120035,-0.066432,32.36,64.3267529201237
8762,-8.232506,-3.731009,4.322634,0.069944,0.120799,-0.063225,32.36,64.4407031347887
8772,-8.228318,-3.742973,4.307081,0.072693,0.120035,-0.061697,32.34,64.5237848153581
8782,-8.222337,-3.737589,4.301697,0.076053,0.118966,-0.059407,32.34,64.5327191451184
8792,-8.240881,-3.749553,4.293322,0.078649,0.115912,-0.057421,32.3,64.629636518645
8802,-8.232506,-3.748955,4.286742,0.082467,0.112552,-0.055741,32.3,64.6443651931777
8812,-8.238488,-3.759723,4.275974,0.084758,0.107665,-0.053298,32.32,64.7243157580587
8822,-8.24148,-3.756732,4.264608,0.086437,0.101556,-0.051924,32.32,64.7867575366171
8832,-8.242078,-3.756134,4.263412,0.086437,0.094073,-0.050091,32.3,64.7936725440337
8842,-8.249854,-3.766303,4.256832,0.089034,0.087354,-0.047342,32.3,64.8552315822704
8852,-8.263614,-3.775874,4.251448,0.089186,0.077427,-0.045204,32.32,64.9230983541641
8862,-8.257033,-3.771687,4.252644,0.089186,0.068417,-0.044288,32.32,64.8981913232937
8872,-8.279166,-3.775874,4.246662,0.088575,0.058185,-0.044135,32.34,64.9820453692139
8882,-8.261221,-3.778267,4.251448,0.087812,0.048717,-0.042302,32.34,64.920237820046
8892,-8.259426,-3.778267,4.25085,0.085063,0.027947,-0.041539,32.31,64.9193790828989
8902,-8.261221,-3.780062,4.253242,0.082009,0.017257,-0.041233,32.3,64.9127649522612
8912,-8.265409,-3.77408,4.252046,0.079565,0.006567,-0.041539,32.3,64.9221529296587
8922,-8.262416,-3.78724,4.259823,0.077122,-0.002902,-0.042302,32.32,64.8886070776794
8932,-8.261221,-3.781258,4.264608,0.07422,-0.011606,-0.04215,32.32,64.8552055018964
8942,-8.259426,-3.777071,4.274778,0.072235,-0.019853,-0.04383,32.29,64.7944726231301
8952,-8.239087,-3.778267,4.277769,0.068875,-0.027794,-0.04444,32.29,64.7351958687854
8962,-8.243275,-3.772285,4.281956,0.067195,-0.034056,-0.045662,32.37,64.7167668847963
8972,-8.23789,-3.771089,4.294518,0.064752,-0.039554,-0.04612,32.37,64.6386918948879
8982,-8.239684,-3.77049,4.307679,0.06353,-0.042608,-0.046426,32.32,64.5741580554403
8992,-8.232506,-3.756134,4.319045,0.06185,-0.046273,-0.047189,32.32,64.484845421256
9002,-8.21157,-3.759723,4.328018,0.061087,-0.048411,-0.047189,32.32,64.3952686457087
9012,-8.22473,-3.759723,4.335197,0.06185,-0.048564,-0.047189,32.32,64.3878284566002
9022,-8.222337,-3.759723,4.342375,0.061545,-0.047953,-0.049327,32.35,64.3454789292625
9032,-8.2014,-3.757928,4.350152,0.063988,-0.045204,-0.04948,32.35,64.2563728573536
9046,-8.197212,-3.739383,4.366901,0.066584,-0.036346,-0.04612,32.32,64.141406639991
9052,-8.196015,-3.739982,4.385446,0.066584,-0.036346,-0.04612,32.32,64.0438825432621
9062,-8.193623,-3.739982,4.378268,0.074678,-0.023366,-0.04383,32.32,64.0753579659414
9072,-8.179267,-3.739982,4.381856,0.078496,-0.015577,-0.041539,32.31,64.0241828992663
9082,-8.184649,-3.728616,4.402793,0.083078,-0.007789,-0.039095,32.31,63.9169328721239
9092,-8.173284,-3.727419,4.395615,0.087506,0.001985,-0.03711,32.29,63.9265683262704
9102,-8.17448,-3.728018,4.400401,0.091477,0.011454,-0.034514,32.29,63.9053123940356
9112,-8.178668,-3.717848,4.40399,0.096975,0.021228,-0.032987,32.32,63.8858404305665
9122,-8.175676,-3.714259,4.404588,0.101404,0.030696,-0.031307,32.32,63.8721522048447
9132,-8.176275,-3.71725,4.409374,0.104,0.041233,-0.030085,32.27,63.8520422445275
9142,-8.176873,-3.711866,4.408178,0.107665,0.050855,-0.027489,32.27,63.8539447368425
9152,-8.178668,-3.708277,4.41057,0.111177,0.060018,-0.02642,32.32,63.8420310466765
9162,-8.181659,-3.707081,4.407579,0.112705,0.069486,-0.025656,32.32,63.8630355731984
9172,-8.195418,-3.695116,4.406981,0.113163,0.077885,-0.025656,32.33,63.8852917681722
9182,-8.204391,-3.698107,4.400999,0.113163,0.086743,-0.026114,32.33,63.9397006645976
9192,-8.199606,-3.699902,4.405785,0.111025,0.095295,-0.027184,32.3,63.9060010810479
9202,-8.20798,-3.694518,4.395017,0.10965,0.101862,-0.029169,32.3,63.9749578507508
9212,-8.21157,-3.690331,4.398606,0.106596,0.107207,-0.031918,32.3,63.9604215824147
9222,-8.216953,-3.692724,4.378268,0.10232,0.112857,-0.034208,32.3,64.0797451559255
9232,-8.236693,-3.699902,4.378866,0.097433,0.121104,-0.040928,32.3,64.128954022571
9242,-8.23789,-3.706482,4.372883,0.085216,0.123242,-0.044746,32.29,64.1691282837745
9252,-8.240881,-3.692724,4.365705,0.078802,0.124922,-0.049327,32.29,64.1987988454931
9262,-8.246264,-3.692126,4.349553,0.071929,0.125533,-0.054214,32.32,64.2934982710741
9272,-8.264212,-3.699304,4.346562,0.065363,0.124617,-0.057727,32.32,64.3566649696672
9282,-8.263015,-3.698706,4.345964,0.057116,0.122478,-0.062156,32.34,64.356439893049
9292,-8.2678,-3.7005,4.325027,0.050396,0.119271,-0.066584,32.34,64.4767773573673
9302,-8.26481,-3.702295,4.313661,0.044593,0.115148,-0.070555,32.34,64.530451884639
9312,-8.2678,-3.697509,4.313063,0.03879,0.111025,-0.074373,32.34,64.5354362115466
9322,-8.274381,-3.721437,4.3005,0.034208,0.105985,-0.076205,32.34,64.6389202618915
9332,-8.263015,-3.715455,4.290929,0.02978,0.099113,-0.078649,32.34,64.6569682504692
9342,-8.27139,-3.717848,4.286144,0.026573,0.092852,-0.080023,32.29,64.7027463433591
9352,-8.259426,-3.725027,4.276572,0.024129,0.084605,-0.082314,32.29,64.7327796798624
9362,-8.269596,-3.726821,4.259823,0.023213,0.076816,-0.083078,32.31,64.8438068388035
9372,-8.26481,-3.732804,4.259823,0.022602,0.067959,-0.081703,32.31,64.839183070549
9382,-8.256434,-3.733402,4.250251,0.024282,0.058338,-0.08094,32.34,64.8708023523744
9392,-8.255239,-3.738187,4.237689,0.026114,0.049633,-0.079412,32.34,64.9380885696029
9402,-8.245069,-3.750151,4.234099,0.02978,0.040164,-0.076053,32.34,64.9462456727349
9412,-8.238488,-3.748357,4.226922,0.038179,0.022144,-0.072235,32.35,64.967183199597
9422,-8.230114,-3.754339,4.225127,0.044593,0.011759,-0.068264,32.35,64.9640342452678
9432,-8.225926,-3.749553,4.226323,0.051465,0.002749,-0.065668,32.34,64.9437295201402
9442,-8.234302,-3.751946,4.22752,0.057727,-0.006261,-0.060934,32.34,64.9584373515504
9452,-8.22473,-3.759723,4.231109,0.065057,-0.014661,-0.056658,32.33,64.9264685540172
9462,-8.214561,-3.754937,4.229912,0.072388,-0.022907,-0.052382,32.33,64.9053370771495
9472,-8.216953,-3.751946,4.235895,0.079412,-0.02978,-0.048411,32.34,64.8764927887161
9482,-8.213962,-3.756732,4.255635,0.087048,-0.035736,-0.044746,32.34,64.77215183494
9492,-8.213365,-3.760321,4.262814,0.093615,-0.042608,-0.041233,32.35,64.7372236165706
9502,-8.201998,-3.753741,4.265206,0.100335,-0.047342,-0.037263,32.35,64.6927607363386
9512,-8.19781,-3.766303,4.275376,0.106901,-0.051465,-0.032681,32.31,64.6435016411811
9522,-8.210971,-3.754937,4.284349,0.111788,-0.054825,-0.030238,32.31,64.6147605595371
9532,-8.189436,-3.752544,4.305884,0.115148,-0.057574,-0.028253,32.33,64.4524920273109
9542,-8.19781,-3.762115,4.321437,0.119424,-0.05849,-0.02474,32.33,64.4007670412871
9552,-8.199007,-3.755535,4.334598,0.120493,-0.058643,-0.023366,32.31,64.3287088605953
9562,-8.204391,-3.741776,4.353143,0.121257,-0.057421,-0.021075,32.31,64.2310277709784
9572,-8.201998,-3.742374,4.375276,0.121562,-0.054672,-0.021075,32.31,64.1122708435149
9582,-8.194819,-3.744768,4.394419,0.117133,-0.046884,-0.021991,32.31,64.0000212867185
9592,-8.2014,-3.733402,4.414758,0.113621,-0.041081,-0.024129,32.32,63.8988230644077
9602,-8.206783,-3.731009,4.417749,0.109345,-0.033445,-0.025198,32.32,63.893308714862
9612,-8.201998,-3.736991,4.432106,0.103236,-0.024587,-0.028558,32.32,63.8150528186039
9622,-8.210373,-3.732804,4.453043,0.096517,-0.016646,-0.032529,32.32,63.7228302576175
9632,-8.204989,-3.722634,4.461418,0.089186,-0.007178,-0.036499,32.32,63.6570571658386
9642,-8.198408,-3.720241,4.481757,0.081856,0.00504,-0.04047,32.3,63.5355647100575
9652,-8.207382,-3.725625,4.475775,0.073151,0.017257,-0.045815,32.3,63.592433137547
9662,-8.213962,-3.722634,4.476971,0.067042,0.02978,-0.050396,32.3,63.5983768408356
9672,-8.210373,-3.715455,4.472784,0.058032,0.042608,-0.056505,32.3,63.6039557295867
9682,-8.199007,-3.71725,4.48415,0.050244,0.0562,-0.062461,32.34,63.5216087639368
9692,-8.209177,-3.720839,4.472784,0.043524,0.069639,-0.068264,32.34,63.606820742015
9702,-8.213962,-3.720839,4.475775,0.036499,0.08262,-0.072846,32.32,63.6025989703908
9712,-8.205587,-3.726821,4.458427,0.030696,0.094837,-0.078038,32.32,63.6780841716076
9722,-8.21157,-3.72383,4.456034,0.025656,0.107512,-0.082009,32.31,63.7009432321125
9732,-8.203793,-3.726821,4.447659,0.021686,0.119271,-0.084758,32.31,63.7289866146572
9742,-8.206783,-3.73041,4.412963,0.019395,0.129503,-0.087965,32.34,63.917219329412
9752,-8.20798,-3.72383,4.389633,0.016952,0.147066,-0.090103,32.34,64.0328764858025
9762,-8.210373,-3.735196,4.373481,0.017562,0.153022,-0.090561,32.35,64.1330930229108
9772,-8.193025,-3.735795,4.357928,0.01909,0.158214,-0.089644,32.33,64.1744179356058
9782,-8.200802,-3.732804,4.329813,0.021838,0.160658,-0.087201,32.33,64.3340385674771
9792,-8.204391,-3.739383,4.309474,0.025504,0.162032,-0.083689,32.31,64.4540275285232
9802,-8.19123,-3.736991,4.296313,0.030238,0.161574,-0.079718,32.31,64.4901101350675
9812,-8.2014,-3.748955,4.27059,0.035125,0.158672,-0.074678,32.33,64.6585895666109
9822,-8.199606,-3.742973,4.254438,0.040623,0.153938,-0.06918,32.33,64.732374054647
9832,-8.212168,-3.738786,4.237091,0.047342,0.147677,-0.062766,32.33,64.8463215022584
9842,-8.215158,-3.743571,4.223332,0.053298,0.138666,-0.056658,32.33,64.9294108782233
9852,-8.213962,-3.752544,4.20718,0.060323,0.128893,-0.048564,32.35,65.0199771534623
9862,-8.218149,-3.751946,4.195216,0.067195,0.117744,-0.040928,32.35,65.0910071171176
9873,-8.224131,-3.756134,4.186243,0.073457,0.10568,-0.033445,32.3,65.1552004079181
9882,-8.224131,-3.75733,4.176074,0.079718,0.091783,-0.025656,32.3,65.2094877737637
9892,-8.23131,-3.750151,4.173083,0.085368,0.076358,-0.018937,32.34,65.2336709895063
9902,-8.246863,-3.759125,4.178466,0.091172,0.06185,-0.011301,32.34,65.2485970076663
9912,-8.250452,-3.741776,4.185047,0.095753,0.046273,-0.005345,32.33,65.2048756835322
9922,-8.243872,-3.751946,4.189234,0.100029,0.030238,0.005803,32.33,65.1787568290288
9932,-8.269596,-3.749553,4.201199,0.106138,0.000611,0.010232,32.32,65.1704906146137
9942,-8.265409,-3.744169,4.211967,0.107665,-0.012981,0.013286,32.32,65.1000019456203
9952,-8.270791,-3.746562,4.221537,0.108734,-0.026573,0.015424,32.32,65.0645221640553
9962,-8.269596,-3.738187,4.244269,0.108734,-0.038485,0.015272,32.28,64.9356887932682
9972,-8.279764,-3.736991,4.254438,0.107665,-0.04948,0.014661,32.28,64.9043056270274
9982,-8.278568,-3.74058,4.264608,0.106596,-0.058032,0.012675,32.33,64.8526610796807
9992,-8.286345,-3.736392,4.289135,0.104,-0.066279,0.008247,32.33,64.7390929918615
10002,-8.283952,-3.726821,4.301697,0.102014,-0.07254,0.004581,32.27,64.6594598015882
10012,-8.277372,-3.737589,4.322036,0.098349,-0.076969,0.000458,32.27,64.5509085824773
10022,-8.280362,-3.736991,4.332206,0.094226,-0.080329,-0.005956,32.3,64.5046954640929
10032,-8.263015,-3.723232,4.358526,0.090103,-0.08094,-0.012675,32.3,64.3166943193875
10042,-8.2678,-3.73041,4.366303,0.085368,-0.080481,-0.020159,32.31,64.2948416310171
10052,-8.2678,-3.716652,4.380062,0.080787,-0.078191,-0.027184,32.31,64.2103402785093
10062,-8.263015,-3.716652,4.388436,0.075289,-0.074067,-0.034819,32.3,64.1566222264258
10072,-8.24148,-3.712464,4.409374,0.07086,-0.06918,-0.042761,32.3,63.9962317981994
10082,-8.234302,-3.707081,4.412963,0.065668,-0.063835,-0.050702,32.34,63.9559615153141
10092,-8.216953,-3.71067,4.425525,0.061697,-0.055894,-0.057116,32.34,63.8556564884263
10102,-8.216953,-3.710072,4.431507,0.053298,-0.038179,-0.070555,32.34,63.8244111373039
10112,-8.204391,-3.706482,4.435097,0.050091,-0.027794,-0.075289,32.31,63.7734641833447
10122,-8.193025,-3.711866,4.436294,0.046273,-0.018173,-0.079412,32.31,63.7467884077552
10132,-8.184052,-3.702295,4.422534,0.043066,-0.007789,-0.08323,32.32,63.7867249723551
10142,-8.176275,-3.696911,4.431507,0.041539,0.002596,-0.08491,32.32,63.717106921867
10152,-8.163713,-3.71067,4.425525,0.039401,0.013286,-0.086132,32.33,63.7332237930432
10162,-8.162517,-3.708875,4.418347,0.036805,0.024282,-0.087812,32.33,63.7654755361295
10172,-8.159525,-3.698107,4.412365,0.036194,0.034667,-0.087965,32.32,63.7780660017939
10182,-8.148758,-3.690929,4.417749,0.035888,0.04444,-0.08659,32.32,63.7179267622606
10192,-8.160722,-3.698107,4.41416,0.035583,0.054062,-0.085063,32.34,63.7715920944435
10202,-8.158329,-3.697509,4.406981,0.03711,0.062766,-0.081703,32.34,63.8023991763234
10212,-8.156534,-3.705286,4.393821,0.038026,0.072388,-0.07926,32.34,63.8742053321695
10222,-8.153543,-3.708875,4.392026,0.038179,0.080023,-0.076358,32.34,63.8803310981148
10232,-8.16132,-3.707679,4.385446,0.039859,0.087659,-0.072388,32.34,63.9308961978743
10242,-8.163115,-3.701099,4.375875,0.041081,0.094531,-0.068417,32.34,63.9775443923663
10252,-8.170293,-3.711268,4.375875,0.042608,0.100029,-0.064904,32.34,64.0045823437496
10262,-8.173882,-3.715455,4.362116,0.04444,0.105527,-0.061087,32.34,64.0881438222388
10272,-8.196614,-3.716652,4.358526,0.046578,0.114079,-0.054825,32.32,64.1597105730945
10282,-8.207382,-3.720839,4.354339,0.049633,0.116217,-0.052076,32.3,64.2100689824618
10292,-8.215158,-3.720241,4.342375,0.051007,0.11805,-0.049175,32.3,64.2887578656123
10302,-8.21157,-3.738187,4.335197,0.052534,0.119577,-0.047037,32.31,64.3360873832226
10312,-8.218747,-3.732804,4.331009,0.05452,0.119577,-0.044899,32.31,64.3683600282064
10322,-8.22772,-3.737589,4.320839,0.056658,0.118508,-0.043677,32.34,64.4459196143757
10332,-8.230114,-3.736392,4.316652,0.056963,0.117286,-0.044135,32.34,64.4716843737575
10342,-8.22772,-3.746562,4.311268,0.05849,0.115759,-0.043066,32.27,64.5044811220432
10352,-8.245667,-3.747759,4.3005,0.059254,0.112399,-0.043219,32.27,64.6014230420742
10362,-8.251051,-3.758526,4.295715,0.060628,0.108276,-0.042913,32.3,64.6490340315927
10372,-8.259426,-3.760321,4.298108,0.060781,0.104763,-0.041692,32.3,64.6571327348585
10382,-8.259426,-3.760919,4.282554,0.061392,0.099876,-0.04215,32.3,64.7379981582222
10392,-8.261818,-3.769294,4.277769,0.062156,0.094073,-0.042455,32.3,64.7764606750743
10402,-8.261818,-3.767499,4.273581,0.062766,0.088117,-0.043524,32.31,64.7962786684156
10412,-8.260622,-3.768696,4.269393,0.062614,0.08094,-0.044135,32.31,64.8164793665456
10422,-8.260024,-3.779463,4.259224,0.062308,0.072998,-0.043982,32.32,64.878585707164
10432,-8.245667,-3.774678,4.262215,0.062308,0.06521,-0.042761,32.32,64.8265766199235
10442,-8.249256,-3.779463,4.256233,0.06185,0.05681,-0.042761,32.36,64.870305688207
10452,-8.246863,-3.779463,4.246662,0.060628,0.03879,-0.041997,32.31,64.914586866906
10462,-8.258827,-3.776472,4.242475,0.060323,0.02978,-0.042302,32.31,64.959609501825
10472,-8.258228,-3.786642,4.252046,0.059101,0.019853,-0.040775,32.39,64.9189981690323
10482,-8.259426,-3.778267,4.246064,0.058948,0.011301,-0.03879,32.39,64.9441506781005
10492,-8.243275,-3.778267,4.24726,0.057879,0.002138,-0.036499,32.32,64.9023662366976
10502,-8.242676,-3.775874,4.246662,0.056658,-0.00733,-0.034361,32.32,64.9017237688946
10512,-8.244471,-3.772883,4.250251,0.056352,-0.015424,-0.032834,32.28,64.8840661025183
10522,-8.228917,-3.783053,4.266403,0.056658,-0.023671,-0.030849,32.28,64.7763243904595
10532,-8.22772,-3.759125,4.262814,0.057269,-0.03207,-0.029169,32.31,64.7679285001997
10542,-8.222337,-3.765106,4.26401,0.056963,-0.039401,-0.026725,32.31,64.7558476335538
10552,-8.22772,-3.753741,4.279563,0.057574,-0.045968,-0.023976,32.33,64.6757047789404
10562,-8.218747,-3.753142,4.282554,0.058796,-0.052229,-0.023366,32.33,64.6395948584615
10572,-8.228318,-3.751946,4.293322,0.059254,-0.057269,-0.021075,32.32,64.6040321208722
10582,-8.221739,-3.739383,4.3005,0.060476,-0.061545,-0.020159,32.32,64.5393968351148
10592,-8.224131,-3.734598,4.312464,0.061087,-0.064141,-0.018479,32.35,64.4780485097884
10602,-8.213365,-3.736392,4.322036,0.063225,-0.06521,-0.017715,32.35,64.4062296087134
10612,-8.216354,-3.72383,4.343571,0.065668,-0.066279,-0.017104,32.3,64.2889728876842
10622,-8.213962,-3.728018,4.354938,0.070555,-0.063683,-0.016035,32.36,64.2292770799822
10632,-8.207382,-3.714857,4.366303,0.072846,-0.061392,-0.017257,32.36,64.1422715722923
10642,-8.204391,-3.712464,4.372285,0.074984,-0.056352,-0.018326,32.32,64.1021962792223
10652,-8.202596,-3.716054,4.38066,0.07758,-0.050702,-0.018784,32.32,64.058704664226
10662,-8.190632,-3.708277,4.409374,0.079412,-0.04383,-0.019853,32.34,63.8756607249552
10672,-8.199606,-3.7005,4.406981,0.081245,-0.034819,-0.020464,32.34,63.9004764679243
10682,-8.203793,-3.690929,4.418945,0.082925,-0.02642,-0.022602,32.32,63.8387680598829
10692,-8.207382,-3.697509,4.436294,0.083841,-0.015882,-0.023824,32.32,63.7649026589946
10702,-8.190034,-3.697509,4.435695,0.083841,-0.004734,-0.025809,32.36,63.7280052236956
10712,-8.175079,-3.688536,4.446463,0.083994,0.007789,-0.027336,32.36,63.6288543683022
10722,-8.182258,-3.695116,4.457829,0.083841,0.020006,-0.030085,32.32,63.5941335622867
10732,-8.197212,-3.692724,4.450052,0.082467,0.032987,-0.032529,32.32,63.6660446086887
10742,-8.182856,-3.695715,4.464409,0.080176,0.046578,-0.033903,32.32,63.5624700133106
10752,-8.176275,-3.688536,4.457829,0.076816,0.059101,-0.037263,32.32,63.5733745980267
10762,-8.182856,-3.686144,4.456632,0.073762,0.071777,-0.039401,32.32,63.5922696097294
10772,-8.190034,-3.691527,4.452445,0.069944,0.084452,-0.042761,32.32,63.6359527948857
10782,-8.195418,-3.712464,4.43749,0.065821,0.096669,-0.044899,32.32,63.7467924926321
10792,-8.196614,-3.699304,4.41416,0.060323,0.117592,-0.051007,32.32,63.8555034586047
10802,-8.206783,-3.693322,4.411767,0.050396,0.126907,-0.052534,32.26,63.8849453219529
10812,-8.216953,-3.695715,4.398606,0.045051,0.133474,-0.05452,32.32,63.9782766581284
10822,-8.212766,-3.694518,4.382454,0.038943,0.138819,-0.057727,32.32,64.0504968424881
10832,-8.218747,-3.702295,4.367499,0.033598,0.142484,-0.058796,32.29,64.1490587907509
10842,-8.218747,-3.708875,4.353741,0.0281,0.144928,-0.062156,32.29,64.2266545995544
10852,-8.229516,-3.712464,4.335794,0.023366,0.145539,-0.063225,32.27,64.3472015825826
10862,-8.240283,-3.716054,4.314857,0.019242,0.143859,-0.064294,32.27,64.4831204914731
10872,-8.23789,-3.722634,4.304688,0.015882,0.140041,-0.065973,32.32,64.5369327455831
10882,-8.244471,-3.721437,4.293322,0.012065,0.135307,-0.066432,32.32,64.609198453702
10892,-8.253444,-3.726223,4.272983,0.010385,0.12874,-0.067501,32.32,64.739235418032
10902,-8.253444,-3.72383,4.255037,0.007941,0.120646,-0.068417,32.32,64.8297776320398
10912,-8.260024,-3.739383,4.24726,0.007178,0.111177,-0.068111,32.3,64.9002377909492
10922,-8.261221,-3.744169,4.235296,0.007789,0.101404,-0.067959,32.3,64.9696921786507
10932,-8.266006,-3.734,4.226922,0.009468,0.089492,-0.068111,32.29,65.0135416041013
10942,-8.268398,-3.746562,4.218546,0.011606,0.078191,-0.066432,32.29,65.0747863334696
10952,-8.27139,-3.748357,4.210171,0.013592,0.064904,-0.064752,32.32,65.1266219820373
10962,-8.276773,-3.756732,4.210171,0.017104,0.052076,-0.06185,32.32,65.1467383261611
10972,-8.2678,-3.759125,4.2006,0.025809,0.02474,-0.059407,32.34,65.1791861632993
10982,-8.259426,-3.771687,4.213761,0.030085,0.01237,-0.057421,32.32,65.1050188974594
10992,-8.247462,-3.758526,4.210171,0.036652,-0.000611,-0.054062,32.32,65.0842356744125
11002,-8.252846,-3.760321,4.217948,0.042608,-0.011606,-0.050702,32.29,65.0574518807999
11012,-8.246863,-3.780062,4.225127,0.0478,-0.022602,-0.046426,32.29,65.0268565354641
11022,-8.242676,-3.77049,4.23051,0.053756,-0.033598,-0.043524,32.31,64.9800620622533
11032,-8.23131,-3.765106,4.243671,0.059865,-0.042455,-0.039248,32.31,64.881227613912
11042,-8.238488,-3.768696,4.244868,0.065515,-0.050396,-0.034361,32.32,64.894519795161
11052,-8.22772,-3.763312,4.255635,0.070555,-0.056658,-0.031918,32.32,64.8093949258341
11062,-8.231908,-3.765106,4.271787,0.076358,-0.062766,-0.026725,32.32,64.7368279171801
11072,-8.210373,-3.76391,4.278965,0.081856,-0.066584,-0.022449,32.32,64.6504903097211
11082,-8.209774,-3.764508,4.295715,0.085521,-0.069333,-0.018631,32.33,64.5630472068698
11092,-8.202596,-3.758526,4.302894,0.088575,-0.071471,-0.015119,32.33,64.5036871015033
11102,-8.193025,-3.75733,4.319045,0.092241,-0.071471,-0.012217,32.34,64.3974189653514
11112,-8.195418,-3.754937,4.341777,0.093768,-0.070708,-0.009468,32.34,64.2829456141012
11122,-8.199007,-3.755535,4.369295,0.095295,-0.068264,-0.007483,32.31,64.1499057872478
11132,-8.188837,-3.744169,4.369893,0.096059,-0.064294,-0.005803,32.31,64.1119366539414
11142,-8.186445,-3.745964,4.382454,0.093921,-0.054825,-0.004887,32.31,64.0437030831136
11152,-8.192427,-3.744169,4.396214,0.09163,-0.0478,-0.005192,32.32,63.9847230930481
11162,-8.189436,-3.744169,4.41057,0.088881,-0.039859,-0.006109,32.32,63.9041839279045
11172,-8.18764,-3.739982,4.42074,0.084605,-0.031918,-0.007789,32.3,63.8435231505657
11182,-8.192427,-3.734,4.421937,0.08094,-0.022602,-0.010843,32.3,63.8420993365424
11192,-8.19781,-3.732205,4.423731,0.075136,-0.013897,-0.015119,32.34,63.8433626889847
11202,-8.190632,-3.731009,4.442276,0.068875,-0.004429,-0.018326,32.34,63.730654111391
11212,-8.199007,-3.721437,4.436892,0.062766,0.005345,-0.023824,32.28,63.7674626809847
11222,-8.20798,-3.728018,4.456632,0.057574,0.015882,-0.028558,32.28,63.6940056620438
11232,-8.202596,-3.722036,4.447659,0.051007,0.026878,-0.03375,32.26,63.7212413905534
11242,-8.198408,-3.725625,4.453043,0.043982,0.037415,-0.040164,32.26,63.6878266209504
11252,-8.215158,-3.714857,4.451847,0.038026,0.046884,-0.045204,32.32,63.7212385631954
11262,-8.226524,-3.713063,4.43749,0.031154,0.057574,-0.050702,32.32,63.8188368484808
11272,-8.221739,-3.714259,4.4339,0.02642,0.067042,-0.054825,32.35,63.8274702814845
11282,-8.213365,-3.707679,4.436892,0.021228,0.076664,-0.060323,32.35,63.7861379906324
11292,-8.23131,-3.716054,4.42074,0.016341,0.085521,-0.06521,32.35,63.9185491612596
11302,-8.215158,-3.711268,4.409972,0.012217,0.093462,-0.068111,32.35,63.9318725870889
11312,-8.208578,-3.713661,4.384848,0.00733,0.106901,-0.072082,32.28,64.0483326831743
11322,-8.203195,-3.717848,4.369295,0.006261,0.112399,-0.072388,32.34,64.1204202993769
11332,-8.215756,-3.720839,4.36391,0.006567,0.115606,-0.071471,32.34,64.1797655722575
11342,-8.212766,-3.724428,4.349553,0.006109,0.118813,-0.071471,32.31,64.2506287418299
11352,-8.210971,-3.720241,4.329215,0.008552,0.121104,-0.069333,32.31,64.3472127324861
11362,-8.217552,-3.713661,4.32742,0.011454,0.121257,-0.065668,32.31,64.3646230501635
11372,-8.212766,-3.71725,4.313063,0.015882,0.12034,-0.061697,32.31,64.4316855213629
11382,-8.213962,-3.728616,4.290331,0.020159,0.119271,-0.057116,32.34,64.5636188826466
11392,-8.196614,-3.733402,4.275376,0.024893,0.116064,-0.051465,32.34,64.607141401267
11402,-8.210971,-3.732205,4.265206,0.030696,0.111636,-0.04612,32.34,64.6908632320979
11412,-8.204391,-3.738187,4.260421,0.036499,0.106138,-0.040012,32.34,64.707093126327
11422,-8.21157,-3.737589,4.244868,0.041692,0.099571,-0.033292,32.33,64.8033296175046
11432,-8.21157,-3.738786,4.243671,0.048717,0.092546,-0.028253,32.33,64.8107667959468
11442,-8.220542,-3.745365,4.229912,0.054672,0.084605,-0.022449,32.27,64.9089113105085
11452,-8.225926,-3.741776,4.21735,0.059712,0.075289,-0.016341,32.27,64.9825889409558
11462,-8.219346,-3.744768,4.214957,0.064904,0.065363,-0.010996,32.33,64.9835096848831
11472,-8.22772,-3.743571,4.223332,0.06918,0.055589,-0.006261,32.33,64.9572303338654
11482,-8.235497,-3.742374,4.219144,0.073762,0.034208,0.000305,32.32,64.9950082300191
11492,-8.246863,-3.747759,4.21735,0.079871,0.02306,0.003512,32.36,65.0348114244488
11502,-8.253444,-3.74716,4.223332,0.082314,0.01237,0.004734,32.36,65.017630085247
11512,-8.252846,-3.74058,4.229314,0.08323,0.00168,0.005192,32.31,64.9786647338928
11522,-8.252846,-3.741179,4.24068,0.083689,-0.008247,0.005651,32.31,64.9202793930494
11532,-8.263015,-3.738187,4.25085,0.083078,-0.01741,0.004276,32.33,64.8870564892797
11542,-8.261221,-3.741776,4.262215,0.081092,-0.026725,0.002443,32.33,64.8278426689585
11552,-8.266603,-3.738187,4.276572,0.080023,-0.034208,-0.000305,32.34,64.7619353765031
11562,-8.271988,-3.744169,4.291527,0.076664,-0.042302,-0.004429,32.34,64.7026931328578
11572,-8.269596,-3.733402,4.30409,0.073915,-0.048411,-0.007636,32.32,64.6217631858819
11582,-8.261818,-3.738187,4.305286,0.069791,-0.053603,-0.012523,32.32,64.6030778709626
11592,-8.266603,-3.732205,4.319045,0.065057,-0.057421,-0.016952,32.36,64.5368278392564
11602,-8.261221,-3.745964,4.326822,0.061545,-0.059407,-0.021686,32.36,64.4986806157149
11612,-8.255836,-3.728018,4.355535,0.05681,-0.060476,-0.02642,32.33,64.3207542076826
11622,-8.255239,-3.721437,4.352544,0.052687,-0.061545,-0.031918,32.33,64.3280934921133
11632,-8.255239,-3.722634,4.363312,0.048411,-0.060018,-0.036805,32.32,64.2739907233417
11642,-8.245069,-3.721437,4.382454,0.04383,-0.058796,-0.042761,32.32,64.1515392348667
11652,-8.236095,-3.719643,4.393821,0.039859,-0.055894,-0.050855,32.34,64.0710427512014
11662,-8.236693,-3.720241,4.411169,0.032681,-0.045509,-0.054825,32.26,63.9841283615059
11672,-8.219944,-3.719045,4.400999,0.029627,-0.039401,-0.059101,32.26,63.9968518966091
11682,-8.223534,-3.726821,4.400999,0.027489,-0.032529,-0.060781,32.32,64.0130527044414
11692,-8.218747,-3.722634,4.411169,0.025045,-0.024435,-0.063835,32.32,63.9456801629311
11702,-8.209177,-3.717848,4.415356,0.023824,-0.016188,-0.06521,32.32,63.8973916263237
11712,-8.198408,-3.719643,4.420142,0.022755,-0.008399,-0.066126,32.32,63.8500478249505
11722,-8.192427,-3.716652,4.423731,0.022449,0.000916,-0.067959,32.37,63.8148028638971
11732,-8.187043,-3.713063,4.415356,0.021228,0.010385,-0.067806,32.37,63.8416767256336
11742,-8.18764,-3.71067,4.408776,0.021838,0.020159,-0.067653,32.31,63.8743537757762
11752,-8.176873,-3.713661,4.411169,0.023213,0.02978,-0.066737,32.31,63.8404423309438
11762,-8.173284,-3.706482,4.409374,0.024129,0.038485,-0.065668,32.32,63.8339232631525
11772,-8.172088,-3.725625,4.398606,0.024893,0.048106,-0.06353,32.32,63.9065615260384
11782,-8.163115,-3.714259,4.38724,0.026878,0.055589,-0.062156,32.32,63.9326372899947
11792,-8.162517,-3.723232,4.393821,0.028405,0.063683,-0.059407,32.32,63.9067357499812
11802,-8.173284,-3.714259,4.376472,0.031307,0.071471,-0.056963,32.35,64.0114618634555
11812,-8.173882,-3.717848,4.37408,0.033598,0.078191,-0.053603,32.35,64.0288975380893
11822,-8.176275,-3.716054,4.363312,0.036194,0.084605,-0.050855,32.3,64.0880550939913
11832,-8.185846,-3.729812,4.349553,0.04047,0.093768,-0.04612,32.3,64.1951287579451
11842,-8.182258,-3.73041,4.348955,0.041997,0.096517,-0.042913,32.29,64.1906840050896
11852,-8.187043,-3.741776,4.34417,0.04383,0.099266,-0.039706,32.31,64.2380210623893
11862,-8.185846,-3.731607,4.334598,0.045204,0.101251,-0.036957,32.31,64.2742369844719
11872,-8.196614,-3.731009,4.326822,0.046731,0.100335,-0.034514,32.36,64.3381838894747
11882,-8.200802,-3.739982,4.319045,0.047495,0.099724,-0.031918,32.36,64.3970659980998
11892,-8.215756,-3.739383,4.315455,0.049022,0.099876,-0.029169,32.32,64.4486666338684
11902,-8.222337,-3.745964,4.30409,0.049786,0.098349,-0.027031,32.32,64.5288900899011
11912,-8.216354,-3.74058,4.302894,0.049022,0.094837,-0.025809,32.3,64.5161626416593
11922,-8.233703,-3.749553,4.302295,0.048869,0.08995,-0.024893,32.3,64.5672581547036
11932,-8.233105,-3.74716,4.301099,0.048564,0.086437,-0.02306,32.3,64.5696638537965
11942,-8.24148,-3.748357,4.295715,0.0478,0.081703,-0.022755,32.3,64.6173967131166
11952,-8.249854,-3.759723,4.295715,0.047037,0.075747,-0.021686,32.3,64.6475840689415
11962,-8.255836,-3.760919,4.295715,0.045815,0.069944,-0.02138,32.3,64.6621006511061
11972,-8.266006,-3.769892,4.290929,0.044593,0.063988,-0.022144,32.32,64.7184335045851
11982,-8.268997,-3.766901,4.275974,0.042761,0.056505,-0.022602,32.32,64.7991940187323
11992,-8.273185,-3.757928,4.275376,0.041386,0.049786,-0.024587,32.25,64.8025162115086
12002,-8.28156,-3.76391,4.275974,0.040317,0.034819,-0.026573,32.25,64.8239408543448
12012,-8.274979,-3.767499,4.277769,0.037263,0.027489,-0.027489,32.29,64.8037522181544
12022,-8.269596,-3.77408,4.274179,0.036194,0.020769,-0.029627,32.29,64.8170155170002
12032,-8.258827,-3.75733,4.27059,0.03543,0.012523,-0.030696,32.29,64.7948627697477
12042,-8.261221,-3.762115,4.268198,0.034208,0.005803,-0.031765,32.32,64.8173469288161
12052,-8.264212,-3.768098,4.271787,0.035277,-0.001527,-0.031765,32.32,64.8114436417209
12062,-8.249256,-3.771089,4.262215,0.03543,-0.008247,-0.032223,32.31,64.8308826181362
12072,-8.259426,-3.75733,4.265805,0.035583,-0.014508,-0.031307,32.31,64.8209295107308
12082,-8.244471,-3.762714,4.268795,0.037415,-0.021228,-0.031765,32.32,64.7777700556955
12092,-8.22772,-3.755535,4.271787,0.038179,-0.027947,-0.031307,32.32,64.7177917738328
12102,-8.243275,-3.749553,4.280162,0.039706,-0.032987,-0.030238,32.3,64.7029943021705
12112,-8.225328,-3.74716,4.281956,0.041386,-0.038179,-0.029016,32.3,64.6512908823012
12122,-8.216354,-3.74716,4.28076,0.043524,-0.043524,-0.027336,32.32,64.6374446084697
12132,-8.22473,-3.741776,4.279563,0.046273,-0.047647,-0.025656,32.32,64.6568756031529
12142,-8.213962,-3.742374,4.301099,0.048411,-0.050855,-0.024282,32.31,64.5219140089535
12152,-8.199606,-3.731009,4.308876,0.051618,-0.053603,-0.020769,32.31,64.437761421699
12162,-8.212766,-3.722634,4.323831,0.054062,-0.055131,-0.017868,32.31,64.3815251340267
12172,-8.185846,-3.729812,4.323233,0.057269,-0.056505,-0.012675,32.31,64.3311591947089
12182,-8.191828,-3.722036,4.338188,0.062156,-0.0562,-0.010537,32.28,64.2593711182665
12192,-8.189436,-3.718446,4.35075,0.064752,-0.053603,-0.008858,32.28,64.1853590526354
12202,-8.183454,-3.714259,4.362714,0.066126,-0.050549,-0.006414,32.28,64.1056618543186
12212,-8.191828,-3.704688,4.383053,0.068111,-0.045968,-0.004734,32.3,64.0100506760799
12222,-8.200203,-3.706482,4.392026,0.069791,-0.040317,-0.003054,32.3,63.9848885658189
12232,-8.19781,-3.698706,4.403392,0.069791,-0.034208,-0.004276,32.34,63.9129396981108
12242,-8.186445,-3.70409,4.414758,0.069944,-0.026267,-0.003512,32.34,63.8340325896945
12252,-8.193623,-3.694518,4.426124,0.069333,-0.01741,-0.005345,32.28,63.7822537606083
12262,-8.194221,-3.693322,4.430311,0.06857,-0.007789,-0.007025,32.28,63.7609118792872
12272,-8.2014,-3.690331,4.435097,0.066584,0.001833,-0.008705,32.3,63.7498167358003
12282,-8.208578,-3.69392,4.451249,0.063377,0.012981,-0.012675,32.3,63.687398167323
12292,-8.21157,-3.702295,4.456632,0.060781,0.025351,-0.015882,32.32,63.6754749145334
12302,-8.209774,-3.684947,4.457829,0.057574,0.036957,-0.0197,32.32,63.6472031344668
12312,-8.213365,-3.685545,4.452445,0.053756,0.049327,-0.02474,32.32,63.6836430044039
12322,-8.218149,-3.691527,4.464409,0.050549,0.061545,-0.029932,32.32,63.6397477927767
12332,-8.218747,-3.690929,4.451847,0.045509,0.072846,-0.035736,32.29,63.7046827370432
12342,-8.226524,-3.683152,4.446463,0.040164,0.084147,-0.042302,32.29,63.7420850689255
12352,-8.225328,-3.686741,4.429713,0.030238,0.104763,-0.052534,32.29,63.8287287530991
12362,-8.226524,-3.705884,4.428516,0.024435,0.113468,-0.058032,32.32,63.8573229068384
12372,-8.22772,-3.704688,4.411767,0.0197,0.120646,-0.063225,32.32,63.94459871107
12382,-8.237292,-3.708875,4.391428,0.014966,0.126602,-0.068417,32.29,64.0749999137449
12392,-8.239684,-3.71725,4.369893,0.009774,0.130725,-0.072082,32.29,64.1995513177943
12402,-8.222935,-3.723232,4.359125,0.005803,0.133932,-0.074831,32.3,64.2231237409728
12412,-8.225926,-3.729812,4.339982,0.001527,0.135307,-0.077122,32.3,64.3352145573969
12422,-8.25165,-3.729812,4.323831,-0.001222,0.134238,-0.079107,32.3,64.4762857055304
12432,-8.248059,-3.729214,4.307679,-0.00336,0.1321,-0.07926,32.3,64.5509277740925
12442,-8.235497,-3.735196,4.288536,-0.003818,0.127671,-0.078954,32.36,64.6278038237877
12452,-8.232506,-3.74716,4.27059,-0.005345,0.121409,-0.078343,32.36,64.726147623396
12462,-8.243872,-3.741179,4.255037,-0.005192,0.113926,-0.076053,32.37,64.8259566584406
12472,-8.24148,-3.741776,4.233501,-0.005192,0.104458,-0.072998,32.37,64.9330047997057
12482,-8.240283,-3.75075,4.228117,-0.003207,0.094531,-0.068875,32.29,64.9673436035544
12492,-8.245069,-3.761517,4.209573,-0.000764,0.083689,-0.064294,32.29,65.0850833111508
12502,-8.23789,-3.759125,4.2006,0.002749,0.071929,-0.059101,32.29,65.1136004698436
12512,-8.24148,-3.772883,4.190431,0.006109,0.057727,-0.054062,32.29,65.1882224424501
12522,-8.243872,-3.77408,4.185047,0.010996,0.029474,-0.042608,32.31,65.2226985573826
12532,-8.260024,-3.767499,4.190431,0.020617,0.015577,-0.036499,32.31,65.2233985390428
12542,-8.239087,-3.779463,4.188636,0.027031,0.001069,-0.030238,32.31,65.1989334200637
12552,-8.239684,-3.772285,4.192824,0.032376,-0.012523,-0.024893,32.3,65.1712270591876
12562,-8.240283,-3.768696,4.204788,0.038637,-0.025656,-0.020311,32.3,65.1066628943377
12572,-8.25165,-3.772883,4.211368,0.044135,-0.038637,-0.015272,32.31,65.1015972174524
12582,-8.248658,-3.771089,4.22393,0.049175,-0.050549,-0.010996,32.31,65.0279865809629
12592,-8.249854,-3.768696,4.235895,0.055131,-0.061087,-0.007025,32.29,64.9661299999151
12602,-8.240881,-3.775874,4.249653,0.060018,-0.069028,-0.00336,32.29,64.8822608956091
12612,-8.230712,-3.766901,4.258626,0.06521,-0.076511,-0.000764,32.29,64.8041658982021
12622,-8.233105,-3.772285,4.28734,0.068875,-0.083383,0.000305,32.29,64.6663461674174
12632,-8.240283,-3.766303,4.30409,0.072693,-0.087354,0.001069,32.32,64.5897384506047
12642,-8.225328,-3.766901,4.308277,0.075136,-0.090255,0.002138,32.32,64.5353572025542
12652,-8.234302,-3.766901,4.326822,0.077733,-0.091019,0.002291,32.34,64.4597957246465
12662,-8.222337,-3.761517,4.344768,0.079871,-0.090255,0.000916,32.34,64.3350036974923
12672,-8.228318,-3.749553,4.364508,0.079718,-0.087965,-0.000153,32.33,64.2346378564985
12682,-8.210971,-3.74716,4.389633,0.080481,-0.083536,-0.001374,32.33,64.0638338131993
12692,-8.215158,-3.738786,4.408178,0.079107,-0.078802,-0.006109,32.34,63.969548862244
12702,-8.209177,-3.744768,4.418945,0.074984,-0.063988,-0.009163,32.32,63.9069614507483
12712,-8.187043,-3.741776,4.429713,0.071777,-0.053909,-0.011454,32.32,63.7980359176617
12722,-8.185846,-3.731607,4.436892,0.068875,-0.043524,-0.013134,32.35,63.747847948745
12732,-8.181061,-3.73041,4.456632,0.063988,-0.033139,-0.016493,32.35,63.6345193544815
12742,-8.189436,-3.733402,4.447061,0.059559,-0.021228,-0.019395,32.35,63.7059225014797
12752,-8.179864,-3.726821,4.46381,0.054978,-0.009163,-0.021838,32.35,63.591268033867
12762,-8.182856,-3.718446,4.46082,0.049175,0.002902,-0.024893,32.32,63.6046668040198
12772,-8.186445,-3.722036,4.451249,0.043677,0.015272,-0.027642,32.32,63.6656852434694
12782,-8.185846,-3.713063,4.453641,0.037415,0.027031,-0.029932,32.31,63.642658361139
12792,-8.175676,-3.722036,4.453043,0.032376,0.038943,-0.032834,32.31,63.6316481532927
12802,-8.175676,-3.716652,4.445865,0.027642,0.050396,-0.034208,32.28,63.66275729688
12812,-8.188837,-3.713063,4.435695,0.022755,0.061087,-0.035888,32.28,63.741465076955
12822,-8.182258,-3.712464,4.426722,0.017104,0.070555,-0.039095,32.31,63.7717067816448
12832,-8.186445,-3.720839,4.426722,0.013592,0.079412,-0.039401,32.31,63.7900868483853
12842,-8.196015,-3.710072,4.406384,0.009927,0.087965,-0.041539,32.31,63.9052289335682
12852,-8.200203,-3.705884,4.396811,0.00672,0.094531,-0.042455,32.31,63.9596703551041
12862,-8.208578,-3.705286,4.381258,0.004581,0.100335,-0.043066,32.28,64.058165263021
12872,-8.212168,-3.708277,4.368696,0.002291,0.108887,-0.044135,32.25,64.1340689602443
12882,-8.220542,-3.714259,4.353741,0.00168,0.111636,-0.045357,32.25,64.2362345247693
12892,-8.225328,-3.712464,4.342973,0.002291,0.112857,-0.045968,32.38,64.3007241308732
12902,-8.226524,-3.719045,4.337589,0.003971,0.113316,-0.045509,32.38,64.3379003560607
12912,-8.238488,-3.714857,4.328616,0.005498,0.112399,-0.044746,32.29,64.4068795624057
12922,-8.23131,-3.716652,4.315455,0.007636,0.110567,-0.043677,32.29,64.4604702994005
12932,-8.243275,-3.716652,4.308277,0.01069,0.108581,-0.042761,32.31,64.5244151402004
12942,-8.245069,-3.714259,4.295117,0.013744,0.104458,-0.041844,32.31,64.5940144749923
12952,-8.253444,-3.723232,4.289135,0.01741,0.100029,-0.04047,32.31,64.652696181973
12962,-8.239684,-3.725027,4.273581,0.020311,0.095295,-0.040012,32.31,64.7042784382328
12972,-8.242078,-3.735196,4.277769,0.024129,0.090255,-0.037874,32.35,64.6981947957792
12982,-8.255836,-3.728018,4.267599,0.027642,0.084452,-0.035277,32.35,64.774222962711
12992,-8.248059,-3.728018,4.256832,0.031765,0.077427,-0.033139,32.24,64.8127145351274
13002,-8.256434,-3.721437,4.254438,0.035583,0.069333,-0.031307,32.24,64.8371242351984
13012,-8.247462,-3.729812,4.249055,0.038485,0.061392,-0.028863,32.3,64.8535152821103
13022,-8.256434,-3.728018,4.246064,0.041844,0.053451,-0.027336,32.3,64.8871195382186
13032,-8.254042,-3.74058,4.252046,0.04444,0.045357,-0.024893,32.34,64.8633989939863
13042,-8.248059,-3.74716,4.246662,0.047342,0.027642,-0.019853,32.34,64.8846713100512
13052,-8.25165,-3.738187,4.251448,0.051313,0.019242,-0.018326,32.31,64.858797608826
13062,-8.242078,-3.754339,4.25085,0.053451,0.010843,-0.016188,32.3,64.8569474997774
13072,-8.243872,-3.738786,4.252046,0.053909,0.002138,-0.014966,32.3,64.8390553216334
13082,-8.233105,-3.742374,4.256832,0.053909,-0.006567,-0.013286,32.29,64.7939465010942
13092,-8.243275,-3.742374,4.254438,0.054214,-0.014508,-0.01237,32.29,64.8289407060602
13102,-8.240283,-3.745365,4.260421,0.053756,-0.022602,-0.012523,32.3,64.7943059628718
13112,-8.226524,-3.745365,4.259224,0.053756,-0.02978,-0.01069,32.3,64.769932933804
13122,-8.239684,-3.745964,4.277769,0.052382,-0.036652,-0.01069,32.34,64.7037489044885
13132,-8.234302,-3.753741,4.272385,0.05116,-0.042455,-0.010385,32.34,64.7275180436057
13142,-8.2349,-3.741179,4.284349,0.048717,-0.049022,-0.011301,32.32,64.6541945791809
13152,-8.236693,-3.748357,4.289733,0.046731,-0.053756,-0.012217,32.32,64.637630921833
13162,-8.234302,-3.747759,4.3005,0.045357,-0.057727,-0.013439,32.3,64.5760433578563
13172,-8.245069,-3.736392,4.302295,0.04383,-0.061545,-0.015424,32.3,64.5792997736222
13182,-8.240881,-3.736991,4.323831,0.040623,-0.065515,-0.017715,32.32,64.4594239446179
13192,-8.242078,-3.739982,4.325027,0.037721,-0.066279,-0.019548,32.32,64.458987512344
13202,-8.239684,-3.731607,4.351348,0.036041,-0.067195,-0.022144,32.31,64.3095484842283
13212,-8.236095,-3.741179,4.361517,0.032834,-0.067348,-0.029169,32.31,64.258961182119
13222,-8.237292,-3.729812,4.362714,0.029169,-0.062919,-0.031154,32.3,64.2438735043065
13232,-8.226524,-3.720839,4.384848,0.027947,-0.060323,-0.034514,32.33,64.0965677315858
13242,-8.225328,-3.719643,4.396214,0.025504,-0.056963,-0.038332,32.33,64.034281265431
13252,-8.230114,-3.727419,4.40399,0.023671,-0.051465,-0.041539,32.34,64.0133133836461
13262,-8.221739,-3.726223,4.408178,0.022907,-0.04612,-0.044899,32.34,63.9715438084639
13272,-8.203793,-3.725027,4.412365,0.022144,-0.038943,-0.046578,32.35,63.9078603629759
13282,-8.205587,-3.72383,4.428516,0.021228,-0.030543,-0.048106,32.35,63.8279455566268
13292,-8.204989,-3.712464,4.415356,0.020617,-0.022602,-0.05116,32.31,63.8822218624819
13302,-8.194221,-3.734,4.420142,0.020617,-0.012675,-0.052382,32.31,63.8554124064061
13312,-8.187043,-3.711268,4.431507,0.020311,-0.002749,-0.053298,32.31,63.7569298064752
13322,-8.182258,-3.713661,4.418945,0.020769,0.007789,-0.053298,32.31,63.8128753959485
13332,-8.188239,-3.719643,4.430311,0.021228,0.018173,-0.052993,32.32,63.7745583612959
13342,-8.189436,-3.720839,4.424329,0.021686,0.029016,-0.052229,32.32,63.8092322197819
13352,-8.173882,-3.717848,4.422534,0.022755,0.040164,-0.05116,32.33,63.779552510331
13362,-8.164909,-3.731009,4.421339,0.024587,0.050702,-0.049022,32.33,63.7788475389218
13372,-8.169695,-3.722036,4.409972,0.024893,0.061392,-0.047037,32.33,63.8388535173752
13382,-8.160124,-3.721437,4.393223,0.025809,0.070708,-0.044899,32.33,63.9024432946964
13392,-8.158329,-3.727419,4.389633,0.0281,0.089186,-0.039401,32.3,63.9230894016805
13402,-8.16132,-3.733402,4.381856,0.029474,0.096822,-0.035888,32.36,63.9762964056787
13412,-8.167302,-3.734,4.371089,0.02978,0.103236,-0.032376,32.36,64.0461187129648
13422,-8.169695,-3.735795,4.359125,0.031765,0.109039,-0.029169,32.33,64.1151857983977
13432,-8.175676,-3.734598,4.345964,0.032223,0.114079,-0.02474,32.33,64.1955197096575
13442,-8.190034,-3.739982,4.34417,0.033445,0.116981,-0.021533,32.29,64.2429411087348
13452,-8.190034,-3.739982,4.328018,0.03375,0.118813,-0.018326,32.29,64.3263757353028
13462,-8.194819,-3.748955,4.311268,0.034514,0.119424,-0.016035,32.34,64.4330422702963
13472,-8.204391,-3.748357,4.318447,0.034667,0.118355,-0.014813,32.34,64.4168490760888
13482,-8.216354,-3.741776,4.302894,0.035125,0.116981,-0.011301,32.33,64.5173842868826
13492,-8.225926,-3.748357,4.302894,0.03543,0.112857,-0.010079,32.33,64.5455496498767
13502,-8.237292,-3.748955,4.286144,0.034667,0.108123,-0.010079,32.32,64.6581298122997
13512,-8.247462,-3.74716,4.278367,0.034056,0.102167,-0.009927,32.32,64.7191704531288
13522,-8.25464,-3.748955,4.271188,0.032987,0.0956,-0.009621,32.3,64.7740513616578
13532,-8.269596,-3.747759,4.259224,0.031154,0.087965,-0.010537,32.3,64.8678461277862
13542,-8.282756,-3.751946,4.258028,0.02978,0.079718,-0.011759,32.35,64.9072642318585
13552,-8.3013,-3.756134,4.253242,0.029016,0.070402,-0.014355,32.35,64.9769571264984
13562,-8.295916,-3.747759,4.252644,0.028405,0.049786,-0.018631,32.31,64.9598917516972
13572,-8.289934,-3.751946,4.253242,0.025962,0.039554,-0.020464,32.31,64.947806428108
13582,-8.298907,-3.748955,4.255635,0.025045,0.029322,-0.022907,32.31,64.9522092115589
13592,-8.300702,-3.756134,4.261617,0.023976,0.017562,-0.025809,32.29,64.9324156878466
13602,-8.291729,-3.753741,4.259823,0.023671,0.006872,-0.028253,32.29,64.9195501202256
13612,-8.292925,-3.743571,4.25743,0.021991,-0.004276,-0.029627,32.32,64.9244183196911
13622,-8.280961,-3.753741,4.244269,0.021991,-0.014813,-0.031765,32.32,64.9762512092906
13632,-8.28156,-3.742973,4.248456,0.022755,-0.023976,-0.032223,32.35,64.9451743841885
13642,-8.280362,-3.748357,4.255037,0.023518,-0.033445,-0.032834,32.35,64.9138639627014
13652,-8.262416,-3.748955,4.267001,0.024282,-0.041997,-0.034208,32.29,64.8129404804179
13662,-8.259426,-3.753142,4.267599,0.026114,-0.050549,-0.032987,32.29,64.8074367891149
13672,-8.248059,-3.741179,4.269992,0.0281,-0.057574,-0.032834,32.32,64.7577905237006
13682,-8.230114,-3.738786,4.275974,0.030085,-0.063683,-0.031001,32.32,64.6844459889058
13692,-8.23131,-3.738786,4.281358,0.03207,-0.069791,-0.028863,32.34,64.6592361672295
13702,-8.210971,-3.735196,4.290331,0.035583,-0.074373,-0.027184,32.34,64.5636168218013
13712,-8.215158,-3.72383,4.298706,0.038637,-0.076358,-0.02474,32.3,64.5180624732434
13722,-8.2014,-3.729214,4.319643,0.041692,-0.077885,-0.020464,32.3,64.3842636095771
13732,-8.177471,-3.722634,4.32742,0.044899,-0.078802,-0.013134,32.32,64.2831058656845
13742,-8.176275,-3.732804,4.335794,0.052076,-0.076205,-0.010079,32.3,64.247587731583
13752,-8.176873,-3.725027,4.34417,0.053756,-0.072846,-0.007636,32.3,64.1975866244645
13762,-8.175676,-3.720241,4.356732,0.056658,-0.068111,-0.004123,32.28,64.1250023898074
13772,-8.169695,-3.715455,4.371687,0.058643,-0.063377,-0.002749,32.28,64.0291755903814
13782,-8.172686,-3.711268,4.377669,0.059865,-0.057116,-0.001374,32.32,64.0008098986454
13792,-8.166105,-3.708277,4.402196,0.060781,-0.048411,-0.000153,32.32,63.8562128412259
13802,-8.176873,-3.705286,4.406384,0.060934,-0.040164,0,32.28,63.8563096896934
13812,-8.173882,-3.694518,4.418347,0.061545,-0.030696,-0.000764,32.28,63.776684857672
13822,-8.167302,-3.696313,4.423133,0.059559,-0.020922,-0.002291,32.28,63.7387666290879
13832,-8.175676,-3.701099,4.432704,0.058643,-0.010385,-0.003818,32.28,63.7139557542149
13842,-8.185846,-3.690331,4.450052,0.055436,0.000916,-0.00733,32.33,63.6372698635471
13852,-8.199007,-3.693322,4.447659,0.052382,0.01237,-0.011301,32.33,63.6830617043869
13862,-8.200802,-3.698706,4.445865,0.048717,0.024435,-0.015424,32.3,63.7019857801513
13872,-8.212766,-3.690331,4.458427,0.044593,0.036346,-0.020617,32.3,63.656640048268
13882,-8.203195,-3.697509,4.455436,0.039248,0.047342,-0.025962,32.31,63.6572940217158
13892,-8.213365,-3.7005,4.442276,0.034208,0.058796,-0.03146,32.31,63.7511478839391
13902,-8.221141,-3.705884,4.444668,0.029322,0.069791,-0.037874,32.31,63.7623659026235
13912,-8.220542,-3.70409,4.436294,0.018021,0.088881,-0.04948,32.27,63.8019583542929
13922,-8.243275,-3.701099,4.424927,0.012828,0.096822,-0.055131,32.27,63.9090779292804
13932,-8.240283,-3.701099,4.414758,0.007178,0.105222,-0.060476,32.34,63.9542812066923
13942,-8.249256,-3.716652,4.405785,0.002443,0.111788,-0.064752,32.34,64.0365879557724
13952,-8.240283,-3.72383,4.396811,-0.001985,0.11637,-0.068722,32.32,64.069524486694
13962,-8.244471,-3.733402,4.369295,-0.004429,0.119882,-0.072388,32.32,64.2299519711605
13972,-8.235497,-3.729214,4.356134,-0.008094,0.123242,-0.074067,32.27,64.2730405031076
13982,-8.239684,-3.728616,4.341179,-0.010843,0.124006,-0.075442,32.27,64.3588316309052
13992,-8.238488,-3.739982,4.328616,-0.013286,0.123089,-0.076205,32.34,64.4324370283987
14002,-8.228917,-3.74058,4.301697,-0.013897,0.121104,-0.075442,32.34,64.5505076531964
14012,-8.23131,-3.737589,4.292126,-0.013744,0.117744,-0.073915,32.31,64.6023044524941
14022,-8.225926,-3.748955,4.27059,-0.01237,0.113163,-0.072082,32.31,64.7133166550964
