t_ms,ax,ay,az,gx,gy,gz,temp,ang_deg
12,-8.246264,-3.744169,4.479962,-0.242819,-0.260229,0.029932,32.51,63.6797918947331
22,-8.233703,-3.744768,4.489533,-0.251829,-0.24343,0.018326,32.52,63.6029714998898
32,-8.195418,-3.747759,4.492525,-0.259465,-0.225562,0.007789,32.52,63.502741477094
42,-8.168499,-3.748955,4.492525,-0.272599,-0.184481,-0.007789,32.52,63.4417475045357
52,-8.142776,-3.761517,4.48415,-0.276111,-0.162796,-0.013744,32.49,63.4382829476244
62,-8.140383,-3.760321,4.487739,-0.278402,-0.140957,-0.016952,32.49,63.4131076584656
72,-8.113463,-3.764508,4.4674,-0.279165,-0.120799,-0.0197,32.48,63.4591959701276
82,-8.106883,-3.75733,4.463212,-0.277944,-0.101709,-0.021075,32.48,63.4576470642043
92,-8.092526,-3.775276,4.444668,-0.274737,-0.081551,-0.019395,32.55,63.5389449676264
102,-8.081758,-3.771089,4.430909,-0.270613,-0.064294,-0.016493,32.55,63.5802588803655
112,-8.076973,-3.779463,4.411169,-0.265115,-0.048258,-0.009774,32.49,63.6800442468442
122,-8.070393,-3.77408,4.390232,-0.25748,-0.033903,-0.004276,32.49,63.7672238630428
132,-8.070393,-3.780062,4.372285,-0.249538,-0.020464,0.004123,32.55,63.8666134630495
142,-8.075178,-3.778865,4.366303,-0.241139,-0.008858,0.014813,32.55,63.9073353379402
152,-8.062616,-3.773481,4.362714,-0.232434,0.002138,0.025809,32.54,63.8912410755406
162,-8.065009,-3.776472,4.347161,-0.223729,0.011759,0.038026,32.54,63.9807297338249
172,-8.070393,-3.786642,4.336392,-0.213803,0.021228,0.051313,32.46,64.0599662832672
182,-8.068,-3.787838,4.33041,-0.204945,0.0281,0.064446,32.46,64.0868761075963
192,-8.083553,-3.772285,4.319643,-0.197004,0.035277,0.077122,32.52,64.1617898158154
202,-8.097312,-3.786642,4.309474,-0.188299,0.041692,0.089644,32.52,64.2612927615087
212,-8.107481,-3.77049,4.31067,-0.18158,0.052076,0.112399,32.5,64.2610636873293
222,-8.113463,-3.790231,4.294518,-0.169057,0.05681,0.122784,32.53,64.3794779283648
232,-8.13141,-3.782454,4.288536,-0.163865,0.060628,0.1321,32.53,64.4429179578599
242,-8.148758,-3.782454,4.287939,-0.15913,0.06353,0.140652,32.52,64.4850824396825
252,-8.156534,-3.784847,4.293921,-0.156687,0.06521,0.146913,32.52,64.4740054547784
262,-8.175676,-3.778865,4.286144,-0.153327,0.066279,0.152564,32.51,64.5510898241121
272,-8.199606,-3.786044,4.272385,-0.151953,0.066584,0.157756,32.51,64.6832898515113
282,-8.209774,-3.796213,4.273581,-0.150884,0.064752,0.162185,32.48,64.7101510265096
292,-8.228318,-3.783651,4.27059,-0.150731,0.062003,0.165239,32.48,64.7539321576641
302,-8.246264,-3.784249,4.266403,-0.150273,0.059407,0.16753,32.5,64.815929550944
312,-8.265409,-3.796811,4.259823,-0.151342,0.053756,0.169668,32.5,64.904855944847
322,-8.288737,-3.790829,4.255037,-0.152869,0.047189,0.1715,32.52,64.9747542398766
332,-8.300103,-3.79741,4.245465,-0.155923,0.039248,0.171195,32.52,65.0555973188529
342,-8.319246,-3.795017,4.241877,-0.158061,0.02978,0.170126,32.5,65.1134462386299
352,-8.332406,-3.793222,4.233501,-0.162796,0.01909,0.169057,32.5,65.1834535452755
362,-8.35813,-3.792026,4.222734,-0.166766,0.006261,0.16753,32.52,65.2934427483113
372,-8.365907,-3.791427,4.211967,-0.1715,-0.00733,0.164934,32.52,65.3651056433529
382,-8.392825,-3.794419,4.201797,-0.175776,-0.022144,0.157603,32.49,65.4781854771107
392,-8.392825,-3.796213,4.186841,-0.183412,-0.057574,0.153938,32.52,65.5569735720618
402,-8.386245,-3.79382,4.181458,-0.186772,-0.076969,0.149662,32.52,65.5683747054932
412,-8.399406,-3.789035,4.180261,-0.190132,-0.096822,0.145691,32.51,65.5980228102983
422,-8.39462,-3.800999,4.175476,-0.190132,-0.117592,0.140957,32.51,65.6240255118641
432,-8.379066,-3.789035,4.174878,-0.190285,-0.138514,0.136681,32.54,65.5823863851439
442,-8.374281,-3.782454,4.17727,-0.190285,-0.159436,0.129809,32.54,65.5534317465973
452,-8.355139,-3.792026,4.172484,-0.188757,-0.179747,0.12538,32.56,65.5464639536335
462,-8.349755,-3.790829,4.167699,-0.188299,-0.198684,0.120951,32.56,65.558531715758
472,-8.349156,-3.786642,4.193422,-0.184939,-0.217468,0.115301,32.52,65.4200876213278
482,-8.322835,-3.772883,4.192225,-0.180663,-0.232892,0.110261,32.52,65.3559958991216
492,-8.300702,-3.761517,4.204189,-0.176693,-0.246637,0.106138,32.5,65.2347578842289
502,-8.282157,-3.768696,4.219144,-0.173333,-0.259007,0.100029,32.5,65.1238801894248
512,-8.255239,-3.754937,4.241877,-0.169515,-0.267254,0.095295,32.52,64.9331588390055
522,-8.227122,-3.756732,4.271188,-0.166003,-0.273057,0.091935,32.52,64.7207797445635
532,-8.216953,-3.738786,4.284947,-0.162032,-0.2755,0.087048,32.53,64.6085646431688
542,-8.191828,-3.739383,4.317849,-0.160505,-0.274126,0.082772,32.53,64.3823961361321
552,-8.153543,-3.712464,4.34058,-0.157603,-0.270613,0.07926,32.53,64.1499551779572
562,-8.146365,-3.699304,4.37408,-0.155771,-0.25412,0.072388,32.51,63.9464523195624
572,-8.130214,-3.706482,4.39083,-0.156687,-0.242055,0.068722,32.51,63.8302063288277
582,-8.138588,-3.684349,4.403392,-0.157909,-0.228464,0.06521,32.52,63.7614670641999
592,-8.125427,-3.672385,4.428516,-0.161421,-0.212581,0.062461,32.52,63.5887229730717
602,-8.117052,-3.664608,4.453641,-0.164781,-0.194408,0.060476,32.51,63.4315124629551
612,-8.115856,-3.665206,4.462016,-0.168752,-0.175318,0.058643,32.51,63.3862527270763
622,-8.112267,-3.66042,4.467998,-0.173944,-0.15684,0.054978,32.51,63.3419756035772
632,-8.122437,-3.649653,4.478765,-0.178678,-0.137903,0.052993,32.51,63.2991787901664
642,-8.123035,-3.654438,4.478168,-0.183718,-0.118202,0.050702,32.56,63.3087193353345
652,-8.140981,-3.656831,4.493721,-0.189368,-0.099266,0.048106,32.56,63.2737260494297
662,-8.146365,-3.653242,4.496712,-0.194255,-0.080787,0.046273,32.49,63.2672876147938
672,-8.150552,-3.644867,4.479364,-0.198684,-0.063377,0.044899,32.49,63.3571854402755
682,-8.158927,-3.65384,4.479962,-0.204029,-0.046426,0.044746,32.51,63.3831824105936
692,-8.170293,-3.655635,4.475775,-0.209527,-0.031001,0.043677,32.51,63.4331049253155
702,-8.175079,-3.644269,4.473382,-0.213192,-0.01573,0.043524,32.5,63.4446821872293
712,-8.179267,-3.655635,4.460222,-0.216857,-0.001374,0.043677,32.5,63.5337212956324
722,-8.200203,-3.667599,4.434498,-0.219911,0.011148,0.044593,32.51,63.7265901146077
732,-8.18764,-3.672983,4.426722,-0.224798,0.03207,0.04612,32.51,63.7430337780308
742,-8.196015,-3.675974,4.409374,-0.22602,0.040928,0.048411,32.5,63.8545742928298
752,-8.198408,-3.684349,4.391428,-0.227242,0.049175,0.05116,32.49,63.9610095101356
762,-8.200203,-3.694518,4.378268,-0.228311,0.055131,0.053603,32.49,64.0433441061758
772,-8.200802,-3.696911,4.360919,-0.226631,0.060628,0.058185,32.48,64.1365835694003
782,-8.194221,-3.714259,4.34058,-0.224951,0.064446,0.061392,32.48,64.2444347425664
792,-8.206783,-3.725027,4.325625,-0.224188,0.067195,0.064599,32.51,64.3612010651581
802,-8.212766,-3.721437,4.308876,-0.221897,0.068111,0.068111,32.51,64.4576147871753
812,-8.216354,-3.742973,4.291527,-0.218537,0.069028,0.07254,32.52,64.5774189196098
822,-8.201998,-3.751348,4.285545,-0.215941,0.068417,0.076205,32.52,64.5848163512913
832,-8.212766,-3.766303,4.265805,-0.212734,0.065363,0.080329,32.5,64.726478015417
842,-8.219944,-3.777669,4.251448,-0.209069,0.062003,0.083841,32.5,64.8284655941868
852,-8.228318,-3.796213,4.239483,-0.205098,0.05681,0.085368,32.5,64.9279031855644
862,-8.239087,-3.801597,4.225127,-0.200517,0.050396,0.089186,32.5,65.0315281612644
872,-8.242078,-3.811767,4.216154,-0.197768,0.042608,0.090713,32.49,65.0949416046179
882,-8.255836,-3.81057,4.208377,-0.193797,0.032681,0.091019,32.49,65.1641455067877
892,-8.263614,-3.831507,4.176074,-0.189826,0.021991,0.09331,32.5,65.3698358197065
902,-8.283952,-3.828516,4.173681,-0.185092,0.009774,0.093004,32.5,65.4231836230501
912,-8.286345,-3.844668,4.162913,-0.176845,-0.018784,0.09331,32.49,65.500340375104
922,-8.304291,-3.849453,4.161119,-0.17318,-0.034972,0.09331,32.5,65.5528723907049
932,-8.300702,-3.852444,4.145566,-0.168599,-0.052229,0.092699,32.5,65.6289068202324
942,-8.319246,-3.867399,4.15394,-0.164934,-0.070097,0.091172,32.54,65.6397837351255
952,-8.335398,-3.860221,4.152145,-0.160658,-0.088117,0.090866,32.54,65.6763438797105
962,-8.303095,-3.859025,4.158726,-0.156687,-0.107207,0.089797,32.53,65.5722286291583
972,-8.323434,-3.857828,4.159923,-0.152869,-0.126144,0.088117,32.53,65.608240256267
982,-8.318049,-3.853043,4.163511,-0.148898,-0.144775,0.087659,32.48,65.5734341716135
992,-8.322237,-3.861418,4.174279,-0.14615,-0.163101,0.08659,32.48,65.5349147366897
1002,-8.310871,-3.852444,4.188636,-0.144164,-0.17822,0.085979,32.5,65.4273956766609
1012,-8.297711,-3.852444,4.209573,-0.143248,-0.193339,0.084605,32.5,65.2908180417191
1022,-8.286345,-3.847061,4.225725,-0.142332,-0.206778,0.083536,32.48,65.1773736670529
1032,-8.274381,-3.833302,4.243671,-0.142332,-0.217773,0.083383,32.48,65.044791929017
1042,-8.266603,-3.836293,4.262215,-0.142332,-0.225867,0.083994,32.56,64.9351130818716
1052,-8.248658,-3.821936,4.282554,-0.144011,-0.232587,0.084147,32.56,64.7761599598783
1062,-8.239684,-3.832105,4.322634,-0.146455,-0.235947,0.085827,32.53,64.560352291822
1072,-8.22772,-3.799803,4.341179,-0.148746,-0.236558,0.087812,32.53,64.4050130835312
1082,-8.203793,-3.799803,4.361517,-0.154854,-0.232282,0.087965,32.54,64.2467688620222
1092,-8.185248,-3.788436,4.368696,-0.15913,-0.226936,0.088728,32.5,64.156134897825
1102,-8.184649,-3.781258,4.386642,-0.162032,-0.218537,0.090866,32.5,64.0549802706339
1112,-8.176275,-3.765106,4.400401,-0.165239,-0.209069,0.093004,32.51,63.9482808870086
1122,-8.165507,-3.75733,4.426124,-0.168904,-0.196851,0.093921,32.51,63.7833938328072
1132,-8.148758,-3.738786,4.436294,-0.171806,-0.183565,0.095906,32.5,63.6730328892058
1142,-8.146365,-3.732804,4.453641,-0.174402,-0.168599,0.097433,32.5,63.5721546865214
1152,-8.136793,-3.733402,4.456034,-0.176845,-0.152869,0.099418,32.48,63.5383245943281
1162,-8.142178,-3.722036,4.451847,-0.178678,-0.135765,0.100945,32.48,63.5602214488292
1172,-8.140383,-3.722634,4.452445,-0.180816,-0.116981,0.10232,32.5,63.5536215615877
1182,-8.134401,-3.701099,4.457231,-0.182496,-0.099113,0.102931,32.5,63.4922943801394
1192,-8.141579,-3.707081,4.453043,-0.18326,-0.08094,0.103694,32.52,63.5368427776692
1202,-8.136793,-3.690929,4.46082,-0.18326,-0.062308,0.104916,32.52,63.4686728351803
1212,-8.142776,-3.686144,4.434498,-0.183107,-0.044746,0.104458,32.52,63.6128168255389
1222,-8.148758,-3.683152,4.4339,-0.181274,-0.029169,0.104763,32.52,63.6266507683365
1232,-8.160124,-3.665804,4.426722,-0.180663,-0.013744,0.104,32.53,63.6718175879208
1242,-8.166105,-3.667001,4.395017,-0.179136,-0.000458,0.103542,32.53,63.85023401743
1252,-8.164909,-3.671188,4.388436,-0.173028,0.022755,0.099876,32.51,63.8857660427329
1262,-8.17807,-3.66401,4.366303,-0.169057,0.031307,0.097433,32.56,64.0229347198731
1272,-8.181061,-3.662813,4.359723,-0.165086,0.037721,0.095448,32.56,64.06257753655
1282,-8.194221,-3.667599,4.346562,-0.161879,0.043066,0.094531,32.53,64.1656544285822
1292,-8.209177,-3.668795,4.334598,-0.15852,0.047495,0.092546,32.53,64.2628346560311
1302,-8.199007,-3.67059,4.32742,-0.155007,0.050855,0.090866,32.52,64.278652907661
1312,-8.2014,-3.668795,4.310072,-0.152258,0.052229,0.088575,32.52,64.3721370474653
1322,-8.212766,-3.669394,4.302295,-0.149967,0.052229,0.087354,32.53,64.4388249391899
1332,-8.219346,-3.680759,4.301697,-0.149204,0.050855,0.086743,32.53,64.4682945607539
1342,-8.225926,-3.680161,4.291527,-0.147524,0.048258,0.085368,32.53,64.5352273291673
1352,-8.243275,-3.674777,4.277769,-0.147371,0.044593,0.084758,32.53,64.6401410708325
1362,-8.232506,-3.692126,4.276572,-0.147371,0.040012,0.083689,32.49,64.6395908186692
1372,-8.234302,-3.690331,4.261617,-0.147371,0.034819,0.083689,32.49,64.7194053124574
1382,-8.258827,-3.699902,4.25743,-0.149204,0.029322,0.082161,32.51,64.8054257881339
1392,-8.261221,-3.702893,4.246064,-0.151495,0.022449,0.082772,32.51,64.8726686296972
1402,-8.260622,-3.706482,4.252046,-0.153633,0.014203,0.083383,32.5,64.843889124642
1412,-8.272586,-3.723232,4.235296,-0.156992,0.005651,0.082925,32.5,64.9739045751592
1422,-8.302496,-3.732804,4.231707,-0.160047,-0.01405,0.08094,32.5,65.0678075104624
1432,-8.307282,-3.732804,4.231109,-0.167377,-0.025198,0.080634,32.55,65.0814005043505
1442,-8.321639,-3.744768,4.219144,-0.170584,-0.037263,0.079565,32.55,65.1864647597156
1452,-8.321639,-3.753741,4.231707,-0.174707,-0.049786,0.077274,32.52,65.1303412259654
1462,-8.343175,-3.766901,4.222734,-0.17822,-0.062461,0.074526,32.52,65.2364675531862
1472,-8.335996,-3.766303,4.231707,-0.180663,-0.076969,0.072388,32.53,65.1739828119903
1482,-8.339585,-3.772883,4.223332,-0.182191,-0.091172,0.068722,32.53,65.2314581283759
1492,-8.337791,-3.77049,4.221537,-0.183718,-0.105527,0.066126,32.53,65.2344822193041
1502,-8.334201,-3.77049,4.222135,-0.184176,-0.119271,0.063988,32.53,65.2236016505953
1512,-8.333604,-3.786642,4.23051,-0.184176,-0.132863,0.060781,32.53,65.1949829669368
1522,-8.33121,-3.798606,4.232903,-0.18326,-0.147219,0.057421,32.53,65.1892632442264
1532,-8.328817,-3.8004,4.236493,-0.182496,-0.159589,0.054214,32.52,65.1673400895048
1542,-8.32463,-3.799204,4.24726,-0.180205,-0.171042,0.05284,32.52,65.1015735822666
1552,-8.298308,-3.805186,4.255635,-0.178067,-0.181274,0.049786,32.51,65.0069957476864
1562,-8.289336,-3.801597,4.264608,-0.175318,-0.190132,0.047342,32.51,64.9375026389646
1572,-8.280961,-3.801597,4.277769,-0.172875,-0.197004,0.045357,32.47,64.8512902365937
1582,-8.27139,-3.799204,4.299304,-0.170279,-0.201433,0.043677,32.47,64.7168834028629
1592,-8.244471,-3.8004,4.33041,-0.167988,-0.204182,0.040317,32.54,64.4983842871612
1602,-8.222337,-3.808177,4.331607,-0.165239,-0.203724,0.037874,32.5,64.4508827156285
1612,-8.217552,-3.798008,4.350152,-0.163101,-0.200975,0.03543,32.5,64.3342452453068
1622,-8.203195,-3.795615,4.364508,-0.162185,-0.195477,0.03207,32.51,64.2256816332358
1632,-8.188239,-3.795017,4.38724,-0.163101,-0.188452,0.031154,32.51,64.0744828350127
1642,-8.172686,-3.793222,4.393223,-0.163406,-0.178678,0.029169,32.52,64.0065804501242
1652,-8.161918,-3.790829,4.40399,-0.163712,-0.167835,0.027184,32.52,63.9242322580261
1662,-8.155338,-3.772883,4.42074,-0.164934,-0.155312,0.02642,32.5,63.8041598215498
1672,-8.146365,-3.77408,4.427918,-0.166155,-0.141721,0.024587,32.5,63.7479937113295
1682,-8.132606,-3.771089,4.429115,-0.166308,-0.125991,0.023518,32.49,63.7070140194863
1692,-8.125427,-3.766303,4.430311,-0.166919,-0.110108,0.023671,32.49,63.6792083467122
1702,-8.109874,-3.756732,4.438088,-0.167835,-0.094531,0.024893,32.51,63.5930147452994
1712,-8.115856,-3.768696,4.436294,-0.167835,-0.078802,0.02642,32.51,63.6289213713636
1722,-8.11466,-3.754339,4.425525,-0.167683,-0.062308,0.028711,32.52,63.6661631114848
1732,-8.102695,-3.751946,4.424329,-0.166919,-0.047189,0.031612,32.52,63.6420680683876
1742,-8.107481,-3.759723,4.415356,-0.16585,-0.031307,0.036346,32.55,63.7077084158816
1752,-8.09791,-3.754339,4.400999,-0.164781,-0.017868,0.041539,32.55,63.7538954440902
1762,-8.109276,-3.755535,4.38724,-0.162643,-0.005803,0.046884,32.49,63.8524437608674
1772,-8.101499,-3.741179,4.375276,-0.157756,0.017715,0.062156,32.49,63.8811159807865
1782,-8.095517,-3.747759,4.360321,-0.155618,0.026878,0.07086,32.54,63.9518198513255
1792,-8.118249,-3.741776,4.346562,-0.152105,0.034514,0.079718,32.52,64.0689606006675
1802,-8.12124,-3.74058,4.350152,-0.149051,0.041844,0.08995,32.52,64.0559407769413
1812,-8.132606,-3.739383,4.332804,-0.14615,0.047189,0.099724,32.49,64.1705825886523
1822,-8.142776,-3.725027,4.326822,-0.143401,0.051007,0.110108,32.49,64.2097852031174
1832,-8.154141,-3.731009,4.313063,-0.140041,0.054367,0.12034,32.46,64.3132445129639
1842,-8.180463,-3.722634,4.309474,-0.13775,0.056505,0.129351,32.46,64.3828395350152
1852,-8.182258,-3.727419,4.304688,-0.13607,0.055894,0.137292,32.48,64.416630552577
1862,-8.205587,-3.720839,4.293322,-0.135001,0.056047,0.14447,32.48,64.5213843009299
1872,-8.213962,-3.726223,4.288536,-0.132863,0.054672,0.150426,32.49,64.570481748872
1882,-8.227122,-3.721437,4.293322,-0.133321,0.051771,0.156534,32.49,64.5703505553382
1892,-8.259426,-3.731009,4.281956,-0.133627,0.048106,0.159436,32.48,64.7109532315841
1902,-8.279166,-3.722036,4.278965,-0.133474,0.043219,0.162032,32.48,64.7612961715232
1912,-8.302496,-3.726223,4.27717,-0.134238,0.037263,0.162185,32.53,64.8264214853298
1922,-8.328219,-3.733402,4.269992,-0.135001,0.031001,0.160047,32.53,64.9272344816259
1932,-8.325229,-3.736392,4.258626,-0.137139,0.022602,0.156382,32.55,64.9821826670605
1942,-8.35813,-3.736392,4.259823,-0.139277,0.00336,0.143248,32.55,65.0480788467868
1952,-8.366504,-3.734598,4.24726,-0.14279,-0.008247,0.135307,32.55,65.1292513186477
1962,-8.375478,-3.742973,4.236493,-0.145233,-0.020617,0.125686,32.49,65.2123250162085
1972,-8.389835,-3.742374,4.229912,-0.146608,-0.034208,0.115759,32.49,65.2767301279002
1982,-8.370093,-3.751946,4.231109,-0.147677,-0.046731,0.105527,32.51,65.2370786099416
1992,-8.386844,-3.748955,4.213162,-0.149357,-0.060934,0.094073,32.51,65.3628704341713
2002,-8.377273,-3.75075,4.210171,-0.149357,-0.0759,0.083994,32.53,65.359365488137
2012,-8.359925,-3.757928,4.217948,-0.149204,-0.091019,0.072998,32.53,65.2887057668643
2022,-8.362915,-3.754339,4.201797,-0.149051,-0.106443,0.063225,32.52,65.3750543551161
2032,-8.356933,-3.762714,4.204788,-0.149204,-0.12202,0.054367,32.52,65.3548179467083
2042,-8.332406,-3.761517,4.218546,-0.148746,-0.137139,0.046731,32.53,65.2294318727658
2052,-8.321041,-3.752544,4.208377,-0.147677,-0.152716,0.040012,32.53,65.2485092129526
2062,-8.303694,-3.753142,4.211368,-0.146455,-0.167377,0.03375,32.55,65.1958128465912
2072,-8.288139,-3.760919,4.209573,-0.145233,-0.180816,0.030543,32.55,65.1788486801365
2082,-8.274381,-3.752544,4.226922,-0.144317,-0.192423,0.027489,32.52,65.0504373725756
2092,-8.267202,-3.759723,4.225725,-0.142484,-0.203113,0.026573,32.52,65.0480364192253
2102,-8.242078,-3.751348,4.263412,-0.142026,-0.212734,0.025198,32.54,64.7888365386339
2112,-8.203195,-3.756134,4.28076,-0.141568,-0.220522,0.028558,32.54,64.6171972409192
2122,-8.190034,-3.760321,4.288536,-0.139735,-0.228922,0.030543,32.5,64.5517197958241
2132,-8.16132,-3.750151,4.313063,-0.139583,-0.229074,0.03375,32.53,64.3493970062885
2142,-8.155936,-3.751946,4.334,-0.13943,-0.226326,0.036194,32.53,64.2306169982635
2152,-8.132008,-3.736991,4.361517,-0.140346,-0.221591,0.040012,32.5,64.0179795342177
2162,-8.130214,-3.727419,4.373481,-0.141568,-0.21365,0.045051,32.5,63.9419087136853
2172,-8.120044,-3.728616,4.40399,-0.142026,-0.202655,0.048411,32.5,63.7621743961764
2182,-8.117052,-3.728616,4.432106,-0.143706,-0.18891,0.052382,32.5,63.6103608680219
2192,-8.12782,-3.715455,4.436892,-0.145997,-0.173333,0.055131,32.52,63.5967331528346
2202,-8.116454,-3.716054,4.469792,-0.148288,-0.15516,0.058185,32.52,63.4018671746395
2212,-8.106285,-3.708875,4.478168,-0.151342,-0.135154,0.060934,32.54,63.327392303439
2222,-8.108678,-3.71067,4.487739,-0.155007,-0.113774,0.061697,32.54,63.2858367646271
2232,-8.122437,-3.707081,4.503891,-0.158825,-0.091935,0.062614,32.55,63.2315609855104
2242,-8.123632,-3.698706,4.505087,-0.163101,-0.068875,0.063377,32.55,63.2192825211024
2252,-8.133802,-3.701099,4.508676,-0.166919,-0.046731,0.060781,32.55,63.227372686986
2262,-8.149356,-3.711268,4.502694,-0.170279,-0.02474,0.059865,32.55,63.3052035627089
2272,-8.165507,-3.707081,4.506283,-0.175166,-0.003665,0.057269,32.57,63.3201603354289
2282,-8.199007,-3.702893,4.481757,-0.178831,0.016493,0.05452,32.57,63.5187756915477
2292,-8.207382,-3.695116,4.469195,-0.185703,0.050091,0.045509,32.5,63.5941653675432
2302,-8.210971,-3.699304,4.450052,-0.188299,0.063683,0.040775,32.54,63.7046237021892
2312,-8.219346,-3.701099,4.432704,-0.190743,0.075747,0.037263,32.54,63.8144924476931
2322,-8.220542,-3.713063,4.41416,-0.19227,0.085216,0.033598,32.5,63.924563505538
2332,-8.221141,-3.713661,4.386044,-0.192881,0.091935,0.030543,32.5,64.070804998675
2342,-8.228917,-3.716652,4.36391,-0.193492,0.0956,0.027489,32.54,64.2053119213799
2352,-8.22473,-3.726223,4.342973,-0.19227,0.098349,0.025656,32.54,64.3134309959989
2362,-8.227122,-3.728616,4.316054,-0.190437,0.099266,0.025351,32.52,64.4601290806433
2372,-8.232506,-3.737589,4.287939,-0.187841,0.097128,0.025504,32.52,64.6266359556764
2382,-8.232506,-3.752544,4.275376,-0.185398,0.093921,0.027794,32.52,64.706823117567
2392,-8.222337,-3.754937,4.255037,-0.180816,0.089034,0.03146,32.52,64.792049649651
2402,-8.218747,-3.759723,4.241877,-0.176693,0.082467,0.036499,32.49,64.8572630636457
2412,-8.206783,-3.769892,4.211368,-0.171653,0.074831,0.041844,32.49,64.9998455522842
2422,-8.209177,-3.766303,4.204788,-0.16585,0.066126,0.048258,32.52,65.0357903508204
2432,-8.210971,-3.781258,4.187439,-0.160658,0.055436,0.056352,32.52,65.1453614930852
2442,-8.209774,-3.796811,4.174878,-0.155007,0.04444,0.065057,32.49,65.2240393516792
2452,-8.213365,-3.799204,4.1671,-0.149051,0.032681,0.072693,32.49,65.2749290106886
2462,-8.22473,-3.802794,4.163511,-0.143401,0.007025,0.089797,32.5,65.3220707022252
2472,-8.230114,-3.809374,4.15394,-0.133169,-0.006414,0.097433,32.54,65.3903688634468
2482,-8.233105,-3.811767,4.155136,-0.128434,-0.020464,0.104153,32.54,65.393019142397
2492,-8.255836,-3.804588,4.150949,-0.124158,-0.034972,0.110719,32.51,65.4569237824044
2502,-8.257631,-3.802794,4.154539,-0.119882,-0.04948,0.115606,32.51,65.4402991477157
2512,-8.289934,-3.817749,4.156931,-0.116064,-0.064294,0.12034,32.53,65.5123976693268
2522,-8.28455,-3.814758,4.152744,-0.113468,-0.080481,0.122173,32.53,65.5196286916322
2532,-8.298308,-3.821338,4.161717,-0.112705,-0.096059,0.124006,32.5,65.5090846467008
2542,-8.30788,-3.806383,4.175476,-0.111788,-0.111941,0.124006,32.5,65.4434866461698
2552,-8.322835,-3.816552,4.183252,-0.110567,-0.128434,0.12202,32.5,65.4454114654237
2562,-8.325827,-3.811767,4.182654,-0.110567,-0.143859,0.119577,32.5,65.450226334664
2572,-8.333604,-3.799803,4.197609,-0.110872,-0.158978,0.116828,32.48,65.3778333203187
2582,-8.3348,-3.80399,4.218546,-0.111941,-0.174707,0.113163,32.48,65.2764025198438
2592,-8.34138,-3.805186,4.226323,-0.113774,-0.188757,0.107665,32.54,65.2516989651624
2602,-8.33121,-3.796213,4.246662,-0.115301,-0.20128,0.103542,32.54,65.1159963482982
2612,-8.320443,-3.785445,4.260421,-0.118508,-0.214414,0.097433,32.52,65.0109937934254
2622,-8.308478,-3.786642,4.299902,-0.121868,-0.224798,0.092546,32.52,64.7829133901644
2632,-8.297112,-3.771687,4.316054,-0.124464,-0.233045,0.084147,32.5,64.6598517153787
2642,-8.292327,-3.76391,4.336392,-0.13271,-0.243888,0.079107,32.5,64.5370253146717
2652,-8.28156,-3.756134,4.352544,-0.136681,-0.246026,0.074067,32.5,64.4223386926972
2662,-8.26481,-3.756134,4.364508,-0.139735,-0.244957,0.07025,32.54,64.3235013937031
2672,-8.244471,-3.753142,4.395615,-0.143553,-0.240986,0.066126,32.54,64.1152638697936
2682,-8.232506,-3.746562,4.406981,-0.147677,-0.235183,0.062766,32.55,64.0231829083699
2692,-8.2014,-3.737589,4.427918,-0.150426,-0.226478,0.059865,32.55,63.8357502031622
2702,-8.185846,-3.729214,4.432704,-0.15348,-0.213956,0.056505,32.52,63.766800159804
2712,-8.173882,-3.719045,4.452445,-0.156076,-0.200822,0.054978,32.52,63.6274197858271
2722,-8.143971,-3.722036,4.465605,-0.156229,-0.186161,0.052993,32.49,63.4938388713938
2732,-8.132606,-3.713661,4.470391,-0.15684,-0.167988,0.052382,32.49,63.4339418089534
2742,-8.128419,-3.714259,4.473382,-0.157909,-0.148135,0.050396,32.5,63.4094767871821
2752,-8.097312,-3.707679,4.486543,-0.157756,-0.127518,0.049175,32.5,63.2620662396177
2762,-8.103294,-3.70409,4.485346,-0.156229,-0.105374,0.04948,32.51,63.2784055263222
2772,-8.082357,-3.691527,4.49073,-0.154243,-0.082467,0.04948,32.51,63.1879391634261
2782,-8.079366,-3.692724,4.493123,-0.153022,-0.059559,0.049938,32.5,63.1698756303107
2792,-8.075178,-3.680161,4.484748,-0.151647,-0.036194,0.050549,32.5,63.1894649476239
2802,-8.066804,-3.681358,4.469195,-0.149357,-0.013592,0.05116,32.54,63.2510241054449
2812,-8.085946,-3.676572,4.456034,-0.145233,0.029627,0.053145,32.52,63.3588400220035
2822,-8.08475,-3.680759,4.453641,-0.143401,0.050091,0.054825,32.52,63.3728412909993
2832,-8.098508,-3.685545,4.4339,-0.141873,0.068111,0.057269,32.55,63.5120169273488
2842,-8.114061,-3.681956,4.416552,-0.14111,0.084452,0.059101,32.55,63.6340419844295
2853,-8.117052,-3.682554,4.408178,-0.140957,0.098044,0.060781,32.54,63.6848753169084
2862,-8.13799,-3.680161,4.39083,-0.140652,0.109956,0.062308,32.54,63.8205539287779
2872,-8.161918,-3.680161,4.374678,-0.141415,0.120188,0.063988,32.52,63.9592176333549
2882,-8.175676,-3.681956,4.366303,-0.142332,0.126755,0.064599,32.52,64.035943411081
2892,-8.195418,-3.693322,4.333402,-0.144011,0.131336,0.066432,32.51,64.2627611839683
2902,-8.205587,-3.689733,4.320241,-0.145691,0.133627,0.06689,32.51,64.3502636958772
2912,-8.234302,-3.695715,4.303492,-0.14844,0.132252,0.067653,32.53,64.5078291341373
2922,-8.248658,-3.690929,4.287939,-0.150578,0.129045,0.068264,32.53,64.6157178994872
2932,-8.253444,-3.703491,4.278367,-0.153174,0.1237,0.068417,32.52,64.6885601980487
2942,-8.268398,-3.707679,4.262814,-0.155007,0.116523,0.069333,32.52,64.8065711688433
2952,-8.287541,-3.704688,4.241877,-0.157909,0.10736,0.06857,32.5,64.9544555726773
2962,-8.30788,-3.714857,4.234099,-0.159894,0.095295,0.068722,32.5,65.049578819184
2972,-8.329416,-3.731009,4.211967,-0.162032,0.082161,0.067806,32.54,65.2270877941616
2982,-8.337193,-3.742973,4.188038,-0.163865,0.052382,0.066432,32.54,65.3795592492897
2992,-8.333604,-3.74058,4.186243,-0.166003,0.036194,0.065668,32.51,65.3787579550845
3002,-8.341978,-3.759723,4.182056,-0.166003,0.018631,0.063988,32.49,65.4371870827641
3012,-8.344969,-3.768696,4.18086,-0.166155,0.000458,0.062766,32.49,65.4585610512271
3022,-8.353942,-3.77049,4.179663,-0.165697,-0.017562,0.061087,32.53,65.4858185694403
3032,-8.35155,-3.779463,4.168896,-0.165239,-0.035888,0.060934,32.53,65.5451339313029
3042,-8.356933,-3.776472,4.176672,-0.163559,-0.053756,0.06017,32.51,65.5135313359315
3052,-8.350353,-3.779463,4.170092,-0.163101,-0.071929,0.058796,32.51,65.5363707469463
3062,-8.347363,-3.786642,4.16411,-0.161574,-0.089186,0.05681,32.51,65.5679230461332
3072,-8.336594,-3.800999,4.181458,-0.159436,-0.10736,0.055436,32.51,65.4689865842878
3082,-8.340183,-3.807579,4.174878,-0.157145,-0.124617,0.054978,32.54,65.5171919637138
3093,-8.330612,-3.814159,4.177869,-0.154702,-0.140804,0.053298,32.54,65.4876302231308
3102,-8.322237,-3.812963,4.17727,-0.153174,-0.157451,0.051465,32.5,65.4715685283062
3112,-8.327023,-3.815356,4.185645,-0.149509,-0.172111,0.05116,32.5,65.4408507539687
3122,-8.306684,-3.841677,4.186841,-0.147371,-0.186619,0.050091,32.48,65.4169843295677
3132,-8.289336,-3.825525,4.209573,-0.14447,-0.201127,0.047953,32.48,65.2457724997732
3142,-8.279764,-3.829713,4.216752,-0.141415,-0.214566,0.046426,32.52,65.1920550873186
3152,-8.27139,-3.826123,4.234698,-0.138361,-0.226173,0.045204,32.52,65.0773911317221
3162,-8.244471,-3.821936,4.252644,-0.130725,-0.244193,0.045204,32.53,64.9214347193221
3172,-8.23789,-3.81715,4.261019,-0.128282,-0.251371,0.044135,32.54,64.8587696432447
3182,-8.21157,-3.811168,4.281358,-0.125533,-0.256258,0.04444,32.54,64.6892679065954
3192,-8.199007,-3.806981,4.294518,-0.122173,-0.258549,0.045204,32.48,64.5889537673477
3202,-8.190034,-3.802794,4.320241,-0.11973,-0.258549,0.045357,32.48,64.4316448811057
3212,-8.173284,-3.808177,4.342375,-0.117744,-0.256258,0.045357,32.53,64.2854209630857
3222,-8.148159,-3.800999,4.358526,-0.116064,-0.25076,0.047495,32.53,64.1377754294105
3232,-8.148758,-3.78724,4.388436,-0.114385,-0.242666,0.049175,32.52,63.9704121215209
3242,-8.127223,-3.78066,4.407579,-0.113621,-0.231518,0.051007,32.52,63.8156054047203
3252,-8.108678,-3.78066,4.425525,-0.113468,-0.218842,0.052534,32.51,63.6805806376508
3262,-8.096116,-3.772883,4.448855,-0.113621,-0.202196,0.055131,32.51,63.5231598746597
3272,-8.087741,-3.762714,4.47398,-0.115148,-0.184023,0.057269,32.52,63.3636133028548
3282,-8.081758,-3.751946,4.483552,-0.116828,-0.162032,0.059712,32.52,63.2888064088286
3292,-8.079964,-3.748357,4.494917,-0.118813,-0.139888,0.061392,32.54,63.2224040178799
3302,-8.085348,-3.741776,4.510471,-0.121409,-0.115301,0.064904,32.54,63.1482065305046
3312,-8.087142,-3.732804,4.521836,-0.124922,-0.090866,0.067959,32.49,63.0845147774969
3322,-8.084151,-3.720839,4.523632,-0.127518,-0.065973,0.070097,32.49,63.0552541603769
3332,-8.081161,-3.705286,4.515854,-0.135612,-0.012981,0.076358,32.52,63.0711162681713
3342,-8.082357,-3.723232,4.514658,-0.139888,0.011301,0.078496,32.53,63.0995531136133
3352,-8.101499,-3.719045,4.510471,-0.143095,0.034514,0.080787,32.53,63.1615545638961
3362,-8.115258,-3.705884,4.487141,-0.147066,0.056352,0.082772,32.52,63.299204359159
3372,-8.132606,-3.713661,4.481159,-0.150426,0.0759,0.084605,32.52,63.3787627498492
3382,-8.149356,-3.698706,4.464409,-0.153633,0.093921,0.087506,32.54,63.4877766059399
3392,-8.138588,-3.698107,4.442276,-0.156382,0.109498,0.088575,32.54,63.5756999229523
3402,-8.168499,-3.699304,4.425525,-0.158825,0.122478,0.090866,32.53,63.7323675867127
3412,-8.181061,-3.701697,4.398606,-0.159741,0.132863,0.092088,32.53,63.90221371753
3422,-8.195418,-3.699902,4.378268,-0.16081,0.140652,0.092393,32.55,64.0379569398102
3432,-8.208578,-3.69392,4.351348,-0.161268,0.145539,0.093157,32.55,64.2005921911287
3442,-8.227122,-3.699902,4.32742,-0.160505,0.148898,0.094837,32.49,64.3722284734632
3452,-8.246264,-3.699902,4.311268,-0.159894,0.148135,0.094684,32.49,64.4987652357915
3462,-8.256434,-3.711866,4.295715,-0.159283,0.144928,0.094531,32.51,64.6139417651783
3472,-8.266603,-3.709473,4.266403,-0.156382,0.140194,0.092546,32.51,64.7857912119693
3482,-8.277372,-3.712464,4.242475,-0.153785,0.133474,0.093768,32.55,64.9365740292993
3492,-8.309675,-3.728018,4.208975,-0.151036,0.1237,0.092393,32.55,65.1965689534167
3502,-8.30788,-3.72383,4.19402,-0.144775,0.100182,0.089492,32.51,65.2661289807267
3512,-8.312068,-3.719643,4.186841,-0.142026,0.085827,0.086896,32.54,65.3084519069702
3522,-8.320443,-3.734,4.174878,-0.138056,0.07025,0.08491,32.54,65.4027891772997
3532,-8.325229,-3.735196,4.170092,-0.133627,0.053756,0.08094,32.5,65.4391856611816
3542,-8.335996,-3.744169,4.155735,-0.130725,0.036805,0.079107,32.5,65.545733752776
3552,-8.339585,-3.736392,4.141976,-0.127365,0.01909,0.076358,32.53,65.6174738515261
3562,-8.333604,-3.742374,4.155735,-0.125075,0.000764,0.073304,32.53,65.538838945687
3572,-8.336594,-3.751946,4.152744,-0.122631,-0.01741,0.070402,32.52,65.5700914599705
3582,-8.343175,-3.756134,4.144369,-0.120188,-0.037263,0.066432,32.52,65.6317993863087
3592,-8.337193,-3.754937,4.141976,-0.117897,-0.056352,0.063988,32.53,65.630238336805
3602,-8.335996,-3.744768,4.14078,-0.117744,-0.076511,0.059254,32.53,65.624057729356
3612,-8.344969,-3.767499,4.149154,-0.117897,-0.09499,0.0562,32.5,65.6217867323629
3622,-8.339585,-3.772883,4.158128,-0.11805,-0.114385,0.053145,32.5,65.5688779169681
3632,-8.340183,-3.771089,4.161717,-0.118661,-0.132863,0.050091,32.54,65.5497995838569
3642,-8.335996,-3.765705,4.176672,-0.118355,-0.151647,0.047495,32.54,65.4580011246061
3652,-8.329416,-3.763312,4.173083,-0.119882,-0.169362,0.045051,32.52,65.4600816354756
3662,-8.312068,-3.779463,4.204788,-0.122326,-0.186925,0.043371,32.52,65.2740785557266
3672,-8.303095,-3.783651,4.220341,-0.123853,-0.216704,0.039248,32.51,65.1782331890733
3682,-8.272586,-3.77049,4.229314,-0.128282,-0.228311,0.038179,32.54,65.0520088472033
3692,-8.28156,-3.783053,4.241877,-0.131031,-0.239459,0.037415,32.54,65.0192241705801
3702,-8.250452,-3.762115,4.25743,-0.134085,-0.247859,0.037415,32.49,64.8492327073179
3712,-8.245069,-3.772285,4.275376,-0.136376,-0.25412,0.037415,32.49,64.7547550713254
3722,-8.233105,-3.762115,4.305884,-0.138666,-0.258549,0.037415,32.54,64.5601940530238
3732,-8.218747,-3.767499,4.326224,-0.140499,-0.25977,0.037721,32.54,64.4286373131064
3742,-8.214561,-3.769294,4.339384,-0.142637,-0.258854,0.037721,32.55,64.353256971225
3752,-8.185248,-3.749553,4.361517,-0.144928,-0.255342,0.038332,32.55,64.152536372328
3762,-8.177471,-3.751946,4.372883,-0.14615,-0.248622,0.03879,32.51,64.0787866697178
3772,-8.170293,-3.753741,4.399205,-0.147371,-0.240375,0.038485,32.51,63.9288304596606
3782,-8.159525,-3.756134,4.411767,-0.148288,-0.229533,0.038332,32.54,63.8421272790325
3792,-8.151151,-3.745365,4.439882,-0.149357,-0.216399,0.038485,32.54,63.6671145245851
3802,-8.137392,-3.749553,4.445865,-0.150731,-0.199906,0.038179,32.55,63.6090854361627
3812,-8.13141,-3.752544,4.477569,-0.150273,-0.182038,0.038179,32.55,63.435937360553
3822,-8.120044,-3.735196,4.488935,-0.150731,-0.163101,0.038485,32.52,63.3326580495559
3832,-8.112267,-3.745365,4.50748,-0.150884,-0.141873,0.037263,32.52,63.2305661385834
3842,-8.103892,-3.73041,4.510471,-0.151647,-0.120035,0.039095,32.51,63.1794638882874
3852,-8.109276,-3.735795,4.509872,-0.150426,-0.072846,0.04047,32.51,63.200986170087
3862,-8.099107,-3.731607,4.515854,-0.150731,-0.048106,0.040928,32.51,63.1419818495567
3872,-8.089535,-3.728616,4.511069,-0.15012,-0.023671,0.041692,32.52,63.140695343817
3882,-8.095517,-3.731607,4.500899,-0.149357,0.000764,0.043982,32.52,63.2100802625901
3892,-8.090134,-3.729812,4.493123,-0.149357,0.023824,0.04612,32.57,63.2353432173413
3902,-8.10449,-3.73041,4.482953,-0.14844,0.046273,0.050091,32.57,63.3217905495377
3912,-8.124231,-3.734,4.48415,-0.148288,0.067348,0.052076,32.55,63.3656464121153
3922,-8.123035,-3.737589,4.46082,-0.147829,0.085979,0.05452,32.55,63.4862828688639
3932,-8.132008,-3.735196,4.430311,-0.147219,0.10232,0.057116,32.49,63.6612532679551
3942,-8.146963,-3.734,4.41416,-0.14615,0.116064,0.059101,32.49,63.7775865584949
3952,-8.158927,-3.738786,4.384848,-0.145386,0.126755,0.062308,32.49,63.9610389783602
3962,-8.163713,-3.741179,4.351348,-0.143401,0.135307,0.064599,32.49,64.1473426986924
3972,-8.176873,-3.737589,4.342375,-0.143553,0.140346,0.066584,32.5,64.2198865903822
3982,-8.193025,-3.745365,4.318447,-0.142026,0.143095,0.069486,32.5,64.3881669402916
3992,-8.205587,-3.754339,4.3005,-0.14111,0.142179,0.071471,32.52,64.5184818483749
4002,-8.230712,-3.756134,4.275974,-0.140652,0.138361,0.07254,32.52,64.703378772692
4012,-8.244471,-3.76391,4.234698,-0.138666,0.133932,0.076511,32.49,64.9556557914858
4022,-8.266603,-3.76391,4.22094,-0.135918,0.114079,0.077885,32.49,65.0757230255495
4032,-8.263614,-3.763312,4.205386,-0.135459,0.102014,0.079718,32.48,65.1493246714619
4042,-8.277969,-3.77049,4.189833,-0.13439,0.08827,0.080329,32.53,65.2686292642073
4052,-8.292327,-3.779463,4.179065,-0.133016,0.072235,0.082314,32.53,65.3646583904225
4062,-8.294122,-3.777071,4.159923,-0.132252,0.056047,0.084452,32.49,65.4657004617656
4072,-8.296515,-3.76391,4.158726,-0.131489,0.039248,0.085521,32.49,65.4641681787683
4082,-8.310272,-3.771687,4.150351,-0.130725,0.020769,0.086896,32.5,65.545066323256
4092,-8.317451,-3.782454,4.15394,-0.131183,0.000916,0.087354,32.5,65.5523869702298
4102,-8.319246,-3.78066,4.155735,-0.131031,-0.01741,0.089644,32.52,65.5451666359263
4112,-8.318049,-3.79382,4.150949,-0.129962,-0.034667,0.091019,32.52,65.5803352608911
4122,-8.318647,-3.790231,4.157529,-0.130114,-0.052382,0.093615,32.5,65.5439244076735
4132,-8.319845,-3.789633,4.165306,-0.129962,-0.071166,0.094531,32.5,65.5055395285589
4142,-8.318049,-3.78724,4.170092,-0.129351,-0.088117,0.095906,32.51,65.4744898999512
4152,-8.31147,-3.785445,4.181458,-0.128587,-0.104458,0.097738,32.51,65.3995681124397
4162,-8.315059,-3.78066,4.183851,-0.129045,-0.121562,0.098349,32.5,65.3902098666153
4172,-8.320443,-3.777669,4.19402,-0.127976,-0.136223,0.099876,32.5,65.3462209602642
4182,-8.33121,-3.769892,4.205984,-0.128129,-0.149967,0.098655,32.52,65.2999875682334
4192,-8.325827,-3.767499,4.219743,-0.127213,-0.176235,0.096669,32.52,65.2148231942897
4202,-8.325229,-3.77049,4.24068,-0.127213,-0.188299,0.094379,32.5,65.1083677115537
4212,-8.318647,-3.760919,4.251448,-0.127365,-0.198837,0.091324,32.52,65.028987092994
4222,-8.308478,-3.764508,4.259224,-0.127213,-0.208305,0.086896,32.52,64.9701634669415
4232,-8.310272,-3.756134,4.27059,-0.127518,-0.216246,0.082772,32.52,64.9071911369509
4242,-8.292925,-3.760321,4.285545,-0.125991,-0.22266,0.078038,32.52,64.7960971184729
4252,-8.285149,-3.748955,4.305286,-0.124769,-0.228005,0.072235,32.54,64.6658339785666
4262,-8.264212,-3.747759,4.314259,-0.124464,-0.230754,0.066584,32.54,64.5718479714595
4272,-8.268398,-3.742973,4.332206,-0.124922,-0.232129,0.059865,32.54,64.4840029625249
4282,-8.247462,-3.731607,4.351946,-0.124158,-0.231671,0.055131,32.54,64.3239970491868
4292,-8.23131,-3.741776,4.360321,-0.124006,-0.227853,0.049022,32.53,64.2549236013289
4302,-8.214561,-3.722634,4.39083,-0.124769,-0.22266,0.043066,32.53,64.040484484196
4312,-8.195418,-3.726223,4.405187,-0.12538,-0.215025,0.038179,32.5,63.9267853802511
4322,-8.19123,-3.712464,4.411767,-0.126449,-0.204487,0.033598,32.5,63.8690946422354
4332,-8.161918,-3.716054,4.438686,-0.127365,-0.192728,0.02978,32.55,63.6671553443018
4342,-8.146963,-3.71067,4.449454,-0.128129,-0.177915,0.026878,32.55,63.5715702747484
4352,-8.139186,-3.705286,4.468596,-0.130267,-0.161879,0.024893,32.52,63.4495834799603
4362,-8.101499,-3.695116,4.472186,-0.130878,-0.144011,0.023671,32.52,63.3321357445112
4372,-8.092526,-3.701697,4.475775,-0.136376,-0.103236,0.02474,32.55,63.2996761588217
4382,-8.081758,-3.702295,4.482953,-0.139125,-0.082009,0.02642,32.51,63.2380973592701
4392,-8.070393,-3.696911,4.490132,-0.141873,-0.059712,0.028253,32.51,63.1685659020082
4402,-8.073982,-3.7005,4.492525,-0.144928,-0.038026,0.030849,32.48,63.1686358853647
4412,-8.069795,-3.696911,4.481757,-0.148898,-0.016035,0.03375,32.48,63.2102139027304
4422,-8.077571,-3.699902,4.478168,-0.151342,0.005803,0.038332,32.53,63.2502462175689
4432,-8.082954,-3.690929,4.472186,-0.153938,0.026573,0.042761,32.53,63.2840293437448
4442,-8.09133,-3.698107,4.465605,-0.157145,0.045662,0.046273,32.51,63.3452979008905
4452,-8.105088,-3.690331,4.432106,-0.160199,0.06353,0.050396,32.51,63.5417435066997
4462,-8.12124,-3.709473,4.419543,-0.163101,0.080023,0.054978,32.55,63.6644390592197
4472,-8.136793,-3.705286,4.41416,-0.16585,0.094379,0.059865,32.55,63.7238046880074
4482,-8.151749,-3.705884,4.386642,-0.166613,0.105527,0.063835,32.52,63.9008452379011
4492,-8.169096,-3.714259,4.374678,-0.168293,0.113926,0.065668,32.52,64.0111286806117
4502,-8.185248,-3.714857,4.354339,-0.169821,0.12034,0.069333,32.5,64.1535932753531
4512,-8.200802,-3.720241,4.325027,-0.170279,0.124464,0.07254,32.5,64.3458688848346
4522,-8.222935,-3.720839,4.316054,-0.171042,0.12538,0.073762,32.53,64.4427899565569
4532,-8.261818,-3.736392,4.273581,-0.170737,0.122937,0.075442,32.53,64.7649713332511
4542,-8.274979,-3.745365,4.25743,-0.169668,0.111177,0.076816,32.52,64.8866217720289
4552,-8.291729,-3.753142,4.241877,-0.167988,0.101709,0.076053,32.53,65.0116957016942
4562,-8.30788,-3.761517,4.222135,-0.166003,0.089492,0.075747,32.53,65.1574686240545
4572,-8.325827,-3.756732,4.22094,-0.164017,0.076358,0.075747,32.54,65.1980518581902
4582,-8.327621,-3.765106,4.200002,-0.162796,0.061239,0.07422,32.54,65.3184672568566
4592,-8.346764,-3.760919,4.197609,-0.16081,0.044593,0.071929,32.51,65.368194381632
4602,-8.353344,-3.767499,4.188636,-0.157451,0.026878,0.069944,32.51,65.4352037435095
4612,-8.356933,-3.782454,4.182056,-0.155618,0.008552,0.068264,32.52,65.4914911097356
4622,-8.340183,-3.794419,4.167699,-0.152258,-0.009774,0.067501,32.52,65.5415068200643
4632,-8.353344,-3.787838,4.169494,-0.150426,-0.02978,0.064446,32.54,65.5540210863062
4642,-8.365907,-3.790231,4.163511,-0.146913,-0.04948,0.062461,32.54,65.6141956557473
4652,-8.340183,-3.795615,4.165905,-0.145233,-0.067959,0.060628,32.55,65.5519695134595
4662,-8.339585,-3.812963,4.1671,-0.142332,-0.086437,0.057879,32.55,65.561450433983
4672,-8.326425,-3.805784,4.176074,-0.139583,-0.104763,0.056352,32.54,65.4797044381006
4682,-8.31147,-3.809374,4.176672,-0.137139,-0.121409,0.055131,32.54,65.4479689426814
4692,-8.306684,-3.808177,4.179065,-0.134238,-0.136681,0.05284,32.52,65.4240677169445
4702,-8.298308,-3.813561,4.2006,-0.132405,-0.151953,0.052534,32.52,65.299722090045
4712,-8.259426,-3.812365,4.199404,-0.130114,-0.177456,0.051618,32.53,65.2203480189335
4722,-8.266603,-3.81057,4.225725,-0.125991,-0.187536,0.051924,32.54,65.0977070357919
4732,-8.2349,-3.805784,4.238885,-0.1237,-0.196546,0.053451,32.54,64.9552209383403
4742,-8.228318,-3.805784,4.250251,-0.121257,-0.203571,0.054672,32.51,64.8818238934721
4752,-8.228318,-3.808775,4.26401,-0.119882,-0.209527,0.056352,32.51,64.8136344506672
4762,-8.213962,-3.800999,4.271787,-0.118966,-0.213497,0.059407,32.53,64.733647170683
4772,-8.188837,-3.790231,4.279563,-0.117744,-0.216552,0.061087,32.53,64.6263932131179
4782,-8.190034,-3.793222,4.304688,-0.115301,-0.216246,0.065363,32.52,64.5020740527121
4792,-8.184052,-3.799204,4.30409,-0.115148,-0.215635,0.067653,32.52,64.4979865658577
4802,-8.173882,-3.784249,4.320839,-0.114079,-0.213497,0.069944,32.54,64.3729710140475
4812,-8.151151,-3.775276,4.353741,-0.113163,-0.208916,0.072693,32.54,64.1421357675576
4822,-8.148758,-3.769892,4.362714,-0.113621,-0.203265,0.076511,32.55,64.084691967887
4832,-8.155338,-3.759723,4.384848,-0.113468,-0.195477,0.07926,32.55,63.9748381335118
4842,-8.146963,-3.756134,4.405187,-0.113774,-0.186314,0.081398,32.54,63.847150831147
4852,-8.139186,-3.762115,4.420142,-0.115606,-0.175318,0.083689,32.54,63.7587086832281
4862,-8.129615,-3.741179,4.441079,-0.117439,-0.16249,0.086437,32.54,63.6067365102349
4872,-8.151151,-3.74058,4.46381,-0.120951,-0.14844,0.087201,32.54,63.5393973567008
4882,-8.136793,-3.719045,4.470391,-0.123547,-0.132863,0.089034,32.53,63.4494316338796
4892,-8.139785,-3.713661,4.484748,-0.13042,-0.098655,0.089644,32.46,63.3771476850013
4902,-8.142776,-3.711268,4.488935,-0.134848,-0.080329,0.089644,32.46,63.3601589301503
4912,-8.152347,-3.713661,4.491926,-0.138819,-0.060781,0.087659,32.54,63.3697444411498
4922,-8.148159,-3.7005,4.490132,-0.142637,-0.040928,0.086743,32.54,63.3551665504926
4932,-8.146963,-3.698706,4.492525,-0.147066,-0.02138,0.08491,32.5,63.3382277231184
4942,-8.149954,-3.699902,4.504489,-0.152564,-0.001985,0.083078,32.5,63.285346948675
4952,-8.158927,-3.680759,4.488935,-0.155771,0.017257,0.080787,32.52,63.3655720477785
4962,-8.165507,-3.686741,4.479364,-0.160047,0.035583,0.078954,32.52,63.4361989502024
4972,-8.170892,-3.686741,4.472784,-0.163406,0.053298,0.076358,32.52,63.4824123457774
4982,-8.185846,-3.685545,4.454239,-0.166003,0.068875,0.073915,32.52,63.6108302792518
4992,-8.183454,-3.689733,4.438686,-0.168446,0.083536,0.070097,32.49,63.6893720467261
5002,-8.192427,-3.695116,4.409972,-0.169973,0.096211,0.066279,32.49,63.8630518429699
5012,-8.20798,-3.702295,4.395017,-0.171348,0.105832,0.063835,32.51,63.9829737445595
5022,-8.213365,-3.695116,4.373481,-0.1715,0.113926,0.061087,32.51,64.0986518251784
5032,-8.225926,-3.695116,4.342375,-0.170584,0.11973,0.059101,32.51,64.2874809622325
5042,-8.238488,-3.68734,4.324429,-0.170126,0.121409,0.056352,32.51,64.4006116424711
5052,-8.250452,-3.699304,4.279563,-0.167683,0.121257,0.054825,32.52,64.6714864736756
5062,-8.266006,-3.722036,4.244868,-0.162032,0.11301,0.052229,32.52,64.9085422916128
5072,-8.255836,-3.70409,4.231707,-0.158214,0.104305,0.05116,32.5,64.9364489833704
5082,-8.273782,-3.727419,4.212564,-0.153938,0.094073,0.051313,32.53,65.0986723125762
5094,-8.272586,-3.726821,4.192824,-0.149967,0.081398,0.052076,32.53,65.1980837780317
5102,-8.286345,-3.728616,4.175476,-0.145386,0.066737,0.05284,32.52,65.320237144122
5112,-8.291131,-3.742973,4.166502,-0.141568,0.051007,0.054672,32.52,65.3914695612673
5122,-8.288737,-3.739982,4.152744,-0.138208,0.03375,0.055741,32.55,65.4550161332484
5132,-8.300103,-3.744768,4.138985,-0.133932,0.01573,0.056963,32.55,65.5560458086953
5142,-8.30788,-3.749553,4.143771,-0.131336,-0.003971,0.058796,32.52,65.5525592880001
5152,-8.309675,-3.752544,4.136592,-0.128434,-0.023824,0.061239,32.52,65.5967478597628
5162,-8.319246,-3.756732,4.137789,-0.126602,-0.043677,0.062308,32.5,65.6151903192667
5172,-8.307282,-3.765705,4.134798,-0.125838,-0.06353,0.063683,32.5,65.6137653831912
5182,-8.307282,-3.765106,4.150351,-0.125227,-0.083536,0.064141,32.5,65.5321865850094
5192,-8.308478,-3.769892,4.171886,-0.124464,-0.102778,0.065515,32.5,65.4274948661308
5202,-8.313862,-3.77049,4.164708,-0.125227,-0.120799,0.067195,32.48,65.4769995095739
5212,-8.3013,-3.765106,4.17069,-0.126449,-0.138208,0.067806,32.48,65.4134749513313
5222,-8.303694,-3.788436,4.209573,-0.128129,-0.154091,0.067501,32.48,65.2399999628989
5232,-8.295319,-3.777071,4.218546,-0.129503,-0.181122,0.067042,32.48,65.1640483113873
5242,-8.273782,-3.793222,4.234698,-0.133627,-0.192881,0.065973,32.52,65.0495171842521
5252,-8.285748,-3.795615,4.25085,-0.136528,-0.202044,0.065515,32.5,64.9946204824434
5262,-8.285748,-3.784847,4.260421,-0.139888,-0.209985,0.063072,32.5,64.9344134244804
5272,-8.270791,-3.783651,4.268795,-0.142637,-0.216552,0.060781,32.52,64.8570901755591
5282,-8.260622,-3.784847,4.294518,-0.144011,-0.221286,0.059407,32.52,64.7031482907827
5292,-8.264212,-3.781258,4.314857,-0.145386,-0.224798,0.057421,32.53,64.6027300339722
5302,-8.256434,-3.783651,4.324429,-0.147371,-0.225257,0.05452,32.53,64.5386356732767
5312,-8.23789,-3.783651,4.332206,-0.148288,-0.224798,0.051313,32.51,64.4572726463868
5322,-8.230114,-3.786044,4.355535,-0.148898,-0.223729,0.049633,32.51,64.3223846391736
5332,-8.214561,-3.783053,4.368696,-0.14844,-0.219606,0.047342,32.51,64.2167056463152
5342,-8.203793,-3.772883,4.37408,-0.14844,-0.213803,0.045357,32.51,64.1541633980925
5352,-8.2014,-3.776472,4.384848,-0.148288,-0.206472,0.044288,32.53,64.0971701874178
5362,-8.176275,-3.779463,4.399803,-0.147371,-0.196851,0.042913,32.53,63.9664489471189
5372,-8.173882,-3.769294,4.415954,-0.145844,-0.186619,0.041233,32.5,63.8673746604046
5382,-8.158927,-3.779463,4.444668,-0.14447,-0.174707,0.040775,32.5,63.6966987486969
5392,-8.132606,-3.768098,4.447061,-0.143859,-0.160658,0.041233,32.52,63.6116910422932
5402,-8.13799,-3.76391,4.461418,-0.141721,-0.145233,0.041844,32.52,63.5460622720894
5413,-8.108678,-3.756732,4.456632,-0.138056,-0.11133,0.042913,32.5,63.4949515961441
5422,-8.099705,-3.759125,4.470989,-0.136987,-0.092546,0.044288,32.51,63.4029710047983
5432,-8.108678,-3.742973,4.48415,-0.136528,-0.072693,0.045509,32.51,63.33898648119
5442,-8.10449,-3.747759,4.472784,-0.134238,-0.052534,0.047342,32.5,63.3926426172544
5452,-8.096116,-3.735196,4.477569,-0.133779,-0.03207,0.049022,32.5,63.3349728128268
5462,-8.095517,-3.738187,4.477569,-0.133169,-0.011148,0.051465,32.52,63.3368013808512
5472,-8.100304,-3.73041,4.472784,-0.13271,0.009621,0.053756,32.52,63.3641688516215
5482,-8.096714,-3.728616,4.465007,-0.132558,0.029322,0.05681,32.54,63.3937849360284
5492,-8.111669,-3.71725,4.452445,-0.13271,0.049327,0.060628,32.54,63.4810788199928
5502,-8.11466,-3.72383,4.444668,-0.132863,0.068111,0.062919,32.48,63.5350647961148
5512,-8.12124,-3.729812,4.433302,-0.133627,0.084299,0.065057,32.48,63.6151971751264
5522,-8.129017,-3.727419,4.416552,-0.133779,0.100182,0.067959,32.48,63.716890910703
5532,-8.139186,-3.717848,4.403392,-0.135154,0.113316,0.070555,32.48,63.7980715507416
5542,-8.157133,-3.72383,4.38724,-0.136223,0.124158,0.072388,32.49,63.92891954916
5552,-8.179267,-3.73041,4.362714,-0.137139,0.133321,0.076053,32.49,64.1128673203978
5562,-8.182856,-3.726821,4.34417,-0.137292,0.138972,0.078954,32.47,64.2130416078532
5572,-8.209177,-3.729812,4.30409,-0.139277,0.142179,0.081398,32.47,64.4828531349855
5582,-8.234302,-3.727419,4.274778,-0.141721,0.139888,0.085827,32.46,64.688484193643
5592,-8.249256,-3.719045,4.252644,-0.143095,0.135001,0.087506,32.55,64.8280893785364
5602,-8.272586,-3.743571,4.235895,-0.14447,0.127213,0.08827,32.55,64.9910395616402
5612,-8.292327,-3.728616,4.214957,-0.145844,0.116064,0.088881,32.5,65.1281554205734
5622,-8.30489,-3.741776,4.201797,-0.146455,0.102625,0.089644,32.5,65.2368461109144
5632,-8.321041,-3.748357,4.181458,-0.147066,0.087201,0.08995,32.48,65.3839240767798
5642,-8.34138,-3.748955,4.163511,-0.148288,0.069791,0.090255,32.48,65.521594547686
5652,-8.341978,-3.753142,4.161717,-0.148288,0.050091,0.089492,32.5,65.5362482699276
5662,-8.342576,-3.745964,4.150351,-0.147677,0.029474,0.089186,32.5,65.5896082650038
5672,-8.352745,-3.75733,4.140181,-0.14844,0.006261,0.087965,32.51,65.6752258961483
5682,-8.363514,-3.745365,4.133003,-0.147829,-0.017104,0.087048,32.51,65.7240684550322
5692,-8.359326,-3.758526,4.133601,-0.146455,-0.040623,0.085063,32.53,65.7246334909297
5702,-8.361719,-3.758526,4.13061,-0.145233,-0.063683,0.083841,32.53,65.7452826533284
5712,-8.370093,-3.761517,4.125825,-0.143706,-0.087506,0.080481,32.52,65.7908625424759
5722,-8.362316,-3.760321,4.134798,-0.142484,-0.110108,0.078802,32.52,65.7265281965261
5732,-8.35155,-3.760321,4.149753,-0.139583,-0.131794,0.077427,32.49,65.6258492361722
5742,-8.334201,-3.760321,4.169494,-0.137445,-0.152716,0.074373,32.49,65.4861089419502
5752,-8.328817,-3.759723,4.182056,-0.134848,-0.186925,0.070555,32.5,65.4087543160246
5762,-8.316854,-3.766901,4.198207,-0.129351,-0.201738,0.067806,32.51,65.3061740284158
5772,-8.306684,-3.764508,4.216154,-0.126296,-0.214414,0.064904,32.51,65.1887664594971
5782,-8.295319,-3.766303,4.226323,-0.123547,-0.225562,0.062308,32.52,65.1131031082109
5792,-8.274381,-3.759723,4.25085,-0.121257,-0.233656,0.060628,32.52,64.9336966281958
5802,-8.261818,-3.756732,4.272385,-0.117744,-0.239612,0.057727,32.5,64.7916066109539
5812,-8.255239,-3.759723,4.290929,-0.114843,-0.243277,0.054978,32.5,64.6842596163809
5822,-8.236095,-3.754937,4.297509,-0.112857,-0.244804,0.053451,32.49,64.6028001194193
5832,-8.220542,-3.754339,4.319045,-0.111941,-0.244652,0.052229,32.49,64.4561914367537
5842,-8.208578,-3.751946,4.342375,-0.110567,-0.24175,0.049786,32.51,64.3064787274409
5852,-8.198408,-3.738786,4.359723,-0.109345,-0.237627,0.048258,32.51,64.1804768393185
5862,-8.188837,-3.753741,4.379463,-0.109498,-0.230602,0.046426,32.52,64.0726389430473
5872,-8.183454,-3.75075,4.396214,-0.108887,-0.222508,0.043982,32.52,63.9711263404746
5882,-8.167302,-3.744768,4.406384,-0.10965,-0.212887,0.043219,32.53,63.8756514104591
5892,-8.150552,-3.735795,4.417749,-0.110719,-0.20128,0.042455,32.53,63.7692886715843
5902,-8.146963,-3.738187,4.441079,-0.112857,-0.188146,0.041692,32.53,63.6436904660374
5912,-8.133204,-3.729214,4.461418,-0.115148,-0.174707,0.040928,32.53,63.4979138953964
5922,-8.119445,-3.727419,4.462016,-0.116981,-0.157909,0.040164,32.52,63.46091035379
5932,-8.116454,-3.732804,4.478168,-0.123242,-0.123242,0.041081,32.52,63.376858841604
5942,-8.112864,-3.722634,4.481757,-0.126602,-0.104763,0.041233,32.52,63.3391547782967
5952,-8.102695,-3.711866,4.492525,-0.129962,-0.085827,0.041997,32.53,63.2485409953654
5962,-8.103892,-3.725027,4.493123,-0.134696,-0.065973,0.043066,32.53,63.2624616733549
5972,-8.097312,-3.717848,4.486543,-0.139125,-0.045662,0.044135,32.5,63.2730183309829
5982,-8.105686,-3.71725,4.487739,-0.143859,-0.025504,0.044746,32.5,63.2858891819394
5992,-8.108678,-3.710072,4.495516,-0.148593,-0.004429,0.045968,32.52,63.2453374250999
6002,-8.105088,-3.713063,4.494917,-0.1518,0.01573,0.047953,32.52,63.2431908137472
6012,-8.109874,-3.719045,4.479962,-0.155923,0.035888,0.049022,32.47,63.337509066573
6022,-8.130214,-3.719045,4.481757,-0.159894,0.054978,0.049786,32.47,63.3758603323771
6032,-8.134401,-3.711866,4.456632,-0.162948,0.073304,0.050702,32.51,63.5067960272356
6042,-8.13799,-3.722036,4.455436,-0.166461,0.08995,0.05116,32.51,63.5320826336856
6052,-8.160722,-3.716652,4.439882,-0.169668,0.105374,0.052076,32.53,63.6588824139835
6062,-8.17807,-3.725027,4.426124,-0.172569,0.118966,0.052687,32.53,63.7782801296849
6072,-8.190632,-3.729214,4.393821,-0.173486,0.130572,0.052687,32.52,63.9773539377905
6082,-8.204989,-3.736392,4.359125,-0.173944,0.139583,0.053909,32.52,64.1960056446841
6092,-8.228917,-3.74058,4.338786,-0.174707,0.146302,0.053756,32.52,64.3591319135193
6102,-8.242078,-3.735795,4.310072,-0.174097,0.150578,0.053909,32.5,64.5318587067484
6112,-8.264212,-3.747759,4.283153,-0.171806,0.148746,0.054062,32.5,64.7322557627833
6122,-8.272586,-3.742374,4.265206,-0.169973,0.144164,0.052993,32.5,64.8381334543673
6132,-8.287541,-3.753741,4.244868,-0.167377,0.136987,0.05284,32.5,64.9876218991938
6142,-8.289934,-3.762115,4.222734,-0.164628,0.126755,0.054367,32.49,65.1157507636348
6152,-8.300702,-3.765106,4.188038,-0.161268,0.113468,0.054978,32.49,65.3220735307126
6162,-8.31147,-3.778267,4.169494,-0.155771,0.098197,0.055131,32.52,65.4546007980144
6172,-8.315658,-3.766901,4.155136,-0.151495,0.081551,0.056047,32.52,65.5271111806563
6182,-8.325827,-3.776472,4.148556,-0.146608,0.061697,0.057269,32.5,65.5925287346061
6192,-8.320443,-3.784249,4.123432,-0.141568,0.040012,0.058032,32.5,65.7192723338197
6202,-8.331809,-3.794419,4.115655,-0.135459,0.018326,0.059559,32.51,65.7939070841906
6212,-8.321639,-3.795017,4.110271,-0.131489,-0.004276,0.061239,32.51,65.8008658787118
6222,-8.324032,-3.79741,4.109673,-0.126296,-0.028863,0.063683,32.5,65.811405307267
6232,-8.327621,-3.791427,4.106084,-0.120493,-0.053451,0.065668,32.5,65.8319455234558
6242,-8.32463,-3.802794,4.104289,-0.11637,-0.077122,0.067806,32.49,65.8459665431855
6252,-8.307282,-3.79741,4.109673,-0.112094,-0.100945,0.070555,32.49,65.7756926410678
6262,-8.296515,-3.800999,4.127619,-0.107665,-0.123242,0.072082,32.55,65.6625971363254
6272,-8.288139,-3.8004,4.146762,-0.103694,-0.164017,0.07758,32.55,65.5442905051717
6282,-8.286943,-3.798606,4.156333,-0.098197,-0.182801,0.079412,32.52,65.490122719367
6292,-8.283354,-3.79382,4.170092,-0.097128,-0.199142,0.081092,32.52,65.406065607932
6302,-8.264212,-3.791427,4.197011,-0.09499,-0.213192,0.082772,32.52,65.2222151639075
6312,-8.268997,-3.777071,4.214359,-0.094837,-0.22602,0.083078,32.52,65.1282568879246
6322,-8.264212,-3.793222,4.233501,-0.095142,-0.23671,0.083841,32.52,65.0347566547877
6332,-8.255239,-3.780062,4.25085,-0.095295,-0.243888,0.084299,32.49,64.9119654795337
6342,-8.233105,-3.781856,4.274179,-0.096059,-0.24908,0.084605,32.49,64.7441475966728
6352,-8.223534,-3.779463,4.302894,-0.097891,-0.251524,0.083841,32.52,64.5720124696754
6362,-8.221141,-3.775874,4.326224,-0.099876,-0.251371,0.083841,32.52,64.4426170805325
6372,-8.214561,-3.76391,4.348955,-0.103084,-0.249691,0.082925,32.52,64.2984100177655
6382,-8.209177,-3.760321,4.369295,-0.106596,-0.246026,0.081398,32.52,64.1778969090626
6392,-8.203793,-3.760321,4.386642,-0.109345,-0.239306,0.079565,32.5,64.0765609658221
6402,-8.193623,-3.752544,4.415954,-0.113163,-0.230449,0.077733,32.5,63.8948920967327
6412,-8.196614,-3.751348,4.428516,-0.117133,-0.221439,0.07422,32.52,63.83611530763
6422,-8.168499,-3.736392,4.441079,-0.121104,-0.209374,0.072846,32.52,63.6914939401382
6432,-8.164311,-3.731607,4.465007,-0.124464,-0.19563,0.070097,32.51,63.5542268540856
6442,-8.162517,-3.723232,4.478765,-0.127671,-0.165086,0.064599,32.51,63.4708361561322
6452,-8.150552,-3.71725,4.482355,-0.13439,-0.147524,0.062003,32.52,63.4183103443116
6462,-8.142178,-3.72383,4.495516,-0.137445,-0.128434,0.059254,32.5,63.3385014510826
6472,-8.149356,-3.710072,4.493123,-0.140499,-0.109956,0.0562,32.5,63.3528338281678
6482,-8.14457,-3.713063,4.506283,-0.143401,-0.089644,0.05452,32.53,63.2775965352911
6492,-8.13141,-3.70409,4.503891,-0.145233,-0.069333,0.053145,32.53,63.2494159620635
6502,-8.125427,-3.701099,4.506283,-0.146913,-0.048717,0.050702,32.48,63.2199425350965
6512,-8.134401,-3.696313,4.505087,-0.14844,-0.028405,0.048717,32.48,63.2420168119672
6522,-8.124231,-3.696911,4.495516,-0.149051,-0.007636,0.047953,32.52,63.2677550683559
6532,-8.130214,-3.696911,4.48415,-0.148746,0.01237,0.048869,32.52,63.3399982089877
6542,-8.134999,-3.698107,4.476373,-0.149357,0.031918,0.047342,32.54,63.3923190286865
6552,-8.129615,-3.699902,4.466204,-0.148898,0.050244,0.047189,32.54,63.4338000994846
6562,-8.132008,-3.703491,4.448855,-0.148135,0.067959,0.046731,32.49,63.5322774488821
6572,-8.140383,-3.701697,4.439882,-0.146913,0.083383,0.047037,32.49,63.5959702641669
6582,-8.146365,-3.703491,4.425525,-0.144928,0.099113,0.048106,32.52,63.6855658738784
6592,-8.149954,-3.69392,4.405785,-0.144011,0.112246,0.049022,32.52,63.7854613040187
6602,-8.164311,-3.70409,4.365705,-0.143095,0.123089,0.049633,32.54,64.0359153110503
6612,-8.18764,-3.713661,4.34417,-0.141568,0.13271,0.049786,32.54,64.210320707968
6622,-8.203793,-3.70409,4.323831,-0.140652,0.144317,0.050702,32.5,64.342281463966
6632,-8.209177,-3.711268,4.308277,-0.139735,0.14676,0.050702,32.47,64.4422537120135
6642,-8.23789,-3.712464,4.290331,-0.138819,0.145997,0.051313,32.47,64.6008805507457
6652,-8.239684,-3.724428,4.275376,-0.138361,0.142484,0.051313,32.54,64.6943780369749
6662,-8.25464,-3.728616,4.261019,-0.138819,0.136987,0.051313,32.54,64.8062360318044
6672,-8.274381,-3.732205,4.229314,-0.138666,0.129351,0.051007,32.54,65.0178000762147
6682,-8.287541,-3.728018,4.205984,-0.140194,0.118966,0.050091,32.54,65.1636407851712
6692,-8.309675,-3.743571,4.198806,-0.140652,0.104916,0.049633,32.52,65.2645510547909
6702,-8.305488,-3.74716,4.177869,-0.141721,0.089797,0.048411,32.52,65.3676447003198
6712,-8.312666,-3.750151,4.168297,-0.141568,0.073762,0.047953,32.55,65.4358762299617
6722,-8.321639,-3.760919,4.15394,-0.141568,0.054367,0.047495,32.55,65.5403858099195
6732,-8.337791,-3.772285,4.149154,-0.142026,0.033139,0.047189,32.53,65.6110309509532
6742,-8.340781,-3.765106,4.132405,-0.142332,0.01237,0.047495,32.53,65.6975292226623
6752,-8.340781,-3.769294,4.131208,-0.142484,-0.010079,0.047342,32.5,65.7078015194436
6762,-8.344371,-3.768098,4.115655,-0.14279,-0.032987,0.047342,32.5,65.7952405400719
6772,-8.338388,-3.782454,4.123432,-0.141415,-0.055894,0.047342,32.56,65.755864703561
6782,-8.340781,-3.783651,4.122834,-0.140652,-0.079718,0.048717,32.56,65.7652381086432
6792,-8.328219,-3.777669,4.138387,-0.138819,-0.123853,0.051313,32.52,65.6516906605288
6802,-8.318647,-3.789633,4.144967,-0.136528,-0.14447,0.052687,32.5,65.6086140786542
6812,-8.30788,-3.79382,4.155136,-0.134543,-0.16417,0.054214,32.5,65.5367262112904
6822,-8.313264,-3.786642,4.164708,-0.1321,-0.182496,0.056352,32.52,65.491540787694
6832,-8.288139,-3.79741,4.179065,-0.129351,-0.198837,0.058338,32.52,65.3733513195535
6842,-8.298308,-3.802195,4.206582,-0.127518,-0.213039,0.059254,32.54,65.25744803267
6852,-8.278568,-3.792624,4.22393,-0.124006,-0.224798,0.06185,32.54,65.1151200175134
6862,-8.258228,-3.789035,4.234698,-0.121257,-0.234572,0.062919,32.51,65.011221200043
6872,-8.255836,-3.789633,4.262215,-0.119577,-0.242208,0.064446,32.51,64.8641645295509
6882,-8.252846,-3.8004,4.28734,-0.116981,-0.247859,0.064752,32.49,64.7387595710573
6892,-8.233105,-3.787838,4.290331,-0.115301,-0.250302,0.06521,32.49,64.6667657989791
6902,-8.231908,-3.777669,4.319045,-0.113163,-0.250455,0.065515,32.55,64.505546746597
6912,-8.215158,-3.779463,4.343571,-0.111483,-0.248622,0.065668,32.55,64.3435354943432
6922,-8.200203,-3.769294,4.359723,-0.110719,-0.244346,0.064294,32.52,64.2161605699939
6932,-8.184052,-3.778267,4.37408,-0.109039,-0.23671,0.064141,32.52,64.1150829193849
6942,-8.172088,-3.777669,4.398606,-0.10797,-0.228616,0.062156,32.53,63.9611717012642
6952,-8.166704,-3.765705,4.436892,-0.107207,-0.217468,0.06017,32.53,63.7397873215567
6962,-8.157133,-3.769892,4.449454,-0.106901,-0.190437,0.057574,32.55,63.6578846905283
6972,-8.150552,-3.760919,4.459623,-0.105832,-0.173791,0.055589,32.52,63.5810944739321
6982,-8.136195,-3.747759,4.466802,-0.105985,-0.157451,0.05452,32.52,63.4970561907598
6992,-8.129615,-3.759723,4.478765,-0.106291,-0.138361,0.052993,32.52,63.4333510532524
7002,-8.106883,-3.754339,4.495516,-0.106596,-0.118661,0.05116,32.52,63.28886908564
7012,-8.115258,-3.742374,4.490132,-0.10797,-0.098044,0.050396,32.52,63.3230736636199
7022,-8.10808,-3.735795,4.491328,-0.109345,-0.077733,0.050091,32.52,63.293077837111
7032,-8.09791,-3.735795,4.49731,-0.110261,-0.05681,0.048564,32.52,63.2386118869881
7042,-8.100902,-3.719045,4.491926,-0.111788,-0.034361,0.048717,32.52,63.2551324171865
7052,-8.096116,-3.731009,4.491328,-0.112857,-0.012981,0.050091,32.5,63.2598803300788
7062,-8.094919,-3.723232,4.483552,-0.115148,0.007941,0.051465,32.5,63.2885541549271
7072,-8.103294,-3.720839,4.471587,-0.117133,0.027794,0.052229,32.52,63.3670129128246
7082,-8.111071,-3.729214,4.470391,-0.118508,0.048258,0.054672,32.52,63.4003228131067
7095,-8.124231,-3.718446,4.451249,-0.124769,0.084758,0.057574,32.53,63.5177677892472
7102,-8.124231,-3.718446,4.451249,-0.124769,0.084758,0.057574,32.53,63.5177677892472
7112,-8.137392,-3.720839,4.44048,-0.126602,0.100487,0.060628,32.5,63.6062140969976
7122,-8.151151,-3.704688,4.408776,-0.129503,0.11301,0.062614,32.5,63.7841063657026
7132,-8.179267,-3.709473,4.386044,-0.131794,0.12538,0.066432,32.54,63.9708539164321
7142,-8.185846,-3.711268,4.373481,-0.13775,0.143401,0.069028,32.52,64.0524998369504
7152,-8.209774,-3.716652,4.342375,-0.141568,0.148135,0.069486,32.52,64.2728921948769
7162,-8.221739,-3.712464,4.329813,-0.143248,0.150731,0.070402,32.54,64.3605015637522
7172,-8.240283,-3.725027,4.315455,-0.145539,0.150426,0.071319,32.54,64.489129945405
7182,-8.255836,-3.720241,4.286144,-0.148135,0.147371,0.071319,32.54,64.6704839299261
7192,-8.268997,-3.713661,4.272983,-0.149815,0.14111,0.07086,32.54,64.7612520920779
7202,-8.290532,-3.713063,4.238287,-0.150273,0.133321,0.07086,32.5,64.9879288121865
7212,-8.318647,-3.722634,4.218546,-0.150884,0.122631,0.07025,32.5,65.161328252343
7222,-8.325827,-3.718446,4.2006,-0.151495,0.109192,0.06857,32.54,65.2658889186908
7232,-8.337193,-3.722634,4.183851,-0.151495,0.092852,0.06689,32.54,65.3815205878807
7242,-8.327621,-3.74716,4.175476,-0.150426,0.075595,0.065515,32.54,65.4280484534543
7252,-8.346166,-3.736392,4.149154,-0.148898,0.056352,0.06353,32.54,65.5943180198392
7262,-8.345568,-3.735196,4.149154,-0.147066,0.036499,0.061697,32.51,65.591878957109
7272,-8.353344,-3.742973,4.14078,-0.14447,0.014508,0.060018,32.51,65.6595834101338
7282,-8.356933,-3.751348,4.13061,-0.140652,-0.008094,0.056352,32.49,65.7281674681422
7292,-8.35155,-3.751348,4.119842,-0.136834,-0.03146,0.05452,32.49,65.7726679035405
7302,-8.333005,-3.767499,4.134199,-0.132405,-0.054214,0.05284,32.51,65.67385996874
7312,-8.336594,-3.766303,4.13061,-0.123547,-0.099113,0.049327,32.51,65.6990603564801
7322,-8.330013,-3.765705,4.128816,-0.118966,-0.120799,0.04948,32.53,65.69372389123
7332,-8.317451,-3.762115,4.138985,-0.113468,-0.140652,0.048258,32.52,65.6103351804493
7342,-8.312068,-3.76391,4.158128,-0.108581,-0.159436,0.047495,32.52,65.5008891539737
7352,-8.298907,-3.765705,4.166502,-0.104,-0.176387,0.046884,32.5,65.4306543656391
7362,-8.282157,-3.769294,4.176672,-0.099113,-0.191812,0.046273,32.5,65.3449744177513
7372,-8.274979,-3.762714,4.199404,-0.0956,-0.205098,0.045815,32.51,65.204662737632
7382,-8.263015,-3.756732,4.226323,-0.091172,-0.216094,0.045509,32.51,65.0327441585556
7392,-8.242078,-3.766901,4.238287,-0.088575,-0.224646,0.046884,32.49,64.9347693186914
7402,-8.237292,-3.765705,4.265805,-0.08659,-0.230754,0.046884,32.49,64.7803559779423
7412,-8.225328,-3.769294,4.28076,-0.084758,-0.234725,0.046426,32.5,64.6800204519947
7422,-8.226524,-3.769294,4.302295,-0.083689,-0.235641,0.048258,32.5,64.5713648174877
7432,-8.210373,-3.762115,4.322036,-0.08323,-0.234878,0.048411,32.5,64.4259115929484
7442,-8.195418,-3.75733,4.342375,-0.083536,-0.230907,0.048869,32.5,64.2823379716182
7452,-8.198408,-3.756732,4.36391,-0.085216,-0.225867,0.049022,32.52,64.1775062256926
7462,-8.179267,-3.761517,4.381856,-0.087048,-0.218537,0.048411,32.52,64.0466812540702
7472,-8.173284,-3.753142,4.421339,-0.089339,-0.208763,0.049175,32.52,63.8213649046946
7482,-8.155936,-3.752544,4.429115,-0.092852,-0.185245,0.047495,32.52,63.7409945312054
7492,-8.163713,-3.747759,4.462614,-0.100793,-0.170584,0.047037,32.54,63.5821950365554
7502,-8.140981,-3.745365,4.465007,-0.104916,-0.154702,0.045662,32.51,63.5147947339422
7512,-8.148758,-3.74058,4.480561,-0.108734,-0.138361,0.04444,32.51,63.448137131502
7522,-8.151151,-3.744768,4.482355,-0.114232,-0.121257,0.042608,32.52,63.448985974104
7532,-8.142178,-3.74058,4.484748,-0.119882,-0.102014,0.041692,32.52,63.4114360782437
7542,-8.128419,-3.738187,4.491328,-0.124617,-0.083383,0.039401,32.5,63.3431740164382
7552,-8.134999,-3.732205,4.490132,-0.12874,-0.063988,0.038332,32.5,63.358229776121
7562,-8.136793,-3.734598,4.494319,-0.133169,-0.04383,0.035888,32.48,63.3435662930176
7572,-8.145168,-3.735196,4.491328,-0.136223,-0.024282,0.034819,32.48,63.3790073549255
7582,-8.145766,-3.735795,4.479364,-0.139735,-0.005345,0.033903,32.52,63.4422075893752
7592,-8.142178,-3.735795,4.479962,-0.142179,0.013439,0.032987,32.52,63.4308068047742
7602,-8.139785,-3.731009,4.475775,-0.145233,0.031918,0.032223,32.48,63.4415647717513
7612,-8.139785,-3.732804,4.464409,-0.145691,0.048717,0.03146,32.48,63.5016954657151
7622,-8.152946,-3.726821,4.448855,-0.147219,0.065057,0.030696,32.52,63.6055958547907
7632,-8.161918,-3.743571,4.423731,-0.147524,0.080634,0.031154,32.52,63.7729116165202
7642,-8.158329,-3.738786,4.396214,-0.146455,0.094073,0.031765,32.5,63.9011185459529
7652,-8.166105,-3.734,4.383053,-0.145844,0.105832,0.034361,32.5,63.9817018523737
7662,-8.184052,-3.736392,4.359723,-0.141568,0.123242,0.03543,32.47,64.1453954011788
7672,-8.200802,-3.74058,4.339384,-0.138208,0.129198,0.037721,32.5,64.2926282081923
7682,-8.216354,-3.735196,4.320241,-0.135307,0.132863,0.03879,32.5,64.4210048672062
7692,-8.213962,-3.739383,4.301099,-0.131489,0.134238,0.041081,32.49,64.5188578737507
7702,-8.235497,-3.754339,4.28734,-0.128587,0.13271,0.044746,32.49,64.6534108626017
7712,-8.232506,-3.753741,4.256233,-0.123395,0.129351,0.045968,32.53,64.8072151329035
7722,-8.251051,-3.751348,4.239483,-0.119424,0.124006,0.048258,32.53,64.9327229779791
7732,-8.265409,-3.757928,4.216752,-0.115301,0.11637,0.050855,32.5,65.0888633819976
7742,-8.266006,-3.765106,4.208975,-0.110872,0.105374,0.052229,32.5,65.1377100172084
7752,-8.274381,-3.762714,4.201797,-0.107512,0.093157,0.053756,32.5,65.1909269289971
7762,-8.286943,-3.756134,4.174279,-0.103542,0.079871,0.056047,32.5,65.3548332073769
7772,-8.294122,-3.754937,4.167699,-0.100029,0.064599,0.056352,32.52,65.4034798326254
7782,-8.291131,-3.772285,4.156333,-0.096211,0.046884,0.057421,32.52,65.4732093160272
7792,-8.308478,-3.773481,4.155735,-0.093004,0.029474,0.059254,32.52,65.5149514942164
7802,-8.306684,-3.766901,4.147958,-0.090561,0.010232,0.059559,32.52,65.5451069386696
7812,-8.322835,-3.771687,4.138387,-0.088423,-0.009316,0.060476,32.5,65.6343263702224
7822,-8.315059,-3.759723,4.13719,-0.085979,-0.029169,0.062003,32.5,65.6122096670827
7832,-8.318049,-3.77049,4.146762,-0.08323,-0.069333,0.062003,32.49,65.5793083656068
7842,-8.315059,-3.776472,4.152744,-0.081551,-0.089034,0.06353,32.52,65.5476079308001
7852,-8.312666,-3.778865,4.155735,-0.08094,-0.108276,0.063225,32.52,65.5292482425939
7862,-8.294122,-3.77049,4.168896,-0.081245,-0.126449,0.062614,32.51,65.4125496994354
7872,-8.296515,-3.774678,4.176074,-0.081092,-0.142637,0.063988,32.51,65.3845508461173
7882,-8.295319,-3.78066,4.2006,-0.080634,-0.157756,0.064446,32.51,65.2605805513924
7892,-8.28156,-3.769294,4.209573,-0.081092,-0.1715,0.064294,32.51,65.1727923324706
7902,-8.279764,-3.765705,4.225725,-0.082314,-0.183107,0.064294,32.52,65.0815622979958
7912,-8.271988,-3.769892,4.238287,-0.083078,-0.19395,0.063988,32.52,65.0036252533518
7922,-8.273782,-3.761517,4.262215,-0.084605,-0.201586,0.063683,32.54,64.8754151875115
7932,-8.261221,-3.767499,4.283153,-0.085827,-0.207694,0.063072,32.54,64.7455303357496
7942,-8.249256,-3.761517,4.297509,-0.087506,-0.211512,0.063225,32.48,64.6388150631989
7952,-8.234302,-3.744169,4.31725,-0.089186,-0.213497,0.061087,32.48,64.4859180019838
7962,-8.235497,-3.747759,4.339982,-0.09163,-0.213039,0.060476,32.49,64.375117334702
7972,-8.232506,-3.745964,4.357928,-0.092393,-0.210901,0.058643,32.49,64.2742211325701
7982,-8.209774,-3.753741,4.367499,-0.094684,-0.205709,0.058185,32.54,64.1816702344923
7992,-8.204989,-3.736991,4.416552,-0.096211,-0.199142,0.056963,32.54,63.9015643680457
8002,-8.192427,-3.736991,4.427918,-0.097738,-0.180663,0.051924,32.49,63.8145692278662
8012,-8.18764,-3.735795,4.430909,-0.100487,-0.168599,0.049175,32.55,63.7870105774482
8022,-8.172686,-3.726223,4.446463,-0.101862,-0.154854,0.047495,32.55,63.6628498185987
8032,-8.165507,-3.722036,4.450052,-0.102778,-0.139735,0.045357,32.5,63.6234667865397
8042,-8.155936,-3.725625,4.451249,-0.102931,-0.124006,0.041844,32.5,63.5989768934197
8052,-8.158927,-3.719643,4.4674,-0.104153,-0.107054,0.038179,32.52,63.5168433850077
8062,-8.147561,-3.71725,4.481159,-0.104305,-0.089339,0.034514,32.52,63.4174629403557
8072,-8.143971,-3.707679,4.485944,-0.104153,-0.069486,0.032987,32.49,63.3744346048682
8082,-8.142776,-3.719643,4.484748,-0.104153,-0.051618,0.028558,32.49,63.390495064283
8092,-8.141579,-3.728018,4.472186,-0.104,-0.031918,0.027031,32.5,63.4609273992624
8102,-8.139186,-3.718446,4.480561,-0.104458,-0.012981,0.024282,32.5,63.4022785545822
8112,-8.139785,-3.713661,4.466802,-0.104611,0.005956,0.022449,32.51,63.4690691193738
8122,-8.145766,-3.716652,4.4674,-0.104153,0.024282,0.019548,32.51,63.4830984762917
8132,-8.130214,-3.716054,4.459025,-0.104458,0.043371,0.018173,32.54,63.4892189276377
8142,-8.127223,-3.714259,4.457829,-0.105527,0.060018,0.016799,32.54,63.4864815945615
8152,-8.132606,-3.710072,4.436294,-0.105527,0.075747,0.016188,32.51,63.6052146310602
8162,-8.149954,-3.713661,4.418945,-0.105832,0.090866,0.015882,32.51,63.7384257909278
8172,-8.166704,-3.720241,4.395615,-0.106749,0.103847,0.015882,32.48,63.9039772031058
8182,-8.17448,-3.735795,4.383053,-0.109803,0.124006,0.01573,32.54,64.0027222986824
8192,-8.184052,-3.729214,4.363312,-0.110567,0.131489,0.01741,32.54,64.1194377759236
8202,-8.194221,-3.729812,4.332804,-0.11133,0.137292,0.019242,32.54,64.3006236749963
8212,-8.203195,-3.728018,4.328018,-0.11301,0.140041,0.021075,32.54,64.3438007051078
8222,-8.220542,-3.737589,4.307081,-0.115301,0.140346,0.022297,32.49,64.5008583158423
8232,-8.233703,-3.739383,4.291527,-0.117439,0.138056,0.024282,32.49,64.6125720205394
8242,-8.236693,-3.736991,4.271787,-0.117744,0.134543,0.027489,32.5,64.7189810018669
8252,-8.253444,-3.734,4.249055,-0.118508,0.127671,0.029169,32.5,64.8709773045733
8262,-8.266006,-3.742973,4.232305,-0.12034,0.118355,0.03207,32.53,64.9945585499624
8272,-8.263614,-3.760321,4.209573,-0.121104,0.107512,0.034819,32.53,65.1245906080608
8282,-8.280362,-3.754937,4.199404,-0.120799,0.093921,0.037874,32.49,65.2087075673655
8292,-8.295319,-3.753142,4.179663,-0.120951,0.078649,0.039706,32.49,65.3420996222576
8302,-8.306085,-3.757928,4.170092,-0.120035,0.061545,0.041386,32.52,65.4199042273838
8312,-8.315059,-3.762714,4.156333,-0.120188,0.043677,0.043524,32.52,65.5155081198025
8322,-8.330013,-3.768098,4.158726,-0.120035,0.024282,0.045357,32.5,65.5405426626341
8332,-8.338987,-3.782454,4.138985,-0.118661,0.003818,0.046884,32.5,65.6762830446324
8342,-8.33121,-3.771687,4.136592,-0.117133,-0.017562,0.047495,32.5,65.6616263990539
8352,-8.333604,-3.778267,4.138985,-0.113316,-0.059865,0.050396,32.5,65.6606989886558
8362,-8.319246,-3.777669,4.141378,-0.11133,-0.080634,0.050549,32.5,65.6168861914099
8372,-8.313862,-3.779463,4.147958,-0.108123,-0.101709,0.051465,32.52,65.5728431743683
8382,-8.324032,-3.777669,4.147958,-0.105527,-0.120646,0.051618,32.52,65.5929480103775
8392,-8.325229,-3.786044,4.158128,-0.102167,-0.13943,0.051924,32.51,65.5508630778986
8402,-8.305488,-3.780062,4.17727,-0.099571,-0.15684,0.05284,32.51,65.4030674397787
8412,-8.304291,-3.787838,4.19402,-0.096822,-0.172722,0.05116,32.52,65.3212634815216
8422,-8.29472,-3.795017,4.201797,-0.093004,-0.186619,0.051618,32.52,65.2673157991598
8432,-8.277372,-3.788436,4.222734,-0.089797,-0.198378,0.05116,32.54,65.1145129290171
8442,-8.272586,-3.777071,4.243671,-0.086285,-0.208152,0.051313,32.54,64.9842659859752
8452,-8.254042,-3.786044,4.265206,-0.082925,-0.215483,0.050244,32.53,64.841114538594
8462,-8.240283,-3.781258,4.27717,-0.080329,-0.221439,0.050244,32.53,64.7439858873263
8472,-8.238488,-3.771687,4.295117,-0.077427,-0.224035,0.050244,32.49,64.637539040593
8482,-8.210971,-3.780062,4.325625,-0.075136,-0.224188,0.050855,32.49,64.4272308358618
8492,-8.202596,-3.765106,4.343571,-0.074678,-0.223119,0.050244,32.55,64.3004171345692
8502,-8.194819,-3.777669,4.356134,-0.072235,-0.218384,0.050244,32.55,64.2311855253534
8512,-8.162517,-3.77049,4.389035,-0.071013,-0.212276,0.050855,32.49,63.9810060618651
8522,-8.155338,-3.77049,4.412963,-0.071471,-0.193644,0.049633,32.49,63.84156403456
8532,-8.148758,-3.760321,4.429713,-0.070708,-0.181122,0.049938,32.51,63.7296555558394
8542,-8.136793,-3.759125,4.44407,-0.071319,-0.167377,0.050091,32.5,63.6271178959449
8552,-8.132606,-3.749553,4.457231,-0.072388,-0.1518,0.051313,32.5,63.5397030660421
8562,-8.120044,-3.742973,4.463212,-0.073151,-0.134543,0.051771,32.51,63.4728218127707
8572,-8.120044,-3.747759,4.470391,-0.07422,-0.117133,0.051465,32.51,63.4411436233318
8582,-8.119445,-3.738187,4.482953,-0.077122,-0.097891,0.051771,32.54,63.3651032638771
8592,-8.105088,-3.741776,4.491328,-0.080634,-0.078191,0.052993,32.54,63.2925313751557
8602,-8.109874,-3.735795,4.490132,-0.082925,-0.058185,0.05284,32.52,63.30340091461
8612,-8.105088,-3.734598,4.493721,-0.085979,-0.038485,0.052993,32.52,63.2725252307812
8622,-8.114061,-3.729214,4.496712,-0.089797,-0.018021,0.052076,32.48,63.2724239827712
8632,-8.108678,-3.720241,4.48415,-0.092546,0.001833,0.052229,32.48,63.3145175004078
8642,-8.111071,-3.715455,4.487141,-0.096059,0.02138,0.051924,32.52,63.2996508077916
8652,-8.132008,-3.715455,4.481159,-0.101709,0.040928,0.050702,32.52,63.3792798318929
8662,-8.133204,-3.699902,4.477569,-0.105985,0.060018,0.05116,32.49,63.3839011700089
8672,-8.149954,-3.715455,4.461418,-0.109803,0.077274,0.049327,32.49,63.5222183002054
8712,-8.21157,-3.719045,4.393223,-0.128893,0.138819,0.043066,32.54,64.0176733570912
8722,-8.228917,-3.704688,4.373481,-0.1321,0.144928,0.041997,32.54,64.1438505209065
8732,-8.238488,-3.707679,4.354339,-0.135459,0.149357,0.039859,32.54,64.2670657639661
8742,-8.253444,-3.708875,4.326822,-0.13775,0.151189,0.037874,32.54,64.4437174718284
8752,-8.264212,-3.708277,4.305286,-0.139583,0.149509,0.035583,32.49,64.5783193461362
8762,-8.276773,-3.717848,4.284947,-0.140194,0.14615,0.034514,32.49,64.7209061168136
8772,-8.293524,-3.724428,4.262814,-0.140804,0.140041,0.032681,32.51,64.8789072088619
8782,-8.300702,-3.720839,4.24068,-0.14111,0.131947,0.031154,32.51,65.0056251377167
8792,-8.315658,-3.725625,4.213162,-0.140041,0.120188,0.030085,32.54,65.1856041670401
8802,-8.30489,-3.728616,4.201199,-0.138361,0.107207,0.02978,32.54,65.2270281839843
8812,-8.318049,-3.726223,4.176074,-0.136376,0.091324,0.029016,32.51,65.3838093908975
8822,-8.320443,-3.742374,4.165306,-0.132863,0.074373,0.027947,32.51,65.4606713432092
8832,-8.328219,-3.735196,4.144967,-0.129962,0.055741,0.028558,32.49,65.5762769022823
8842,-8.319246,-3.742973,4.13719,-0.125227,0.036652,0.029627,32.49,65.604958717336
8852,-8.321041,-3.744169,4.118646,-0.121562,0.016035,0.031001,32.49,65.7066444426317
8862,-8.318049,-3.762115,4.115057,-0.116064,-0.006261,0.032223,32.49,65.7363124791603
8872,-8.315658,-3.759125,4.108477,-0.106443,-0.051007,0.035736,32.5,65.7626315473112
8882,-8.306085,-3.76391,4.122235,-0.101862,-0.07254,0.037874,32.51,65.674945945819
8892,-8.299506,-3.760919,4.119244,-0.095142,-0.094226,0.039859,32.51,65.6735053908536
8902,-8.296515,-3.77408,4.113262,-0.090408,-0.114843,0.042761,32.55,65.7111513560095
8912,-8.287541,-3.769892,4.135994,-0.086132,-0.134696,0.044593,32.55,65.5690981302852
8922,-8.289336,-3.771089,4.146163,-0.081092,-0.153785,0.047189,32.54,65.5211273287033
8932,-8.274381,-3.775874,4.165905,-0.076816,-0.17089,0.048258,32.54,65.3906328395745
8942,-8.282157,-3.778865,4.195815,-0.073151,-0.185703,0.049938,32.48,65.2549930060812
8952,-8.271988,-3.778267,4.201797,-0.070555,-0.198531,0.05116,32.48,65.201180142707
8962,-8.264212,-3.765705,4.222135,-0.068264,-0.209832,0.053756,32.51,65.0660712199645
8972,-8.246863,-3.777071,4.244868,-0.067195,-0.219606,0.053603,32.51,64.9214658456449
8982,-8.245069,-3.76391,4.263412,-0.065821,-0.225867,0.054367,32.52,64.8081633475748
8992,-8.222935,-3.771687,4.281956,-0.066279,-0.229685,0.055131,32.52,64.6709477001275
9002,-8.227122,-3.766901,4.304688,-0.067501,-0.231212,0.055131,32.5,64.557895488342
9012,-8.230114,-3.75733,4.335794,-0.067959,-0.230754,0.054214,32.5,64.3943890969878
9022,-8.212766,-3.772285,4.359723,-0.07086,-0.226784,0.053145,32.49,64.2476153713597
9032,-8.199606,-3.754339,4.399205,-0.073457,-0.221744,0.052076,32.49,63.9963207483831
9042,-8.196614,-3.754937,4.425525,-0.081245,-0.204793,0.048869,32.54,63.855188706804
9052,-8.192427,-3.757928,4.435695,-0.084758,-0.192117,0.048106,32.53,63.7966847992292
9062,-8.184649,-3.751946,4.447659,-0.088575,-0.177915,0.045509,32.53,63.711346208076
9072,-8.17448,-3.745365,4.471587,-0.094531,-0.162948,0.043371,32.48,63.5586556522299
9082,-8.167302,-3.744768,4.473382,-0.099571,-0.14676,0.040164,32.48,63.5322619896951
9096,-8.156534,-3.75075,4.484748,-0.104611,-0.129962,0.036499,32.53,63.4556223404887
9102,-8.152946,-3.747759,4.496114,-0.108276,-0.111483,0.035888,32.53,63.386072170309
9112,-8.16132,-3.751946,4.500899,-0.112552,-0.091783,0.033598,32.51,63.3855810774902
9122,-8.136793,-3.744169,4.502694,-0.116064,-0.07254,0.031612,32.51,63.311036039297
9132,-8.128419,-3.743571,4.498507,-0.120035,-0.052687,0.02978,32.51,63.312249190895
9142,-8.143971,-3.734,4.49073,-0.122937,-0.032987,0.027947,32.51,63.3779993308177
9152,-8.141579,-3.736991,4.488935,-0.124158,-0.013134,0.026878,32.52,63.3847999637209
9162,-8.119445,-3.75733,4.480561,-0.125838,0.006414,0.025962,32.52,63.3979413818078
9172,-8.126624,-3.736991,4.468596,-0.126755,0.024129,0.026267,32.47,63.4541120990888
9182,-8.134401,-3.736392,4.464409,-0.127365,0.040928,0.025962,32.47,63.4930150981012
9192,-8.139785,-3.745365,4.443472,-0.127976,0.057421,0.025962,32.54,63.6224402983127
9202,-8.137392,-3.746562,4.413561,-0.126907,0.073304,0.027031,32.54,63.7719149143255
9212,-8.142178,-3.742374,4.397409,-0.12538,0.100182,0.029169,32.52,63.8616716114222
9222,-8.158927,-3.736991,4.393821,-0.121868,0.111177,0.030696,32.55,63.9129267551848
9232,-8.155936,-3.736991,4.383651,-0.119882,0.118966,0.03146,32.55,63.958477485055
9242,-8.183454,-3.741179,4.370491,-0.117133,0.127518,0.03375,32.53,64.0935032984108
9252,-8.177471,-3.732804,4.338786,-0.114385,0.132863,0.036652,32.53,64.2348322979914
9262,-8.190034,-3.734,4.320839,-0.111636,0.136223,0.038943,32.52,64.3573316887987
9272,-8.199007,-3.744768,4.305884,-0.108276,0.136987,0.040775,32.52,64.4660189238112
9282,-8.221141,-3.733402,4.292724,-0.105832,0.136834,0.043524,32.49,64.572194661658
9292,-8.222935,-3.741776,4.271787,-0.103084,0.134543,0.045204,32.49,64.6931584622793
9302,-8.229516,-3.742374,4.262814,-0.101251,0.130572,0.047189,32.53,64.7549443750707
9312,-8.255836,-3.743571,4.246662,-0.099266,0.123395,0.047953,32.53,64.8982717541446
9322,-8.273185,-3.747759,4.223332,-0.097738,0.114232,0.050244,32.51,65.061661674616
9332,-8.270791,-3.744169,4.208975,-0.095906,0.103694,0.052382,32.51,65.1273592621969
9342,-8.289336,-3.748955,4.196413,-0.09499,0.092393,0.053451,32.55,65.2379212947177
9352,-8.300702,-3.754339,4.192225,-0.094379,0.078191,0.054672,32.55,65.2897400386738
9362,-8.299506,-3.757928,4.169494,-0.093768,0.063072,0.056352,32.5,65.4087569418409
9372,-8.305488,-3.759723,4.157529,-0.092852,0.045815,0.057116,32.5,65.4856976363881
9382,-8.323434,-3.755535,4.158128,-0.093004,0.027794,0.058185,32.52,65.5172459782622
9392,-8.326425,-3.754339,4.148556,-0.094531,-0.011148,0.058643,32.54,65.5722901182568
9402,-8.323434,-3.759723,4.144967,-0.094837,-0.03146,0.058948,32.54,65.5897488433815
9412,-8.330612,-3.758526,4.147958,-0.094379,-0.052229,0.06017,32.51,65.5884730902277
9422,-8.321639,-3.753741,4.144369,-0.094684,-0.072388,0.060323,32.51,65.5831843209173
9432,-8.324032,-3.756732,4.149154,-0.0956,-0.092546,0.06017,32.52,65.566351877034
9442,-8.325827,-3.760321,4.161717,-0.096211,-0.112705,0.060323,32.52,65.5084202927375
9452,-8.319845,-3.754339,4.164708,-0.09728,-0.130572,0.060323,32.54,65.4741413659872
9462,-8.305488,-3.760919,4.180261,-0.096822,-0.14844,0.059865,32.54,65.3687165998202
9472,-8.3013,-3.753741,4.185645,-0.096669,-0.165086,0.06017,32.49,65.3246125330495
9482,-8.3013,-3.756732,4.201797,-0.096822,-0.180358,0.05849,32.49,65.2437418977846
9492,-8.294122,-3.756134,4.220341,-0.096975,-0.194255,0.05849,32.53,65.1313754426627
9502,-8.286943,-3.75733,4.229912,-0.096517,-0.205251,0.058643,32.53,65.0672747174769
9512,-8.279166,-3.757928,4.25085,-0.096669,-0.215025,0.057727,32.55,64.9424385453702
9522,-8.258228,-3.753142,4.281956,-0.096211,-0.222508,0.056352,32.55,64.7305792964749
9532,-8.250452,-3.759125,4.293322,-0.095906,-0.227242,0.054978,32.52,64.6606597882759
9542,-8.239684,-3.75733,4.308277,-0.0956,-0.229838,0.053145,32.52,64.5576595957421
9552,-8.225926,-3.744169,4.356134,-0.093921,-0.230143,0.052993,32.47,64.2667620192143
9562,-8.203195,-3.74716,4.375276,-0.094837,-0.222355,0.04948,32.47,64.1199487607344
9572,-8.19123,-3.742374,4.393223,-0.09499,-0.214566,0.049022,32.53,63.9954914219661
9582,-8.17149,-3.745365,4.405785,-0.094684,-0.205098,0.047495,32.54,63.8889509467055
9592,-8.173284,-3.737589,4.425525,-0.095142,-0.194561,0.045662,32.54,63.7835310261235
9602,-8.149356,-3.736991,4.439284,-0.095142,-0.180511,0.04444,32.48,63.6571645778715
9612,-8.145168,-3.742374,4.453641,-0.095295,-0.164628,0.042761,32.48,63.5795509069578
9622,-8.143971,-3.734598,4.469792,-0.0956,-0.147829,0.041081,32.54,63.4857518258204
9632,-8.126026,-3.74058,4.490132,-0.096517,-0.128893,0.040623,32.54,63.3462783168579
9642,-8.13141,-3.728018,4.49731,-0.09728,-0.108734,0.038637,32.49,63.3086638933953
9652,-8.121839,-3.725625,4.487739,-0.098807,-0.088575,0.036957,32.49,63.3327026502285
9662,-8.117052,-3.732205,4.500899,-0.099571,-0.067042,0.035125,32.53,63.2612237190912
9672,-8.114061,-3.734,4.505685,-0.10064,-0.045815,0.034667,32.53,63.2316752374256
9682,-8.116454,-3.731607,4.499105,-0.101862,-0.02474,0.032681,32.53,63.2683572857969
9692,-8.132606,-3.731607,4.494917,-0.102931,-0.003665,0.031307,32.53,63.3275370342728
9702,-8.130214,-3.725625,4.48415,-0.105069,0.016646,0.02978,32.5,63.370638695635
9712,-8.118249,-3.728616,4.470989,-0.10736,0.03543,0.028405,32.5,63.4133643664135
9722,-8.132008,-3.726223,4.457829,-0.10965,0.05452,0.028253,32.5,63.5103574338112
9732,-8.151749,-3.73041,4.450052,-0.112705,0.086437,0.026573,32.5,63.600486405242
9742,-8.160124,-3.726223,4.423731,-0.116981,0.099418,0.025198,32.51,63.7505061693674
9752,-8.173882,-3.724428,4.417151,-0.119271,0.111177,0.02474,32.55,63.8140891146947
9762,-8.172686,-3.739383,4.391428,-0.120799,0.120493,0.025045,32.55,63.9592554860284
9772,-8.18764,-3.72383,4.366901,-0.124006,0.127518,0.025656,32.54,64.103522648507
9782,-8.215158,-3.735196,4.355535,-0.126144,0.133474,0.026573,32.54,64.236290233407
9792,-8.215158,-3.731607,4.336991,-0.128434,0.136223,0.025809,32.5,64.3281772882249
9912,-8.31446,-3.767499,4.144369,-0.129503,-0.001985,0.047953,32.5,65.5811199153772
9922,-8.31147,-3.774678,4.131208,-0.126755,-0.022297,0.049938,32.5,65.6502202548545
9932,-8.31446,-3.777071,4.138985,-0.122173,-0.042455,0.052993,32.5,65.6184776209906
9942,-8.313862,-3.772285,4.13061,-0.118202,-0.062614,0.055283,32.51,65.6561382647899
9952,-8.312068,-3.762115,4.133003,-0.113621,-0.082772,0.056505,32.51,65.629915406518
9962,-8.310272,-3.773481,4.131208,-0.108429,-0.102778,0.058185,32.51,65.6464810744444
9972,-8.31147,-3.782454,4.147958,-0.103236,-0.121715,0.05849,32.51,65.5706248968038
9982,-8.300702,-3.77408,4.150351,-0.097586,-0.13943,0.061239,32.52,65.5267809147768
9992,-8.3013,-3.785445,4.165905,-0.093157,-0.155771,0.06185,32.52,65.458344007692
10002,-8.288737,-3.779463,4.189833,-0.087354,-0.17089,0.063835,32.5,65.3009487493797
10012,-8.279764,-3.778267,4.195815,-0.082161,-0.184329,0.064446,32.5,65.2491890034113
10022,-8.268997,-3.772285,4.209573,-0.078038,-0.19624,0.064599,32.5,65.1483131953901
10032,-8.259426,-3.783053,4.237689,-0.074067,-0.205098,0.065821,32.5,64.9923364198709
10042,-8.246264,-3.765705,4.25384,-0.07086,-0.212276,0.067348,32.5,64.8621852282904
10052,-8.245667,-3.769294,4.275376,-0.067959,-0.218232,0.06689,32.5,64.7530483270826
10062,-8.227122,-3.773481,4.295715,-0.06521,-0.221286,0.066126,32.53,64.6109682780917
10072,-8.205587,-3.768098,4.339982,-0.063835,-0.222202,0.06689,32.53,64.3287502789166
10082,-8.197212,-3.761517,4.359723,-0.062919,-0.217315,0.065515,32.52,64.2013232745416
10092,-8.191828,-3.757928,4.376472,-0.063683,-0.211207,0.06521,32.56,64.0991837504481
10102,-8.181659,-3.756134,4.393223,-0.065057,-0.203113,0.064446,32.56,63.9880378149518
10112,-8.172088,-3.744768,4.41416,-0.066584,-0.191659,0.063988,32.49,63.8466681190547
10122,-8.17807,-3.748357,4.43749,-0.068875,-0.180205,0.062461,32.49,63.7445098623426
10132,-8.155936,-3.74716,4.454837,-0.072388,-0.166003,0.060018,32.54,63.6034047634551
10142,-8.149356,-3.741179,4.474578,-0.076205,-0.150731,0.058796,32.54,63.4807635279904
10152,-8.140383,-3.745964,4.476971,-0.081092,-0.133932,0.057116,32.52,63.4527976336957
10162,-8.137392,-3.731009,4.484748,-0.084605,-0.115606,0.055131,32.52,63.3900701266209
10172,-8.137392,-3.728616,4.490132,-0.090103,-0.096669,0.052229,32.54,63.3599729667485
10182,-8.130812,-3.728018,4.503891,-0.09499,-0.076511,0.050091,32.54,63.2736278892947
10192,-8.135597,-3.726821,4.504489,-0.100335,-0.0562,0.047189,32.5,63.280478790813
10202,-8.128419,-3.736392,4.509872,-0.105527,-0.036194,0.044593,32.5,63.2464695379779
10212,-8.136793,-3.720241,4.501498,-0.109956,-0.015424,0.043219,32.53,63.2915164471621
10222,-8.152347,-3.722036,4.495516,-0.114843,0.004734,0.040623,32.53,63.3603065809911
10232,-8.151749,-3.721437,4.484748,-0.119424,0.023518,0.037874,32.52,63.4133072995791
10242,-8.146365,-3.715455,4.462614,-0.123242,0.04215,0.036041,32.52,63.5077485837322
10252,-8.159525,-3.719045,4.447659,-0.12706,0.074373,0.032834,32.5,63.6187414961302
10262,-8.182856,-3.718446,4.435097,-0.133016,0.088881,0.029627,32.52,63.7363839767346
10272,-8.175676,-3.717848,4.420142,-0.133779,0.100945,0.028253,32.52,63.7959648782784
10282,-8.192427,-3.714259,4.398606,-0.135001,0.111788,0.027184,32.5,63.9413219120704
10292,-8.196614,-3.716054,4.387838,-0.136528,0.12034,0.025504,32.5,64.0081275979107
10302,-8.216354,-3.710072,4.360919,-0.13607,0.126296,0.025962,32.53,64.1854719884368
10312,-8.214561,-3.719643,4.342375,-0.135307,0.131031,0.024282,32.53,64.2867945521791
10322,-8.229516,-3.711866,4.318447,-0.134543,0.133016,0.02474,32.57,64.4361186338422
10332,-8.232506,-3.73041,4.299304,-0.13271,0.132252,0.024587,32.57,64.5605776152625
10342,-8.254042,-3.731009,4.291527,-0.131489,0.130114,0.023518,32.55,64.649505414212
10352,-8.258827,-3.726821,4.258626,-0.129351,0.125075,0.023976,32.55,64.8261253687334
10362,-8.264212,-3.728616,4.237091,-0.126602,0.118966,0.024587,32.5,64.951459179595
10372,-8.27139,-3.731607,4.234698,-0.123242,0.110108,0.02474,32.5,64.9826936895714
10382,-8.276773,-3.735795,4.219144,-0.120493,0.099724,0.025198,32.5,65.0793862176151
10392,-8.280362,-3.734,4.198806,-0.117133,0.087201,0.025962,32.5,65.1911041916785
10402,-8.29472,-3.743571,4.185645,-0.11469,0.074373,0.027184,32.5,65.3002949965977
10412,-8.295319,-3.743571,4.173681,-0.110872,0.059407,0.029322,32.5,65.3638011978488
10422,-8.298308,-3.758526,4.161119,-0.107512,0.043219,0.031001,32.53,65.4503130662614
10432,-8.300103,-3.747759,4.152744,-0.100182,0.00901,0.03207,32.57,65.4872587632822
10442,-8.29472,-3.760919,4.152744,-0.096822,-0.009163,0.034208,32.57,65.4884953678021
10452,-8.295916,-3.759723,4.146163,-0.093768,-0.027642,0.034972,32.54,65.5241926526374
10462,-8.295319,-3.762115,4.150351,-0.090255,-0.046426,0.036652,32.54,65.5034272008735
10472,-8.306684,-3.766303,4.146762,-0.08659,-0.065057,0.038637,32.53,65.5507482383926
10482,-8.293524,-3.766303,4.161119,-0.083383,-0.08323,0.040164,32.53,65.4475918969241
10492,-8.290532,-3.767499,4.152145,-0.081245,-0.10064,0.04215,32.52,65.4890176630907
10502,-8.291131,-3.766303,4.168297,-0.079412,-0.117133,0.043066,32.52,65.4050606633698
10512,-8.291729,-3.771687,4.180261,-0.077122,-0.132863,0.044746,32.52,65.3494681641071
10522,-8.277969,-3.777071,4.179065,-0.075136,-0.147219,0.047037,32.52,65.3311303683246
10533,-8.260622,-3.774678,4.191627,-0.075289,-0.161116,0.048258,32.49,65.225641225773
10542,-8.264212,-3.771687,4.216154,-0.073762,-0.172417,0.048717,32.49,65.1030857720354
10552,-8.250452,-3.775874,4.243073,-0.072998,-0.18158,0.049786,32.52,64.9374692855885
10562,-8.25165,-3.766303,4.259224,-0.072998,-0.190285,0.051771,32.52,64.8468202475946
10572,-8.245667,-3.771089,4.271787,-0.072693,-0.19624,0.053603,32.49,64.7734247400783
10582,-8.237292,-3.781258,4.291527,-0.072998,-0.201127,0.055283,32.49,64.6631733582254
10592,-8.228318,-3.765106,4.338188,-0.074067,-0.202502,0.055283,32.53,64.386008260778
10602,-8.221141,-3.765705,4.360919,-0.077274,-0.200975,0.055283,32.53,64.2535412595751
10612,-8.210373,-3.779463,4.371089,-0.078954,-0.19624,0.056352,32.5,64.1912390529696
10622,-8.189436,-3.765705,4.38724,-0.081856,-0.189674,0.057421,32.5,64.0464986111759
10632,-8.18764,-3.766303,4.404588,-0.08491,-0.182343,0.056352,32.5,63.9539488955453
10642,-8.190034,-3.756732,4.420142,-0.086743,-0.172722,0.055589,32.53,63.8696100168119
10652,-8.179864,-3.755535,4.430311,-0.08827,-0.160047,0.054672,32.53,63.7929624502993
10662,-8.181659,-3.754339,4.443472,-0.091324,-0.147066,0.053603,32.55,63.7284232963461
10672,-8.173882,-3.749553,4.453043,-0.094531,-0.133779,0.051771,32.55,63.6565138152106
10682,-8.175676,-3.752544,4.475177,-0.096822,-0.11805,0.04948,32.49,63.5506842976326
10692,-8.160722,-3.754937,4.472186,-0.098655,-0.102167,0.0478,32.49,63.5339599340858
10702,-8.162517,-3.74716,4.478765,-0.100793,-0.085216,0.04612,32.55,63.4962242423771
10712,-8.159525,-3.742374,4.478168,-0.103542,-0.068264,0.043677,32.55,63.4872572542955
10722,-8.160124,-3.744169,4.470989,-0.105985,-0.050702,0.040928,32.5,63.5272519378858
10732,-8.158329,-3.748357,4.476373,-0.107207,-0.032987,0.03879,32.5,63.5000231437549
10742,-8.154141,-3.747759,4.476373,-0.107818,-0.015424,0.035888,32.49,63.4896857153422
10752,-8.152946,-3.739383,4.470989,-0.109192,0.002596,0.034056,32.49,63.5055396015373
10762,-8.153543,-3.738786,4.450052,-0.10965,0.018326,0.031765,32.56,63.6135110536667
10772,-8.158329,-3.731009,4.445865,-0.110414,0.049633,0.027642,32.56,63.6378069946352
10782,-8.161918,-3.734,4.422534,-0.109803,0.062156,0.02642,32.53,63.7689734553994
10792,-8.156534,-3.731607,4.405187,-0.108734,0.075747,0.024893,32.51,63.8432614620541
10802,-8.158329,-3.739982,4.396214,-0.108734,0.085979,0.023366,32.51,63.9023754347827
10812,-8.188239,-3.729812,4.389633,-0.10736,0.096059,0.023518,32.52,63.9940464080728
10822,-8.175079,-3.726821,4.365705,-0.106138,0.104153,0.023518,32.52,64.0841611939556
10832,-8.18764,-3.737589,4.355535,-0.104763,0.110719,0.024435,32.54,64.1763898910724
10842,-8.186445,-3.739383,4.335794,-0.104,0.114843,0.024893,32.54,64.2774504862208
10852,-8.205587,-3.726821,4.322634,-0.103847,0.117133,0.024893,32.54,64.3757966736096
10862,-8.204391,-3.729812,4.31067,-0.102778,0.118508,0.026878,32.54,64.4380321046002
10872,-8.213962,-3.744768,4.28734,-0.101404,0.117592,0.027184,32.54,64.595574262786
10882,-8.217552,-3.737589,4.268795,-0.10064,0.116217,0.030849,32.54,64.6924081084262
10892,-8.233703,-3.733402,4.263412,-0.100487,0.111483,0.032223,32.51,64.7520952436179
10902,-8.248059,-3.742374,4.250251,-0.100029,0.106138,0.035125,32.51,64.8612521891851
10912,-8.252247,-3.741776,4.235296,-0.099724,0.098044,0.037568,32.48,64.9474875977349
10922,-8.26481,-3.732804,4.217948,-0.100335,0.088575,0.039706,32.48,65.0563102732928
10932,-8.256434,-3.748955,4.193422,-0.099876,0.078496,0.043066,32.55,65.1815090865551
10942,-8.287541,-3.741179,4.18086,-0.100793,0.065515,0.046884,32.55,65.3071753483301
10952,-8.297112,-3.745964,4.186841,-0.101098,0.036041,0.050091,32.52,65.3016435170589
10962,-8.303694,-3.744768,4.171288,-0.101098,0.020311,0.052534,32.52,65.3956135251312
10972,-8.319246,-3.744169,4.165905,-0.100793,0.002443,0.054214,32.52,65.4567158324938
10982,-8.31147,-3.754339,4.165905,-0.10064,-0.014813,0.056352,32.5,65.4498119194996
10992,-8.317451,-3.744169,4.164708,-0.10064,-0.033598,0.058185,32.5,65.4590525447254
11002,-8.327621,-3.750151,4.155735,-0.099418,-0.052687,0.05849,32.51,65.5334787663921
11012,-8.309077,-3.755535,4.170092,-0.098807,-0.07025,0.05849,32.51,65.4240406486621
11022,-8.327621,-3.735196,4.160521,-0.098197,-0.088881,0.058185,32.49,65.4940919566868
11032,-8.327023,-3.750151,4.18086,-0.097433,-0.107665,0.058643,32.49,65.4017359052249
11042,-8.316256,-3.743571,4.192824,-0.096517,-0.124006,0.058948,32.49,65.3098960383311
11052,-8.317451,-3.756134,4.199404,-0.096059,-0.140346,0.057116,32.49,65.2906960630701
11062,-8.318049,-3.745365,4.20718,-0.095295,-0.154702,0.055589,32.52,65.2411521945821
11072,-8.306085,-3.752544,4.219743,-0.095142,-0.168752,0.05452,32.52,65.1570696495909
11082,-8.302496,-3.744768,4.231707,-0.093921,-0.181122,0.052382,32.5,65.0796217728257
11092,-8.280362,-3.753142,4.250251,-0.093462,-0.191201,0.049327,32.5,64.9433898365752
11102,-8.282157,-3.761517,4.265805,-0.092852,-0.199447,0.0478,32.49,64.8753412333091
11112,-8.249854,-3.738187,4.297509,-0.09163,-0.205251,0.046578,32.49,64.6165147522425
11122,-8.233105,-3.747759,4.318447,-0.08995,-0.211054,0.041844,32.52,64.4807210086529
11132,-8.22772,-3.748955,4.335794,-0.088728,-0.210901,0.040012,32.53,64.3804282993936
11142,-8.213365,-3.750151,4.36391,-0.087965,-0.207083,0.038485,32.53,64.2045437044806
11152,-8.189436,-3.74716,4.381258,-0.087506,-0.201738,0.036346,32.5,64.0579114056187
11162,-8.172088,-3.751946,4.393223,-0.087201,-0.194255,0.035583,32.5,63.9618118748411
11172,-8.163115,-3.753741,4.409972,-0.086743,-0.184939,0.034667,32.51,63.8570568841159
11182,-8.16132,-3.74716,4.425525,-0.086437,-0.172875,0.03375,32.51,63.766112973492
11192,-8.142776,-3.74058,4.4339,-0.086132,-0.159283,0.034208,32.52,63.6734146504962
11202,-8.133204,-3.74058,4.447659,-0.086437,-0.143706,0.034361,32.52,63.5806223172198
11212,-8.120044,-3.748955,4.456034,-0.086896,-0.127365,0.034667,32.55,63.5160646407115
11222,-8.126624,-3.741179,4.465605,-0.087812,-0.109498,0.034514,32.55,63.4739270021091
11232,-8.118249,-3.742374,4.466802,-0.088728,-0.090561,0.03543,32.48,63.4495891091566
11242,-8.11466,-3.74716,4.486543,-0.089339,-0.072082,0.036499,32.48,63.3452079266845
11252,-8.116454,-3.747759,4.479364,-0.091019,-0.051771,0.037415,32.49,63.3868038067154
11262,-8.105686,-3.745964,4.474578,-0.092546,-0.031918,0.038637,32.49,63.3842951169574
11272,-8.115258,-3.742374,4.484748,-0.094837,-0.012675,0.039248,32.54,63.3506413516054
11282,-8.126624,-3.738187,4.465007,-0.096517,0.00672,0.039859,32.54,63.4737920334614
11292,-8.140383,-3.736392,4.4674,-0.098655,0.041844,0.041539,32.49,63.4915821839811
11302,-8.141579,-3.739383,4.451249,-0.104763,0.058185,0.040623,32.48,63.5803267206747
11312,-8.155338,-3.744768,4.436294,-0.108581,0.073304,0.041233,32.48,63.6945465579223
11322,-8.175079,-3.738187,4.429115,-0.111483,0.086437,0.040164,32.52,63.7698679419099
11332,-8.184052,-3.738786,4.419543,-0.115301,0.09728,0.040317,32.52,63.840189104364
11342,-8.197212,-3.744169,4.403392,-0.119424,0.107665,0.039095,32.53,63.9587788022507
11352,-8.200802,-3.731009,4.38724,-0.122631,0.114537,0.038026,32.53,64.0362507354491
11362,-8.218149,-3.737589,4.370491,-0.126144,0.119882,0.035888,32.53,64.1685703344478
11372,-8.237292,-3.731009,4.342973,-0.129351,0.123089,0.034667,32.53,64.3466478673234
11382,-8.246863,-3.734598,4.334598,-0.131947,0.124006,0.032834,32.51,64.414947552506
11392,-8.260024,-3.728616,4.319045,-0.134543,0.123089,0.03207,32.51,64.5184912064883
11402,-8.273782,-3.742973,4.295117,-0.137292,0.119424,0.030238,32.51,64.6869626283958
11412,-8.270791,-3.741776,4.275376,-0.139277,0.114385,0.028405,32.51,64.7810038842084
11422,-8.276175,-3.748955,4.25384,-0.141415,0.106596,0.028253,32.53,64.9114169779021
11432,-8.289336,-3.751348,4.240082,-0.141263,0.09728,0.027184,32.53,65.0139419905
11442,-8.292327,-3.751348,4.231109,-0.141568,0.086743,0.025656,32.52,65.0669418476247
11452,-8.296515,-3.744768,4.194618,-0.141721,0.075289,0.026725,32.52,65.2587764821277
11462,-8.296515,-3.74716,4.189833,-0.139277,0.061239,0.027947,32.52,65.2859781340514
11472,-8.301898,-3.75733,4.176074,-0.136528,0.031001,0.028711,32.57,65.3791542350568
11482,-8.292925,-3.757928,4.162913,-0.132252,0.014355,0.031307,32.57,65.4287277063974
11492,-8.285748,-3.762115,4.150351,-0.127824,-0.003818,0.034208,32.53,65.4827248368428
11502,-8.28455,-3.756134,4.143771,-0.123242,-0.02138,0.037568,32.53,65.5085680534084
11512,-8.287541,-3.763312,4.143771,-0.118661,-0.040317,0.040928,32.53,65.5220812009256
11522,-8.285748,-3.768696,4.140181,-0.11301,-0.058796,0.044288,32.53,65.5422150224321
11532,-8.294122,-3.768098,4.143172,-0.107512,-0.077122,0.048717,32.53,65.5441109687441
11542,-8.280362,-3.768696,4.147958,-0.101251,-0.09499,0.052993,32.53,65.490018083912
11552,-8.267202,-3.769294,4.151547,-0.095906,-0.111788,0.057727,32.52,65.4433818045179
11562,-8.263015,-3.766303,4.164708,-0.090713,-0.127976,0.062461,32.52,65.3626914610033
11572,-8.248658,-3.766303,4.180261,-0.085063,-0.143553,0.067653,32.52,65.2503242985481
11582,-8.266006,-3.759723,4.182056,-0.079565,-0.157145,0.071471,32.52,65.2723106812915
11592,-8.249256,-3.769294,4.198806,-0.076053,-0.169057,0.073915,32.5,65.1580630419352
11602,-8.254042,-3.759125,4.21735,-0.072235,-0.179747,0.077885,32.5,65.0619893854524
11612,-8.246264,-3.756134,4.239483,-0.069028,-0.188757,0.080176,32.51,64.9269607438779
11622,-8.2349,-3.754937,4.275974,-0.066584,-0.19563,0.082772,32.51,64.7114831444796
11632,-8.23131,-3.76391,4.292126,-0.064752,-0.200517,0.084452,32.52,64.6290785974522
11642,-8.210971,-3.758526,4.319045,-0.064294,-0.205556,0.084605,32.47,64.4390052000758
11652,-8.227122,-3.752544,4.341179,-0.065515,-0.204029,0.083994,32.47,64.3550259216454
11662,-8.225926,-3.760321,4.357928,-0.067806,-0.20128,0.081703,32.54,64.2741487258885
11672,-8.218149,-3.744768,4.377669,-0.070402,-0.195171,0.079565,32.54,64.1390852471021
11682,-8.193623,-3.74058,4.400999,-0.073609,-0.188605,0.077427,32.51,63.9591348528836
11692,-8.199606,-3.743571,4.417749,-0.077885,-0.179289,0.073915,32.51,63.8899856402872
11702,-8.196015,-3.749553,4.430909,-0.083078,-0.169362,0.070555,32.55,63.8206133279492
11712,-8.190034,-3.734598,4.459623,-0.087965,-0.157145,0.065515,32.55,63.644315251723
11722,-8.191828,-3.735795,4.458427,-0.092393,-0.143706,0.061087,32.54,63.6558167989277
11732,-8.183454,-3.74058,4.4674,-0.098502,-0.128587,0.05681,32.54,63.5957047183299
11742,-8.195418,-3.734,4.472784,-0.104611,-0.11301,0.052229,32.52,63.5888845967424
11752,-8.17149,-3.724428,4.486543,-0.110719,-0.096364,0.046731,32.52,63.4531954512284
11762,-8.169096,-3.732205,4.482953,-0.116064,-0.079107,0.041539,32.54,63.4742066465684
11772,-8.160722,-3.727419,4.494319,-0.121715,-0.061239,0.038332,32.54,63.3916448331346
11782,-8.1679,-3.73041,4.48415,-0.126144,-0.043371,0.033903,32.52,63.4634179279343
11792,-8.157133,-3.733402,4.483552,-0.130878,-0.025351,0.030696,32.52,63.4446563263366
11802,-8.155936,-3.723232,4.469792,-0.134543,-0.007636,0.027794,32.5,63.5014573873081
11812,-8.168499,-3.731607,4.464409,-0.140652,0.02474,0.023366,32.5,63.5669773950136
11822,-8.162517,-3.738187,4.451249,-0.142484,0.040164,0.021686,32.53,63.6274766158778
11832,-8.170293,-3.732205,4.438686,-0.144317,0.053756,0.021075,32.52,63.7034846570402
11842,-8.165507,-3.724428,4.415356,-0.14508,0.06689,0.020617,32.52,63.8040528493508
11852,-8.17149,-3.729214,4.396811,-0.145539,0.078038,0.019853,32.51,63.9181795589625
11862,-8.185846,-3.729812,4.380062,-0.144622,0.087354,0.020311,32.51,64.0378381573397
11872,-8.184052,-3.733402,4.369893,-0.144011,0.095448,0.021075,32.55,64.0898600986015
11882,-8.200802,-3.738786,4.347161,-0.142942,0.100945,0.021533,32.55,64.2506568631079
11892,-8.194221,-3.736392,4.333402,-0.140499,0.105527,0.02306,32.54,64.3043163701247
11902,-8.210373,-3.739383,4.321437,-0.138666,0.10736,0.025045,32.54,64.4056518994615
11912,-8.20798,-3.736991,4.3005,-0.135765,0.107818,0.026267,32.57,64.5060821782878
11922,-8.224131,-3.731607,4.289135,-0.133474,0.105832,0.0281,32.57,64.5956437466229
11932,-8.237292,-3.729214,4.267001,-0.130878,0.102167,0.029322,32.48,64.7372591709709
11942,-8.234302,-3.741776,4.252046,-0.127824,0.096822,0.031612,32.48,64.8208280490186
11952,-8.248059,-3.738786,4.241278,-0.124769,0.088881,0.032987,32.54,64.9041876528099
11962,-8.261818,-3.746562,4.225725,-0.122326,0.08094,0.034972,32.54,65.0230528911376
11972,-8.268997,-3.752544,4.201797,-0.118966,0.07086,0.037263,32.5,65.1690421601257
11982,-8.283354,-3.754339,4.195815,-0.11637,0.04612,0.041539,32.5,65.233291029561
11992,-8.286345,-3.75075,4.196413,-0.111941,0.033292,0.043524,32.49,65.2331654554106
12002,-8.286943,-3.754339,4.183851,-0.109345,0.018326,0.044593,32.51,65.3032857033887
12012,-8.286943,-3.748357,4.178466,-0.107207,0.003512,0.046884,32.51,65.3253914771221
12022,-8.286345,-3.745365,4.182654,-0.105374,-0.011454,0.0478,32.54,65.2993593319357
12032,-8.286345,-3.754339,4.171288,-0.104458,-0.028253,0.049022,32.54,65.3673278736063
12042,-8.297112,-3.759125,4.173681,-0.102931,-0.044288,0.050702,32.54,65.3829715831762
12052,-8.302496,-3.751348,4.17069,-0.10232,-0.059407,0.051924,32.54,65.4025681811569
12062,-8.291729,-3.768696,4.182056,-0.102167,-0.075747,0.053451,32.51,65.3371896373499
12072,-8.294122,-3.759125,4.174279,-0.101098,-0.090561,0.054978,32.51,65.3733734882241
12082,-8.286943,-3.761517,4.18086,-0.100945,-0.105222,0.056352,32.52,65.3259179009364
12092,-8.291131,-3.767499,4.186243,-0.10064,-0.11973,0.057727,32.52,65.3129584683998
12102,-8.287541,-3.760919,4.203591,-0.099724,-0.133169,0.059865,32.54,65.2085731518087
12112,-8.267202,-3.76391,4.216154,-0.100335,-0.14615,0.061239,32.54,65.1018693512178
12122,-8.27139,-3.760321,4.22393,-0.100182,-0.157451,0.062919,32.51,65.0671362540767
12132,-8.267202,-3.76391,4.235296,-0.100487,-0.168446,0.062614,32.51,65.0026109793238
12142,-8.264212,-3.760919,4.256832,-0.100029,-0.176845,0.064446,32.54,64.88152814507
12152,-8.252247,-3.761517,4.277769,-0.100335,-0.184939,0.066737,32.54,64.747398722603
12162,-8.237292,-3.753142,4.296911,-0.099876,-0.19563,0.067042,32.5,64.6067345974413
12172,-8.240881,-3.751946,4.316054,-0.099876,-0.19792,0.067959,32.5,64.5147406719919
12182,-8.22473,-3.77049,4.325027,-0.099571,-0.198837,0.067959,32.5,64.4512925030303
12192,-8.216354,-3.764508,4.344768,-0.099724,-0.196851,0.06857,32.52,64.3246227657289
12202,-8.192427,-3.763312,4.358526,-0.099876,-0.192575,0.06918,32.52,64.1985259409906
12212,-8.203195,-3.762714,4.374678,-0.100029,-0.186772,0.068417,32.47,64.1391650838989
12222,-8.193623,-3.752544,4.389035,-0.100029,-0.180053,0.06857,32.47,64.0330613506095
12232,-8.182258,-3.748357,4.404588,-0.10064,-0.170126,0.068111,32.54,63.9228695574556
12242,-8.16132,-3.756134,4.42074,-0.101251,-0.159436,0.066584,32.54,63.8001540156336
12252,-8.169695,-3.745365,4.430909,-0.101862,-0.147219,0.065668,32.5,63.755846393861
12262,-8.152347,-3.75075,4.445267,-0.101862,-0.133474,0.064752,32.5,63.6479692004674
12272,-8.160124,-3.745964,4.44048,-0.102473,-0.117897,0.062308,32.51,63.6853725664454
12282,-8.160124,-3.748955,4.460222,-0.103236,-0.102473,0.060018,32.51,63.5874133302059
12292,-8.16132,-3.742973,4.46381,-0.104916,-0.085827,0.057879,32.53,63.5654709629753
12302,-8.154141,-3.744768,4.470391,-0.105374,-0.06918,0.054214,32.53,63.5170946898646
12312,-8.151151,-3.742973,4.469792,-0.106291,-0.051618,0.052076,32.54,63.5113226456312
12322,-8.147561,-3.737589,4.46381,-0.10736,-0.033445,0.049175,32.54,63.5278986665491
12332,-8.151749,-3.73041,4.468596,-0.110261,-0.001069,0.041539,32.5,63.505476379689
12342,-8.168499,-3.729214,4.457231,-0.112399,0.01573,0.039095,32.5,63.6011841442552
12352,-8.160124,-3.735196,4.455436,-0.113468,0.031001,0.034819,32.5,63.5973357294083
12362,-8.162517,-3.731009,4.432704,-0.114232,0.045357,0.032376,32.48,63.714986706823
12372,-8.169695,-3.736991,4.435097,-0.116523,0.058948,0.030696,32.48,63.7255482639279
12382,-8.17149,-3.732205,4.415954,-0.117592,0.070708,0.028711,32.52,63.822893316225
12392,-8.176873,-3.726821,4.406384,-0.119119,0.081703,0.027184,32.52,63.8787846395473
12402,-8.17448,-3.734598,4.390232,-0.120493,0.090713,0.025198,32.55,63.9645105938169
12412,-8.189436,-3.731009,4.361517,-0.121409,0.097738,0.024587,32.55,64.1428041509003
12422,-8.178668,-3.738786,4.356732,-0.122631,0.104,0.025198,32.53,64.1510709416557
12432,-8.19781,-3.731607,4.342375,-0.123547,0.107512,0.024587,32.53,64.2611711737327
12442,-8.206185,-3.737589,4.322036,-0.124158,0.109498,0.025962,32.51,64.3912818991772
12452,-8.203793,-3.737589,4.294518,-0.125533,0.109192,0.026573,32.51,64.528265299721
12462,-8.222935,-3.727419,4.287939,-0.125227,0.10736,0.028253,32.55,64.5949042424074
12472,-8.229516,-3.738187,4.269992,-0.125686,0.103542,0.030543,32.55,64.7134978767955
12482,-8.242078,-3.739982,4.25743,-0.126144,0.097891,0.032834,32.55,64.8083649308481
12492,-8.242676,-3.741179,4.221537,-0.126755,0.090103,0.034972,32.55,64.9972189638922
12502,-8.272586,-3.742973,4.213162,-0.126907,0.069791,0.039095,32.54,65.1083658513733
12512,-8.276175,-3.737589,4.202394,-0.126755,0.058796,0.042608,32.54,65.1668329731741
12522,-8.282756,-3.744169,4.194618,-0.12538,0.045662,0.04612,32.54,65.2281503757863
12532,-8.290532,-3.742374,4.192824,-0.125075,0.030085,0.048564,32.54,65.252683230319
12542,-8.286943,-3.751348,4.183851,-0.1237,0.014355,0.050855,32.54,65.3003356025683
12552,-8.305488,-3.741179,4.179065,-0.123395,-0.001833,0.05284,32.51,65.3555724080081
12562,-8.313264,-3.732205,4.174279,-0.122478,-0.018173,0.053909,32.51,65.3885701576406
12572,-8.324032,-3.743571,4.173083,-0.121409,-0.035125,0.056352,32.51,65.4292071643843
12582,-8.319845,-3.750151,4.170092,-0.120188,-0.052534,0.058032,32.51,65.4420892768691
12592,-8.316256,-3.750151,4.169494,-0.118508,-0.07025,0.057879,32.51,65.4374285733727
12602,-8.325827,-3.754339,4.174878,-0.117744,-0.087048,0.058796,32.51,65.4342659294275
12612,-8.315658,-3.751946,4.177869,-0.116217,-0.104458,0.058032,32.52,65.3943916514671
12622,-8.30788,-3.748955,4.188038,-0.114079,-0.119424,0.05849,32.52,65.3217931436997
12632,-8.309077,-3.756134,4.185047,-0.111636,-0.135001,0.058338,32.53,65.3469603837362
12642,-8.292327,-3.752544,4.207779,-0.109192,-0.149204,0.058338,32.53,65.1890107726964
12652,-8.287541,-3.752544,4.214359,-0.107054,-0.161574,0.058948,32.55,65.1444241696839
12662,-8.280362,-3.756134,4.235895,-0.105069,-0.173333,0.05681,32.55,65.0206634644168
12672,-8.256434,-3.757928,4.24726,-0.102931,-0.183565,0.055283,32.52,64.9109054455306
12682,-8.250452,-3.761517,4.262215,-0.097433,-0.19792,0.055131,32.53,64.8238606542129
12692,-8.23789,-3.758526,4.285545,-0.096517,-0.203724,0.054672,32.53,64.6722737220471
12702,-8.23131,-3.761517,4.3005,-0.093157,-0.205709,0.054672,32.49,64.5833749890351
12712,-8.218747,-3.756134,4.313661,-0.08995,-0.20632,0.054062,32.49,64.4817996269629
12722,-8.190632,-3.763312,4.331607,-0.089186,-0.204182,0.053909,32.54,64.3333089361994
12732,-8.191828,-3.75075,4.363312,-0.087965,-0.200517,0.053756,32.54,64.1594622858024
12742,-8.17807,-3.756732,4.369893,-0.085979,-0.194408,0.054978,32.49,64.1005495417596
12752,-8.173284,-3.757928,4.389633,-0.085521,-0.186925,0.054825,32.49,63.9892814901423
12762,-8.152946,-3.753741,4.401597,-0.084758,-0.177609,0.054062,32.52,63.8768180031081
12772,-8.145168,-3.748955,4.418347,-0.085521,-0.166155,0.054825,32.52,63.7677345575677
12782,-8.143971,-3.756134,4.424927,-0.085979,-0.151953,0.055894,32.53,63.7387734084482
12792,-8.139785,-3.760321,4.453043,-0.087048,-0.137597,0.055131,32.53,63.5892894823216
12802,-8.130214,-3.755535,4.454239,-0.088117,-0.121868,0.055741,32.54,63.5559009849295
12812,-8.135597,-3.747759,4.466204,-0.090713,-0.104153,0.0562,32.54,63.4987321968872
12822,-8.135597,-3.747759,4.468596,-0.092546,-0.085827,0.055131,32.51,63.4864794901837
12832,-8.132008,-3.746562,4.469195,-0.095142,-0.067653,0.055283,32.51,63.4737987523765
12842,-8.136793,-3.753741,4.484748,-0.098502,-0.048106,0.055131,32.5,63.4130026935026
12852,-8.146963,-3.746562,4.485346,-0.106138,-0.009927,0.053603,32.5,63.4258902843643
12862,-8.146963,-3.74716,4.486543,-0.111177,0.008858,0.051771,32.49,63.4204118238436
12872,-8.155338,-3.746562,4.481159,-0.115148,0.025809,0.051007,32.54,63.4667225876743
12882,-8.166105,-3.75075,4.470989,-0.119119,0.042455,0.048258,32.54,63.5480703442421
12892,-8.176275,-3.736991,4.453043,-0.124311,0.058643,0.045662,32.52,63.6487738200149
12902,-8.196015,-3.736991,4.446463,-0.129045,0.071929,0.043219,32.52,63.7278668556367
12912,-8.197212,-3.741776,4.431507,-0.133016,0.08323,0.040164,32.55,63.8121549037299
12922,-8.209774,-3.738786,4.41416,-0.136681,0.093462,0.037568,32.55,63.9266153970674
12932,-8.230712,-3.735795,4.39083,-0.14111,0.101556,0.03375,32.52,64.0907630009256
12942,-8.231908,-3.736392,4.373481,-0.14447,0.107054,0.031307,32.52,64.1831257631394
12952,-8.240283,-3.748357,4.358526,-0.146608,0.11133,0.028863,32.55,64.2911240641441
12962,-8.252247,-3.741776,4.336392,-0.148898,0.112399,0.02642,32.55,64.4250954159995
12972,-8.261221,-3.736392,4.316652,-0.150426,0.111636,0.023824,32.5,64.5413536466096
12982,-8.257631,-3.736392,4.298706,-0.150578,0.108887,0.021838,32.5,64.6258712837954
12992,-8.267202,-3.732804,4.271188,-0.150578,0.104,0.020464,32.5,64.7856951381059
13002,-8.271988,-3.742374,4.259224,-0.15012,0.09728,0.020617,32.5,64.867743648925
13012,-8.266603,-3.753142,4.222734,-0.147829,0.090103,0.020159,32.54,65.0556657755496
13022,-8.272586,-3.748357,4.201797,-0.145844,0.068417,0.02306,32.54,65.1727437103433
13032,-8.28156,-3.752544,4.2006,-0.139125,0.055436,0.024282,32.49,65.2027436096556
13042,-8.273782,-3.748357,4.182654,-0.135612,0.041386,0.026573,32.52,65.2749088033065
13052,-8.260024,-3.751946,4.168297,-0.130725,0.026573,0.029474,32.52,65.3232320490708
13062,-8.274381,-3.751348,4.165905,-0.126144,0.010996,0.03375,32.52,65.3663913711281
13072,-8.2678,-3.757928,4.146163,-0.120646,-0.004734,0.037721,32.52,65.4615524557463
13082,-8.28156,-3.748357,4.14736,-0.115454,-0.02138,0.041386,32.49,65.4757362538664
13092,-8.27139,-3.751946,4.149154,-0.111025,-0.038485,0.045815,32.49,65.4478362140309
13102,-8.263015,-3.762714,4.160521,-0.105222,-0.054825,0.051618,32.52,65.3809665933939
13112,-8.267202,-3.766901,4.159923,-0.10064,-0.070097,0.056352,32.52,65.3973317453124
13122,-8.267202,-3.753741,4.160521,-0.095448,-0.085979,0.060781,32.54,65.3811991285123
13132,-8.260024,-3.762115,4.17069,-0.091172,-0.100945,0.066126,32.54,65.3208419277653
13142,-8.25464,-3.759723,4.179065,-0.087354,-0.115606,0.070708,32.53,65.2630707364532
13152,-8.258228,-3.754339,4.19402,-0.085063,-0.128282,0.075136,32.53,65.1876869888072
13162,-8.268398,-3.750151,4.198806,-0.08262,-0.140041,0.078038,32.54,65.180900130649
13172,-8.258228,-3.751946,4.213761,-0.080329,-0.150426,0.082314,32.54,65.0826563894217
13182,-8.252247,-3.745365,4.253242,-0.07926,-0.159589,0.084758,32.53,64.8580326073743
13192,-8.239684,-3.748955,4.267599,-0.078496,-0.167835,0.086896,32.53,64.7594184828979
13202,-8.245667,-3.75075,4.279563,-0.079565,-0.17822,0.087506,32.55,64.7126234227793
13212,-8.240881,-3.757928,4.301099,-0.080481,-0.180969,0.087506,32.55,64.5979819982572
13222,-8.249256,-3.75075,4.320839,-0.083078,-0.183107,0.086743,32.55,64.507592639469
13232,-8.240881,-3.745964,4.331009,-0.085521,-0.182496,0.085216,32.55,64.4315770214495
13242,-8.227122,-3.750151,4.347759,-0.088423,-0.181732,0.082925,32.55,64.3186954598498
13252,-8.233105,-3.734,4.372883,-0.092546,-0.179594,0.07926,32.57,64.1864498497178
13262,-8.223534,-3.748955,4.385446,-0.095906,-0.174555,0.076358,32.57,64.1156811130239
13272,-8.219944,-3.742374,4.394419,-0.098807,-0.16921,0.072693,32.53,64.0547002549899
13282,-8.20798,-3.743571,4.413561,-0.103389,-0.161574,0.06857,32.53,63.9305673448223
13292,-8.204989,-3.738786,4.41057,-0.107054,-0.153174,0.064599,32.52,63.9340974001448
13302,-8.209177,-3.743571,4.423133,-0.110872,-0.143095,0.060476,32.52,63.8842694943339
13312,-8.206783,-3.735196,4.4339,-0.115148,-0.13271,0.056047,32.54,63.8149585280566
13322,-8.200203,-3.736991,4.448855,-0.119424,-0.120493,0.052229,32.54,63.7252549753884
13332,-8.183454,-3.747759,4.454239,-0.12202,-0.107818,0.048717,32.54,63.6705362695693
13342,-8.188837,-3.73041,4.456034,-0.12538,-0.094073,0.044746,32.54,63.6555065171562
13352,-8.177471,-3.74058,4.455436,-0.127518,-0.080023,0.040928,32.5,63.643069712448
13362,-8.175676,-3.748955,4.461418,-0.129809,-0.065668,0.038179,32.5,63.6171811679699
13372,-8.173882,-3.729812,4.464409,-0.133474,-0.035125,0.033139,32.49,63.5775307862607
13382,-8.173284,-3.741179,4.456034,-0.135765,-0.020769,0.029932,32.54,63.6309883178263
13392,-8.166105,-3.737589,4.447061,-0.13607,-0.005498,0.029016,32.54,63.6565815337976
13402,-8.173284,-3.741776,4.438088,-0.136834,0.007789,0.027336,32.54,63.7235141379719
13412,-8.170892,-3.754937,4.426722,-0.136987,0.021533,0.025656,32.54,63.7901575096372
13422,-8.18764,-3.749553,4.421339,-0.137292,0.03375,0.024435,32.48,63.8504748186378
13432,-8.167302,-3.748357,4.399205,-0.136987,0.044288,0.023213,32.48,63.9163352852522
13442,-8.181659,-3.732804,4.394419,-0.136223,0.054062,0.022907,32.52,63.9575115211035
13452,-8.188239,-3.743571,4.378268,-0.135459,0.063835,0.023518,32.52,64.0668362823666
13462,-8.191828,-3.739383,4.372883,-0.134848,0.071319,0.023213,32.54,64.0983692618925
13472,-8.196614,-3.739383,4.353741,-0.133321,0.076664,0.023518,32.54,64.2078579298248
13482,-8.195418,-3.755535,4.331607,-0.132405,0.081703,0.023824,32.52,64.3360545848319
13492,-8.206783,-3.751946,4.323233,-0.130878,0.084452,0.024587,32.52,64.4011987454394
13502,-8.21157,-3.747759,4.313661,-0.129351,0.085521,0.025962,32.54,64.4571081813115
13512,-8.207382,-3.748357,4.289733,-0.126755,0.085216,0.026114,32.54,64.5721151744298
13522,-8.218149,-3.755535,4.282554,-0.12538,0.082772,0.027947,32.49,64.6407002474409
13532,-8.222935,-3.753741,4.258028,-0.124311,0.079565,0.029627,32.49,64.7766472711887
13542,-8.248658,-3.756134,4.241278,-0.122937,0.067042,0.033139,32.52,64.922938001731
13552,-8.242676,-3.749553,4.238287,-0.120646,0.059407,0.034514,32.54,64.9186171183914
13562,-8.247462,-3.751946,4.225127,-0.120188,0.050396,0.036652,32.54,64.999916629793
13572,-8.266006,-3.753741,4.215555,-0.119424,0.040012,0.03879,32.54,65.0922119898995
13582,-8.265409,-3.754937,4.216752,-0.11805,0.028863,0.041233,32.54,65.0858797161742
13592,-8.2678,-3.738187,4.195815,-0.117133,0.016646,0.04444,32.52,65.1832754464289
13602,-8.286943,-3.749553,4.198207,-0.117133,0.003512,0.046884,32.52,65.2239715611428
13612,-8.288139,-3.759125,4.187439,-0.116828,-0.010079,0.049327,32.5,65.2919665925203
13622,-8.291729,-3.753741,4.192225,-0.11637,-0.024282,0.051771,32.5,65.2696113667424
13632,-8.283354,-3.760321,4.193422,-0.114995,-0.038332,0.05452,32.52,65.2516410277462
13642,-8.289934,-3.764508,4.197011,-0.114995,-0.052993,0.057574,32.52,65.2514893720982
13652,-8.289336,-3.751348,4.191627,-0.115148,-0.067653,0.06017,32.52,65.2651405452115
13662,-8.282157,-3.757928,4.19402,-0.113926,-0.082009,0.062614,32.52,65.243555186241
13672,-8.285748,-3.765106,4.198806,-0.112552,-0.096517,0.065515,32.53,65.2336419814706
13682,-8.285748,-3.755535,4.204189,-0.112552,-0.109956,0.067501,32.53,65.1962236059153
13692,-8.282157,-3.756134,4.215555,-0.111636,-0.12202,0.070402,32.49,65.1299987226002
13702,-8.280362,-3.754339,4.224528,-0.110108,-0.135612,0.071624,32.49,65.0777614159354
13712,-8.269596,-3.760919,4.239483,-0.109498,-0.145997,0.076511,32.54,64.9831937518412
13722,-8.254042,-3.75733,4.260421,-0.106138,-0.163712,0.078191,32.52,64.8368692112693
13732,-8.254042,-3.75733,4.269393,-0.104611,-0.171042,0.078343,32.52,64.7904517815531
13742,-8.248059,-3.766303,4.28076,-0.10232,-0.176693,0.078496,32.54,64.7274953280742
13752,-8.242078,-3.764508,4.293921,-0.101862,-0.180511,0.07926,32.54,64.6443982649103
13762,-8.243872,-3.764508,4.315455,-0.100335,-0.183107,0.080329,32.51,64.5373111141635
13772,-8.227122,-3.760321,4.324429,-0.099571,-0.183718,0.079565,32.51,64.4493047499832
13782,-8.227122,-3.756134,4.341179,-0.098655,-0.182649,0.078038,32.48,64.3587099335502
13792,-8.21157,-3.750151,4.347759,-0.098044,-0.178984,0.076053,32.48,64.2836332746948
13802,-8.209177,-3.748357,4.377669,-0.09728,-0.173486,0.074678,32.5,64.1224573241611
13812,-8.199007,-3.74716,4.379463,-0.097128,-0.167072,0.073304,32.5,64.0889074353246
13822,-8.191828,-3.752544,4.392026,-0.098197,-0.159589,0.070555,32.5,64.0136065239124
13832,-8.180463,-3.741179,4.411767,-0.098349,-0.15012,0.06857,32.5,63.8743812020327
13842,-8.173284,-3.756134,4.424927,-0.097738,-0.139583,0.065668,32.53,63.8061104206221
13852,-8.17448,-3.745964,4.426722,-0.098807,-0.127824,0.062156,32.53,63.7889419424467
13862,-8.166704,-3.739982,4.433302,-0.099571,-0.114385,0.059254,32.51,63.7310202348368
13872,-8.168499,-3.753142,4.43749,-0.100793,-0.100487,0.056352,32.51,63.7275626759324
13882,-8.163115,-3.738786,4.452445,-0.102625,-0.085979,0.052687,32.53,63.6233648038705
13892,-8.147561,-3.743571,4.461418,-0.106901,-0.055283,0.047037,32.52,63.5465134055927
13902,-8.163115,-3.734,4.452445,-0.108581,-0.038637,0.044746,32.52,63.6183046849721
13912,-8.1679,-3.739982,4.448855,-0.110567,-0.022907,0.04215,32.53,63.6540585267601
13922,-8.152946,-3.738187,4.454837,-0.113316,-0.007025,0.040317,32.53,63.5869722180672
13932,-8.162517,-3.741179,4.444668,-0.115606,0.007483,0.03879,32.53,63.6643607824891
13942,-8.166704,-3.728616,4.442873,-0.11805,0.020617,0.036194,32.53,63.6699628166938
13952,-8.164909,-3.731607,4.42732,-0.120799,0.034056,0.032987,32.52,63.7487633996439
13962,-8.17807,-3.739982,4.424927,-0.123089,0.046578,0.032376,32.52,63.8001033798759
13972,-8.184649,-3.73041,4.420142,-0.125533,0.058032,0.030849,32.51,63.8297203034045
13982,-8.194221,-3.733402,4.393821,-0.127518,0.067042,0.029474,32.51,63.9899033290879
13992,-8.195418,-3.743571,4.388436,-0.129198,0.075136,0.029932,32.47,64.0308836267277
14002,-8.199606,-3.744169,4.359723,-0.131641,0.081398,0.028558,32.47,64.1887625552002
14012,-8.209774,-3.744169,4.351946,-0.134238,0.087048,0.027642,32.48,64.2518398046688
14022,-8.215158,-3.735795,4.339982,-0.135001,0.090561,0.029627,32.48,64.3170484523053
14032,-8.221739,-3.744169,4.317849,-0.136528,0.090561,0.029169,32.52,64.4546412130914
14042,-8.24148,-3.735795,4.313063,-0.13775,0.089797,0.029474,32.52,64.5150851993019
14052,-8.232506,-3.738786,4.282554,-0.138819,0.087965,0.030391,32.49,64.6557149818715
14062,-8.257631,-3.739982,4.25743,-0.139583,0.077733,0.032376,32.49,64.84285912341
14072,-8.2678,-3.738786,4.247859,-0.140194,0.069333,0.032834,32.56,64.9137249347146
14082,-8.277969,-3.738187,4.22752,-0.139583,0.059865,0.032987,32.51,65.0409426528724
14092,-8.279166,-3.741776,4.211368,-0.139125,0.050091,0.034208,32.51,65.1309274857269
14102,-8.283354,-3.74058,4.214359,-0.138056,0.03879,0.035277,32.53,65.1234030644181
14112,-8.291131,-3.747759,4.202394,-0.136987,0.025504,0.035888,32.53,65.2096096172331
