t_ms,ax,ay,az,gx,gy,gz,temp,ang_deg
12,-7.645068,-3.813561,3.993621,-0.024435,0.015577,-0.206625,32.5,64.9463091209302
22,-7.62114,-3.805784,3.991827,0.011148,0.012828,-0.134238,32.5,64.8920325814511
32,-7.613363,-3.812365,3.999603,0.048258,0.010537,-0.059712,32.48,64.8387769094448
42,-7.636693,-3.805186,4.0008,0.085063,0.007941,0.014966,32.48,64.877848967208
52,-7.659425,-3.800999,4.021737,0.120799,0.005803,0.088117,32.45,64.8105045355595
62,-7.706086,-3.79741,4.05404,0.155618,0.004734,0.158825,32.45,64.7374846120658
72,-7.766504,-3.786044,4.095914,0.186619,0.004734,0.22266,32.5,64.6365109493888
82,-7.833503,-3.775276,4.144369,0.214566,0.004429,0.279624,32.5,64.5177281301326
92,-7.923832,-3.756134,4.196413,0.238237,0.005803,0.32834,32.47,64.4265542327824
102,-8.009974,-3.748357,4.256233,0.256258,0.00672,0.365908,32.47,64.2995826199183
112,-8.111669,-3.726223,4.324429,0.26817,0.009774,0.390343,32.46,64.1524173075192
122,-8.200203,-3.721437,4.381856,0.27382,0.01405,0.404087,32.46,64.05266050856
132,-8.380861,-3.690929,4.504489,0.271835,0.019242,0.403935,32.5,63.8081246691188
142,-8.463414,-3.680759,4.553542,0.248164,0.034514,0.366825,32.5,63.7388911508689
152,-8.571091,-3.658028,4.604389,0.228158,0.04444,0.332158,32.45,63.7067917771456
162,-8.623135,-3.655036,4.654638,0.201586,0.053909,0.285885,32.44,63.5733707086543
172,-8.695518,-3.643671,4.674977,0.169668,0.062919,0.22938,32.44,63.6251353491422
182,-8.740981,-3.636492,4.699504,0.134085,0.071929,0.165086,32.47,63.6003870939823
192,-8.764909,-3.646064,4.70728,0.094837,0.080481,0.0956,32.47,63.6246800093828
202,-8.793025,-3.629912,4.71745,0.053451,0.086896,0.021838,32.44,63.6229567445141
212,-8.804989,-3.637091,4.704888,0.011759,0.091324,-0.053756,32.44,63.7167025034173
222,-8.785847,-3.638885,4.670192,-0.029932,0.094226,-0.129962,32.48,63.844224538229
232,-8.75115,-3.64726,4.649254,-0.068875,0.095448,-0.202349,32.48,63.877247745001
242,-8.702696,-3.652644,4.601996,-0.105985,0.094684,-0.270919,32.47,64.00636892759
252,-8.647062,-3.663411,4.544569,-0.139125,0.092852,-0.332005,32.47,64.1765304289911
262,-8.574082,-3.686741,4.490132,-0.166461,0.088575,-0.384234,32.48,64.3079282726192
272,-8.481958,-3.7005,4.433302,-0.187688,0.081856,-0.425773,32.48,64.402480046372
282,-8.389835,-3.719045,4.354339,-0.202196,0.072998,-0.45372,32.45,64.6168466805906
292,-8.302496,-3.729812,4.283153,-0.208916,0.06185,-0.470519,32.45,64.7991417797472
302,-8.199007,-3.772285,4.149154,-0.208916,0.049022,-0.472962,32.54,65.3102940670286
312,-8.019545,-3.808775,4.076771,-0.201127,0.018631,-0.44135,32.54,65.3355836896959
322,-7.939984,-3.813561,4.032505,-0.168446,0.001833,-0.408822,32.47,65.4014043796001
332,-7.865806,-3.833302,3.98405,-0.143859,-0.013744,-0.36545,32.46,65.5196448261905
342,-7.805387,-3.843472,3.948756,-0.113316,-0.029474,-0.314443,32.46,65.5885556624115
352,-7.756335,-3.855436,3.930212,-0.080176,-0.042761,-0.256411,32.42,65.5940275607892
362,-7.716255,-3.871587,3.906881,-0.043219,-0.054978,-0.192728,32.42,65.6509345769551
372,-7.694719,-3.868596,3.906283,-0.00504,-0.066432,-0.126296,32.46,65.6028094213566
382,-7.687541,-3.869194,3.906881,0.034819,-0.075136,-0.056658,32.46,65.5841244292671
392,-7.696514,-3.865007,3.929015,0.07422,-0.08323,0.014203,32.45,65.4774895267335
402,-7.710273,-3.867399,3.963711,0.112246,-0.089644,0.081856,32.45,65.3204602098437
412,-7.753942,-3.857828,4.005585,0.14844,-0.093921,0.14676,32.48,65.1792123888004
542,-8.647661,-3.661617,4.749155,0.108123,0.01405,0.122326,32.49,63.1734792606989
592,-8.557332,-3.65384,4.720441,-0.075289,0.079718,-0.181274,32.49,63.1006413741608
682,-7.900502,-3.75075,4.159324,-0.141873,0.133474,-0.313221,32.45,64.5647630332182
692,-7.860423,-3.763312,4.110869,-0.120799,0.127976,-0.276875,32.46,64.7463716071935
702,-7.83111,-3.776472,4.067201,-0.097433,0.121562,-0.23442,32.46,64.9293552857694
712,-7.805387,-3.78066,4.044468,-0.071319,0.113774,-0.185398,32.44,64.9985075379476
722,-7.792227,-3.784847,4.022335,-0.042761,0.104458,-0.132252,32.44,65.0934518485485
732,-7.798209,-3.787838,3.988835,-0.013439,0.094379,-0.077427,32.45,65.2927865331193
742,-7.796414,-3.777071,3.987041,0.016188,0.082772,-0.019548,32.45,65.2867214866021
752,-7.831708,-3.785445,3.980461,0.046884,0.070708,0.036499,32.42,65.4112105702626
852,-8.490333,-3.684947,4.395615,0.197309,-0.05452,0.301767,32.45,64.5960975169312
912,-8.698509,-3.659822,4.59721,0.058643,-0.053756,0.032834,32.44,64.027267584376
922,-8.693125,-3.667001,4.602595,0.026725,-0.049938,-0.027642,32.48,63.9956472768644
932,-8.677571,-3.666403,4.600202,-0.005345,-0.047495,-0.08659,32.48,63.9725082384462
982,-8.447262,-3.704688,4.486543,-0.142484,-0.030543,-0.336281,32.45,64.0616022976065
992,-8.357532,-3.725625,4.409972,-0.160352,-0.027642,-0.364839,32.45,64.2684193510568
1022,-8.052446,-3.77408,4.259224,-0.179289,-0.022602,-0.385609,32.47,64.408336507535
1032,-7.961519,-3.79741,4.221537,-0.169973,-0.023518,-0.366672,32.44,64.4246824879459
1042,-7.90469,-3.815356,4.185645,-0.154549,-0.02474,-0.338877,32.44,64.5048620528274
1052,-7.843074,-3.818945,4.151547,-0.134238,-0.025351,-0.3036,32.41,64.5498544573205
1072,-7.74796,-3.829114,4.108477,-0.082314,-0.025809,-0.211207,32.45,64.5745198007623
1082,-7.710872,-3.836293,4.100101,-0.052687,-0.023518,-0.156687,32.45,64.5424936501822
2522,-7.890931,-3.836293,4.055834,-0.020617,-0.063377,-0.102931,32.52,65.1910990849942
2542,-7.734201,-4.352544,4.213761,0.033598,-0.080329,-0.008399,32.44,64.6016613649083
2642,-8.22473,-3.692126,4.488338,0.158367,-0.128434,0.304822,32.47,63.533550828738
2662,-8.338388,-3.668795,4.574479,0.133779,-0.096211,0.271224,32.48,63.3365639983829
2682,-8.422137,-3.627519,4.646264,0.09499,-0.062003,0.210138,32.45,63.1298649517284
2702,-8.489137,-3.614359,4.682754,0.043677,-0.027336,0.126144,32.47,63.0907990668197
2732,-8.520842,-3.602993,4.685147,-0.044746,0.022449,-0.071319,32.47,63.140890078095
2752,-8.477771,-3.622734,4.650451,-0.131336,0.067653,-0.165697,32.45,63.2326308269858
2772,-8.390432,-3.6341,4.579265,-0.176693,0.094531,-0.24175,32.44,63.3976230247257
2832,-8.051848,-3.723232,4.321437,-0.209069,0.147219,-0.291383,32.46,64.0273505467564
2852,-7.965108,-3.751348,4.229314,-0.184023,0.154396,-0.242361,32.47,64.3417867174146
2872,-7.9011,-3.78066,4.155735,-0.14447,0.156076,-0.16753,32.46,64.6179521382185
2922,-7.925627,-3.808775,4.044468,0.008552,0.124158,0.118661,32.46,65.3000187654119
2952,-8.077571,-3.800999,4.070191,0.076205,0.086285,0.232892,32.47,65.4902462881769
2972,-8.19781,-3.789633,4.111467,0.106443,0.053451,0.278249,32.47,65.5229048002121
2992,-8.338987,-3.772285,4.162913,0.120951,0.01741,0.29123,32.48,65.542187730435
3012,-8.455039,-3.758526,4.236493,0.119119,-0.020159,0.270002,32.52,65.3988071146128
3042,-8.599805,-3.728018,4.341179,0.084758,-0.074678,0.182038,32.45,65.1486172231242
3092,-8.622537,-3.698107,4.458427,-0.055283,-0.140194,-0.10064,32.44,64.5827113399751
3112,-8.53161,-3.716054,4.459025,-0.103236,-0.147219,-0.186314,32.45,64.3977705148736
3132,-8.425727,-3.725625,4.421339,-0.140804,-0.149509,-0.249691,32.5,64.362730572173
3152,-8.290532,-3.741776,4.383651,-0.162643,-0.144317,-0.283594,32.47,64.2686461518987
3172,-8.154141,-3.748955,4.342375,-0.166003,-0.136528,-0.285427,32.45,64.1800770351924
3232,-7.835896,-3.80399,4.241278,-0.086896,-0.089186,-0.122173,32.41,64.0376495359198
3262,-7.799405,-3.799204,4.243671,0.009774,-0.046426,0.060628,32.44,63.9342194109748
3282,-7.827521,-3.787838,4.265206,0.057421,-0.023671,0.147677,32.44,63.8726243129788
3302,-7.90469,-3.765106,4.311268,0.095142,0.002138,0.220828,32.43,63.7842525541451
3322,-8.012965,-3.757928,4.373481,0.121257,0.0281,0.268628,32.45,63.7034368567539
3342,-8.139785,-3.732205,4.430311,0.131031,0.054672,0.289397,32.45,63.6760638440017
3362,-8.265409,-3.722036,4.481159,0.124311,0.079565,0.279624,32.43,63.6946284944918
3392,-8.423933,-3.686144,4.527221,0.089339,0.109498,0.215483,32.47,63.7866622589814
3402,-8.472386,-3.675375,4.530211,0.072082,0.117286,0.182801,32.45,63.8704265022807
3452,-8.562119,-3.671786,4.47398,-0.053603,0.1237,-0.07086,32.5,64.3480187112108
3472,-8.539985,-3.674777,4.418347,-0.09163,0.113468,-0.15012,32.46,64.5810026642006
3482,-8.515458,-3.679563,4.393223,-0.108123,0.105527,-0.187077,32.46,64.6582474863383
3492,-8.486146,-3.690929,4.354938,-0.12202,0.096822,-0.216094,32.5,64.7984397966997
3502,-8.422735,-3.708875,4.320839,-0.133169,0.086743,-0.240834,32.5,64.8501805880609
3512,-8.378469,-3.706482,4.288536,-0.140499,0.075136,-0.258701,32.47,64.9159927306148
3522,-8.325229,-3.717848,4.255635,-0.144622,0.062766,-0.270461,32.47,64.9793693653622
3532,-8.272586,-3.72383,4.219144,-0.145386,0.049938,-0.274737,32.42,65.0583113887992
3542,-8.215756,-3.732205,4.182056,-0.142332,0.036194,-0.270461,32.42,65.1346317743013
3552,-8.155936,-3.74058,4.15394,-0.136223,0.02306,-0.260229,32.47,65.1583282533508
3562,-8.10808,-3.759125,4.134199,-0.127365,0.010079,-0.242972,32.47,65.1753160964124
3572,-8.063812,-3.759125,4.118646,-0.115606,-0.002596,-0.219606,32.44,65.1593177224382
3582,-8.023732,-3.754937,4.10728,-0.100335,-0.014508,-0.189674,32.44,65.1259568062709
3592,-7.98126,-3.774678,4.084548,-0.083841,-0.025198,-0.155618,32.44,65.1730334801973
3602,-7.933403,-3.785445,4.079762,-0.066432,-0.044746,-0.077427,32.44,65.1028729528083
3612,-7.923832,-3.77049,4.095316,-0.026878,-0.052993,-0.03543,32.43,64.9818518489601
3622,-7.926225,-3.781856,4.091129,-0.005498,-0.059712,0.00733,32.45,65.021920511546
3632,-7.925028,-3.781258,4.103691,0.013744,-0.065363,0.049786,32.45,64.9512678925225
3642,-7.950153,-3.779463,4.128217,0.034361,-0.070097,0.090408,32.48,64.8750009294967
3792,-8.527422,-3.684349,4.575675,0.015577,-0.020769,0.004429,32.45,63.7763392813608
3802,-8.526226,-3.671188,4.561318,-0.007636,-0.01405,-0.039554,32.45,63.8322375278532
3812,-8.517851,-3.671786,4.560122,-0.030696,-0.00733,-0.084452,32.45,63.8199632482407
3822,-8.504689,-3.688536,4.545166,-0.053451,-0.001527,-0.127976,32.45,63.8811443749236
3832,-8.468798,-3.690331,4.534997,-0.075289,0.004429,-0.167988,32.47,63.8530572650356
3842,-8.440681,-3.690331,4.517051,-0.096211,0.009621,-0.203265,32.47,63.8796036707399
3852,-8.407183,-3.709473,4.490132,-0.113926,0.013439,-0.235183,32.43,63.9583469484164
3862,-8.35454,-3.71067,4.459623,-0.128587,0.017562,-0.259007,32.43,63.994910772165
3872,-8.303095,-3.724428,4.427918,-0.140957,0.021075,-0.276722,32.45,64.0535428396883
3882,-8.260024,-3.729214,4.395017,-0.15012,0.024435,-0.286954,32.45,64.1289663751099
3892,-8.199007,-3.741179,4.358526,-0.154396,0.027336,-0.28787,32.45,64.1904779715613
3902,-8.134999,-3.744768,4.331009,-0.156076,0.029169,-0.28222,32.45,64.1909916120677
3912,-8.065009,-3.756134,4.286144,-0.152258,0.031001,-0.270155,32.51,64.276960394023
3922,-8.024929,-3.773481,4.265206,-0.145691,0.031612,-0.249691,32.51,64.3136346336856
3932,-7.995617,-3.788436,4.225725,-0.136376,0.032681,-0.22205,32.48,64.4705731903319
3942,-7.92144,-3.8004,4.173681,-0.122631,0.032529,-0.188757,32.48,64.5902986347403
3952,-7.893922,-3.811168,4.163511,-0.086437,0.031307,-0.109803,32.43,64.5935479693632
3962,-7.878967,-3.811767,4.132405,-0.065057,0.029932,-0.065515,32.41,64.7263385769001
3972,-7.869994,-3.819543,4.124628,-0.042302,0.0281,-0.018937,32.41,64.7561533464037
3982,-7.875378,-3.824927,4.130012,-0.017868,0.026573,0.028253,32.45,64.7454909711728
3992,-7.886146,-3.818347,4.134199,0.006567,0.024893,0.074067,32.45,64.7402981307955
4002,-7.924431,-3.817749,4.146163,0.030391,0.022602,0.11805,32.45,64.7625704531668
4012,-7.933403,-3.818347,4.141976,0.053756,0.020159,0.158825,32.45,64.8058191328965
4022,-7.983653,-3.80399,4.162315,0.076511,0.018631,0.196699,32.45,64.7955541356187
4032,-8.018349,-3.800999,4.183252,0.0956,0.01573,0.227853,32.45,64.7596617186
4042,-8.079964,-3.799803,4.204189,0.111788,0.012981,0.251829,32.48,64.7863830749931
4052,-8.132008,-3.781258,4.243671,0.125991,0.010996,0.270308,32.48,64.6767537363781
4072,-8.248059,-3.769294,4.307081,0.142026,0.005956,0.282678,32.46,64.5946841058375
4102,-8.41137,-3.732205,4.403392,0.135612,-0.001069,0.243583,32.46,64.4281814150352
4122,-8.538787,-3.703491,4.47398,0.095753,-0.007483,0.145691,32.48,64.32671756173
4142,-8.559127,-3.697509,4.500899,0.05452,-0.009774,0.058796,32.46,64.231508048305
4212,-8.41436,-3.68375,4.451847,-0.09499,-0.009621,-0.22266,32.43,64.1421159726257
4222,-8.357532,-3.689135,4.430909,-0.109039,-0.007636,-0.244346,32.43,64.1257365217338
4232,-8.291729,-3.689135,4.403392,-0.12034,-0.005651,-0.259618,32.42,64.1172436399803
4242,-8.240881,-3.70409,4.371687,-0.126602,-0.003512,-0.26817,32.42,64.1796180676398
4252,-8.181061,-3.707081,4.355535,-0.130878,-0.001222,-0.269086,32.48,64.1298368394043
4262,-8.132606,-3.72383,4.319643,-0.13042,0.001374,-0.263283,32.48,64.2226126180244
4272,-8.067401,-3.724428,4.289733,-0.125991,0.004734,-0.248775,32.45,64.2300387294623
4282,-8.030313,-3.724428,4.235895,-0.117439,0.007941,-0.227547,32.45,64.4276761280961
4292,-7.948359,-3.739982,4.219743,-0.107054,0.011148,-0.172264,32.45,64.3416069799354
4302,-7.922636,-3.748357,4.198806,-0.078343,0.016035,-0.138972,32.47,64.4026063817429
4312,-7.903493,-3.737589,4.195216,-0.059712,0.019242,-0.099724,32.47,64.3658079008335
4322,-7.884949,-3.741776,4.191029,-0.040623,0.021686,-0.060476,32.44,64.3498307829982
4332,-7.885547,-3.741776,4.183252,-0.020769,0.023824,-0.018326,32.44,64.3927152976358
4342,-7.896315,-3.752544,4.183252,-0.000153,0.025962,0.02306,32.44,64.4293700708387
4352,-7.910074,-3.755535,4.193422,0.019548,0.02978,0.063683,32.44,64.4101566052716
4362,-7.938787,-3.745964,4.205386,0.039248,0.032223,0.102473,32.46,64.4022137250184
4372,-7.955537,-3.743571,4.21735,0.056047,0.033598,0.13607,32.46,64.3746926244182
4382,-8.001599,-3.753741,4.235296,0.071624,0.036194,0.167683,32.45,64.3964381032902
4392,-8.059625,-3.737589,4.253242,0.085979,0.038332,0.193797,32.45,64.4173255639067
4402,-8.095517,-3.727419,4.265206,0.096822,0.039401,0.214108,32.48,64.4256529144435
4412,-8.148159,-3.731607,4.289135,0.104611,0.040012,0.2277,32.48,64.4246219841101
4422,-8.209177,-3.725027,4.314857,0.109956,0.040775,0.235336,32.46,64.4222624563045
4432,-8.259426,-3.71725,4.335197,0.11133,0.040623,0.235183,32.46,64.4224903176281
4442,-8.321041,-3.722634,4.355535,0.110261,0.040012,0.229227,32.45,64.4614884801625
4452,-8.370093,-3.708875,4.405785,0.106443,0.03879,0.217315,32.45,64.3011374064594
4462,-8.459825,-3.71067,4.408776,0.099571,0.035125,0.19792,32.47,64.487108000233
4472,-8.498708,-3.696911,4.429713,0.0759,0.029169,0.143248,32.45,64.454085611093
4482,-8.520842,-3.706482,4.42732,0.061239,0.025656,0.108429,32.45,64.5239907541969
4492,-8.550752,-3.698107,4.439882,0.044593,0.02138,0.071166,32.43,64.5185991833315
4502,-8.567502,-3.694518,4.447659,0.025656,0.016646,0.031612,32.43,64.5129613521469
4512,-8.571091,-3.704688,4.459623,0.006872,0.011301,-0.010079,32.44,64.4706185232606
4522,-8.556733,-3.702295,4.438686,-0.013134,0.005345,-0.052382,32.44,64.5416630834397
4532,-8.556733,-3.709473,4.439284,-0.033139,-0.000611,-0.093462,32.44,64.5454701926195
4542,-8.540583,-3.711866,4.416552,-0.051313,-0.007178,-0.133321,32.44,64.6264538345244
4552,-8.509476,-3.719643,4.405785,-0.068111,-0.014661,-0.167377,32.45,64.6199895484333
4562,-8.47119,-3.73041,4.388436,-0.082772,-0.022449,-0.199295,32.45,64.6339797612961
4572,-8.426923,-3.728018,4.356732,-0.095295,-0.030543,-0.226478,32.45,64.6951637337922
4582,-8.379665,-3.732804,4.33041,-0.105222,-0.037568,-0.246331,32.45,64.7299791628718
4592,-8.322835,-3.747759,4.320839,-0.111636,-0.045051,-0.261908,32.43,64.6682732643986
4602,-8.260622,-3.754339,4.295715,-0.115606,-0.052229,-0.268781,32.43,64.6660844423608
4632,-8.065009,-3.789633,4.217948,-0.107665,-0.068264,-0.251371,32.48,64.6698212321279
4642,-8.01117,-3.788436,4.205386,-0.087965,-0.073762,-0.208305,32.48,64.6131654661636
4652,-7.959126,-3.792026,4.192225,-0.074067,-0.07422,-0.178984,32.51,64.5685185404381
4662,-7.923832,-3.800999,4.191627,-0.059407,-0.073304,-0.145539,32.43,64.5010111184335
4672,-7.898708,-3.795615,4.202993,-0.041386,-0.071929,-0.109498,32.43,64.3771404117862
4682,-7.899904,-3.803392,4.191029,-0.022144,-0.070097,-0.070097,32.49,64.4520845943044
4692,-7.881958,-3.793222,4.198806,-0.00168,-0.065363,-0.02978,32.49,64.3582375908756
4702,-7.869396,-3.796213,4.205386,0.017715,-0.061545,0.010079,32.46,64.2975687294622
4712,-7.872984,-3.794419,4.221537,0.038485,-0.055741,0.050855,32.46,64.2179383791212
4722,-7.899904,-3.792026,4.240082,0.057269,-0.049327,0.089034,32.46,64.1791027085608
4732,-7.925627,-3.786642,4.26401,0.0759,-0.041233,0.125533,32.46,64.1060632985505
4742,-7.946565,-3.774678,4.289733,0.092241,-0.032223,0.158672,32.46,64.0057704877535
4752,-7.984251,-3.769892,4.314857,0.105985,-0.022144,0.187077,32.46,63.9559074060374
4762,-8.036295,-3.759125,4.34417,0.117133,-0.012981,0.209069,32.46,63.9114410208256
4772,-8.07458,-3.752544,4.379463,0.125991,-0.002443,0.22602,32.46,63.8094625491403
4782,-8.123632,-3.735196,4.405187,0.131183,0.010537,0.237016,32.44,63.7712697573343
4792,-8.177471,-3.735196,4.42732,0.132558,0.022144,0.240223,32.44,63.7814299520746
4802,-8.237292,-3.711866,4.492525,0.13042,0.032681,0.23671,32.46,63.5617513044553
4812,-8.338987,-3.699304,4.503293,0.12538,0.055436,0.211512,32.46,63.727381903998
4822,-8.382057,-3.697509,4.520042,0.105527,0.065668,0.189979,32.46,63.7391299690349
4832,-8.413763,-3.691527,4.540979,0.091172,0.075747,0.162032,32.48,63.6999912459188
4842,-8.449057,-3.691527,4.54397,0.07422,0.083994,0.13042,32.48,63.7648917752466
4852,-8.484351,-3.68375,4.55055,0.057421,0.09163,0.095142,32.45,63.8039607613434
4862,-8.501101,-3.686144,4.552345,0.038026,0.098044,0.056047,32.45,63.8350024488325
4872,-8.522635,-3.681358,4.536791,0.01741,0.103236,0.013744,32.48,63.956084405999
4882,-8.518449,-3.672385,4.532604,-0.003207,0.107512,-0.026878,32.48,63.9589335229955
4892,-8.516654,-3.678965,4.514658,-0.024129,0.111177,-0.068417,32.47,64.0508133422629
4902,-8.499905,-3.681956,4.499105,-0.043524,0.112857,-0.107665,32.47,64.0940889793087
4912,-8.485548,-3.683152,4.475775,-0.062614,0.113468,-0.144317,32.46,64.1801678987432
4922,-8.442476,-3.690331,4.442873,-0.078649,0.111941,-0.177609,32.46,64.2567209767342
4932,-8.413763,-3.7005,4.41057,-0.092852,0.110567,-0.205403,32.44,64.3660239578869
4942,-8.374879,-3.705884,4.376472,-0.104305,0.108429,-0.2277,32.44,64.4579848348708
4952,-8.325827,-3.71725,4.336991,-0.113163,0.104153,-0.243735,32.46,64.5617522435155
4962,-8.272586,-3.714259,4.307679,-0.118813,0.099113,-0.253814,32.46,64.5907027717121
4972,-8.230712,-3.738786,4.22094,-0.120646,0.09331,-0.255647,32.48,64.9714829565568
4982,-8.125427,-3.750151,4.204189,-0.119119,0.086285,-0.24007,32.48,64.8363502066708
4992,-8.097312,-3.749553,4.170092,-0.10568,0.071624,-0.222202,32.5,64.9521280998965
5002,-8.061419,-3.76391,4.150351,-0.095295,0.062766,-0.198378,32.47,64.9910430320705
5012,-8.024929,-3.771089,4.122834,-0.082009,0.05452,-0.169668,32.47,65.0628471760017
5022,-7.997412,-3.764508,4.104887,-0.067042,0.044593,-0.138056,32.44,65.0898570488237
5032,-7.972885,-3.775874,4.078567,-0.049938,0.034819,-0.101862,32.44,65.1875626297495
5042,-7.9681,-3.784847,4.073781,-0.031154,0.024587,-0.063072,32.45,65.2119959870766
5052,-7.954939,-3.784249,4.070789,-0.011301,0.014661,-0.022755,32.45,65.1979746167828
5062,-7.972885,-3.781856,4.072584,0.008705,0.004734,0.016646,32.47,65.225916889283
5072,-7.979465,-3.783651,4.07737,0.028558,-0.005345,0.05681,32.47,65.2168933405466
5082,-8.012366,-3.771687,4.091727,0.0478,-0.016035,0.094379,32.46,65.2009934289453
5092,-8.030313,-3.775276,4.104887,0.06689,-0.026878,0.129045,32.46,65.1746567014219
5102,-8.076375,-3.769294,4.131807,0.083841,-0.036957,0.159741,32.41,65.1280881499909
5112,-8.111669,-3.762714,4.150949,0.097891,-0.047189,0.18555,32.41,65.0985913812486
5122,-8.158329,-3.75733,4.183851,0.109956,-0.05681,0.206472,32.46,65.0236477444152
5132,-8.201998,-3.759723,4.20718,0.118966,-0.065973,0.221133,32.46,65.0007966762049
5142,-8.254042,-3.739383,4.239483,0.125075,-0.075595,0.228158,32.46,64.9273333018285
5152,-8.352147,-3.727419,4.313063,0.128282,-0.083078,0.230754,32.46,64.7527680991071
5162,-8.388638,-3.719643,4.351348,0.124006,-0.098655,0.212734,32.48,64.6300317281585
5172,-8.426923,-3.708875,4.380062,0.116675,-0.104,0.194102,32.46,64.5580763271248
5182,-8.459227,-3.701099,4.412963,0.106749,-0.108276,0.169057,32.46,64.4553703639983
5192,-8.498111,-3.698706,4.435695,0.094531,-0.112094,0.140194,32.46,64.4243950997867
5202,-8.496913,-3.695116,4.47398,0.078802,-0.115148,0.10736,32.46,64.2260090836433
5212,-8.516654,-3.696313,4.497908,0.061392,-0.115759,0.069944,32.47,64.1512138537803
5222,-8.516056,-3.69392,4.519444,0.04215,-0.115148,0.029932,32.47,64.0400246108081
5232,-8.510672,-3.686741,4.533203,0.022449,-0.112552,-0.010385,32.45,63.9524281560936
5242,-8.505887,-3.685545,4.534399,0.002138,-0.108887,-0.052229,32.45,63.9345985255775
5252,-8.474181,-3.68734,4.540979,-0.018784,-0.103236,-0.092393,32.48,63.8323516484742
5262,-8.435298,-3.698706,4.549952,-0.03879,-0.096059,-0.129962,32.48,63.7109865530794
5272,-8.410173,-3.689135,4.53739,-0.057421,-0.087659,-0.165239,32.47,63.70745894853
5282,-8.365308,-3.696313,4.534399,-0.074373,-0.077427,-0.196699,32.47,63.6276114423367
5292,-8.32463,-3.704688,4.520042,-0.088575,-0.065515,-0.221286,32.46,63.615516061255
5302,-8.268997,-3.715455,4.496712,-0.101098,-0.052534,-0.242361,32.46,63.6171230262026
5312,-8.212766,-3.706482,4.481159,-0.110414,-0.040164,-0.256258,32.5,63.5574095845882
5322,-8.151151,-3.723232,4.429115,-0.115912,-0.025809,-0.264505,32.5,63.6989867868872
5332,-8.056634,-3.728018,4.402793,-0.117592,0.004123,-0.25916,32.49,63.620536868779
5342,-8.01117,-3.736991,4.380062,-0.112094,0.018326,-0.248317,32.45,63.6421657372913
5352,-7.962716,-3.756134,4.344768,-0.104305,0.032223,-0.229074,32.45,63.7341282444016
5362,-7.924431,-3.756732,4.324429,-0.093157,0.04612,-0.204029,32.46,63.7519170698561
5372,-7.905288,-3.762115,4.305286,-0.079107,0.058948,-0.174402,32.46,63.8138349774326
5382,-7.88136,-3.757928,4.283153,-0.063683,0.071013,-0.142332,32.48,63.8700027878534
5392,-7.867601,-3.771089,4.269992,-0.045662,0.082467,-0.105374,32.48,63.9221984155917
5402,-7.862815,-3.766901,4.255635,-0.027947,0.092393,-0.067348,32.43,63.9824518635223
5412,-7.868797,-3.771089,4.244269,-0.008399,0.101556,-0.028405,32.43,64.0614248067014
5422,-7.881958,-3.773481,4.235895,0.011301,0.109039,0.011606,32.5,64.1391526501556
5432,-7.903493,-3.771687,4.232903,0.030543,0.114843,0.051465,32.5,64.2029466337013
5442,-7.945966,-3.78066,4.235296,0.048717,0.119119,0.089492,32.45,64.2980588612443
5452,-7.971688,-3.766901,4.229912,0.065057,0.122478,0.123242,32.45,64.3705610973659
5462,-8.020741,-3.771089,4.249653,0.079412,0.124617,0.155465,32.44,64.3831889354091
5472,-8.059625,-3.772285,4.255635,0.091019,0.12538,0.180358,32.44,64.4415399955292
5483,-8.169695,-3.764508,4.284947,0.101251,0.124617,0.201586,32.48,64.5290207726423
5492,-8.169695,-3.764508,4.30409,0.107665,0.12202,0.215635,32.48,64.42972196741
5502,-8.29472,-3.747759,4.325625,0.111636,0.118661,0.226173,32.46,64.581336373812
5512,-8.338388,-3.739982,4.335197,0.108276,0.108276,0.221439,32.47,64.621418019047
5522,-8.394022,-3.739982,4.359125,0.102931,0.102167,0.211054,32.47,64.6222609024449
5532,-8.447262,-3.738786,4.357928,0.093921,0.094684,0.193186,32.48,64.7441418340832
5542,-8.48136,-3.734598,4.377669,0.08262,0.086896,0.170737,32.48,64.7147001635061
5552,-8.504689,-3.735196,4.385446,0.06857,0.077885,0.142484,32.42,64.7269285641206
5562,-8.535198,-3.720839,4.396214,0.053451,0.069639,0.110414,32.42,64.7254734499624
5572,-8.562119,-3.718446,4.401597,0.036957,0.060323,0.07422,32.44,64.7546990035085
5582,-8.565108,-3.714259,4.396811,0.019548,0.050702,0.036041,32.44,64.7812800206884
5592,-8.56451,-3.716652,4.403392,0.001069,0.04047,-0.003665,32.46,64.7491881574192
5602,-8.568698,-3.717848,4.386044,-0.016188,0.030085,-0.043524,32.46,64.8465355257641
5612,-8.555537,-3.718446,4.375276,-0.032834,0.0197,-0.081398,32.45,64.8727655560956
5622,-8.526823,-3.721437,4.35075,-0.048106,0.008858,-0.116981,32.45,64.9371070664293
5632,-8.501699,-3.722634,4.348955,-0.061239,-0.001374,-0.149662,32.46,64.8928180947515
5642,-8.454441,-3.726821,4.332804,-0.072846,-0.011912,-0.179442,32.46,64.8758680817845
5652,-8.41137,-3.739982,4.316054,-0.081856,-0.022144,-0.203571,32.46,64.8798451765986
5664,-8.318049,-3.745365,4.261019,-0.089644,-0.043066,-0.233045,32.47,64.9629365984425
5672,-8.269596,-3.747759,4.247859,-0.089644,-0.043066,-0.233045,32.47,64.9266583650531
5682,-8.203195,-3.74716,4.22752,-0.086896,-0.060476,-0.238848,32.47,64.8846911097995
5692,-8.145168,-3.75733,4.205984,-0.080634,-0.068875,-0.232129,32.47,64.8784293929122
5702,-8.123035,-3.755535,4.202993,-0.072388,-0.074678,-0.218842,32.51,64.8428359401453
5712,-8.054241,-3.76391,4.190431,-0.062156,-0.080634,-0.199447,32.51,64.763270322716
5722,-8.020741,-3.765705,4.17727,-0.048106,-0.085827,-0.175318,32.45,64.7591472034045
5732,-7.979465,-3.767499,4.177869,-0.032681,-0.089492,-0.147829,32.45,64.664427225715
5742,-7.960323,-3.77408,4.174279,-0.014966,-0.092241,-0.114995,32.45,64.6470584479012
5752,-7.941778,-3.762714,4.174878,0.002443,-0.093462,-0.079565,32.45,64.5893381684399
5762,-7.920841,-3.765106,4.189833,0.019853,-0.09331,-0.043677,32.49,64.4644571171053
5772,-7.909475,-3.763312,4.201199,0.038485,-0.091935,-0.005345,32.49,64.3759139610575
5782,-7.919046,-3.758526,4.215555,0.056047,-0.088728,0.031765,32.46,64.3164546026784
5792,-7.934002,-3.750151,4.234099,0.071929,-0.084758,0.06689,32.46,64.2434946049625
5802,-7.962118,-3.73041,4.262814,0.087201,-0.078802,0.100793,32.48,64.135253662593
5812,-7.979465,-3.738786,4.28734,0.100182,-0.071166,0.131794,32.48,64.0553510777086
5822,-8.024331,-3.738786,4.316652,0.110414,-0.064446,0.158214,32.47,64.0054705810743
5832,-8.066205,-3.72383,4.345964,0.118966,-0.054978,0.178831,32.47,63.9333149321453
5842,-8.09791,-3.706482,4.406384,0.123395,-0.045357,0.195019,32.48,63.6749850797675
5852,-8.190632,-3.701697,4.432106,0.124006,-0.024435,0.20861,32.48,63.7521467702356
5862,-8.227122,-3.692724,4.459025,0.118508,-0.014203,0.205709,32.47,63.6891633243911
5872,-8.292925,-3.684947,4.479962,0.110872,-0.003665,0.19792,32.5,63.7257241083256
5882,-8.336594,-3.679563,4.50748,0.099876,0.006261,0.18326,32.5,63.680835574332
5892,-8.362316,-3.66401,4.52423,0.087506,0.016799,0.163254,32.46,63.6395050833077
5902,-8.397013,-3.672385,4.529613,0.072235,0.025962,0.138819,32.46,63.6999273589152
5912,-8.426325,-3.677171,4.551149,0.056047,0.034361,0.108581,32.45,63.6633076013535
5922,-8.445468,-3.672983,4.54756,0.038179,0.041844,0.0759,32.45,63.7205429486315
5932,-8.475378,-3.663411,4.551149,0.019548,0.049175,0.04215,32.47,63.7608733666914
5942,-8.472386,-3.668795,4.543372,0.000916,0.055741,0.00504,32.47,63.7982172259163
5952,-8.47119,-3.67418,4.542176,-0.018937,0.062003,-0.032987,32.42,63.8067585553604
5962,-8.469995,-3.678366,4.529015,-0.03711,0.066584,-0.069333,32.42,63.8739488957677
5972,-8.455039,-3.680161,4.516453,-0.052382,0.071166,-0.104611,32.47,63.9049405450878
5982,-8.427522,-3.687938,4.499703,-0.067959,0.075442,-0.138208,32.47,63.9346926786699
5992,-8.4012,-3.693322,4.472186,-0.080329,0.079871,-0.168293,32.48,64.0193092693165
6002,-8.373085,-3.698706,4.447061,-0.090255,0.082161,-0.193644,32.48,64.0883710715553
6012,-8.332406,-3.707679,4.394419,-0.09896,0.085063,-0.215177,32.46,64.2733764751847
6022,-8.240881,-3.728018,4.368098,-0.104153,0.087354,-0.240223,32.46,64.2224842252496
6032,-8.200203,-3.739383,4.329215,-0.106291,0.090713,-0.244193,32.45,64.3425443014102
6042,-8.164311,-3.754339,4.296313,-0.103084,0.090713,-0.243124,32.45,64.4473764581527
6052,-8.126026,-3.751946,4.269393,-0.09728,0.090713,-0.235489,32.45,64.4985492196577
6062,-8.093722,-3.766901,4.240082,-0.088423,0.090255,-0.221133,32.45,64.594466894075
6072,-8.052446,-3.769294,4.216154,-0.078496,0.087965,-0.203571,32.45,64.6294136096461
6082,-8.031509,-3.78066,4.186243,-0.065821,0.085827,-0.180969,32.45,64.7518632343998
6092,-8.00818,-3.791427,4.169494,-0.052229,0.082009,-0.154243,32.45,64.7993218918233
6102,-7.987242,-3.783651,4.152145,-0.036346,0.077427,-0.123853,32.48,64.8358375489786
6112,-7.975278,-3.796811,4.138387,-0.0197,0.072846,-0.090103,32.48,64.8960879824151
6122,-7.968698,-3.793222,4.126423,-0.003054,0.066737,-0.055894,32.47,64.9411295015522
6132,-7.974679,-3.792624,4.116851,0.014203,0.060934,-0.01909,32.47,65.0049329076464
6142,-7.974082,-3.795017,4.123432,0.030391,0.05284,0.016952,32.45,64.9710830374554
6152,-8.016554,-3.796213,4.125226,0.046426,0.045357,0.051771,32.45,65.0579085125125
6162,-8.03809,-3.796213,4.123432,0.060781,0.035583,0.085368,32.45,65.1154232817029
6172,-8.052446,-3.79382,4.143172,0.075136,0.025656,0.116981,32.45,65.0403002068362
6182,-8.090134,-3.78724,4.14736,0.087048,0.014661,0.142942,32.47,65.0950911663721
6192,-8.172686,-3.769892,4.190431,0.096211,0.004581,0.166461,32.47,65.0338116220751
6202,-8.212168,-3.771089,4.226323,0.110567,-0.017715,0.197462,32.46,64.935092304059
6212,-8.279166,-3.769892,4.252046,0.113316,-0.028711,0.204487,32.43,64.9482221581149
6222,-8.321639,-3.762714,4.28076,0.113621,-0.039554,0.204487,32.43,64.8863542133682
6232,-8.359326,-3.74716,4.30409,0.111025,-0.049633,0.198989,32.45,64.8339942054471
6242,-8.400601,-3.748955,4.329813,0.106596,-0.05849,0.186925,32.45,64.7948430500971
6252,-8.437093,-3.735196,4.366901,0.099571,-0.065668,0.169515,32.45,64.6728447774002
6262,-8.467003,-3.722634,4.399205,0.089492,-0.072998,0.147066,32.45,64.5628548232534
6272,-8.484949,-3.711268,4.418347,0.078038,-0.078496,0.120035,32.43,64.4948010891338
6282,-8.502296,-3.713063,4.450052,0.064294,-0.081551,0.089797,32.43,64.375299089584
6292,-8.504689,-3.71067,4.466802,0.049327,-0.084452,0.056505,32.44,64.2942462197745
6302,-8.515458,-3.712464,4.481159,0.033445,-0.085827,0.020311,32.44,64.2478963134214
6312,-8.507083,-3.693322,4.500301,0.016646,-0.084452,-0.015577,32.48,64.1150820695955
6322,-8.484351,-3.698107,4.484748,-0.000764,-0.081703,-0.053451,32.48,64.1469798290218
6332,-8.452645,-3.705884,4.506881,-0.017257,-0.078954,-0.08995,32.46,63.9727780737108
6342,-8.42812,-3.698107,4.504489,-0.033139,-0.074067,-0.123242,32.46,63.9220265757805
6352,-8.407183,-3.689733,4.504489,-0.047495,-0.067042,-0.153633,32.45,63.866520626512
6362,-8.350353,-3.690929,4.469195,-0.060476,-0.059101,-0.1799,32.45,63.9171951229206
6372,-8.257033,-3.711268,4.45065,-0.07025,-0.041692,-0.217468,32.45,63.8196225532054
6382,-8.213962,-3.724428,4.432106,-0.08491,-0.031154,-0.2277,32.49,63.829376909996
6392,-8.152347,-3.720839,4.412963,-0.087354,-0.021075,-0.23106,32.49,63.7822812041429
6403,-8.101499,-3.729214,4.392624,-0.086896,-0.010537,-0.229533,32.43,63.7786352475843
6412,-8.050652,-3.736991,4.360321,-0.084147,0.000153,-0.22037,32.43,63.8367347749099
6422,-8.011768,-3.734598,4.339982,-0.078038,0.009774,-0.205862,32.47,63.8499103092505
6432,-7.986046,-3.73041,4.317849,-0.069944,0.020922,-0.185703,32.47,63.901362678544
6442,-7.950752,-3.744768,4.291527,-0.058338,0.030696,-0.160658,32.45,63.973205577796
6452,-7.922038,-3.748955,4.278367,-0.044746,0.038637,-0.131489,32.45,63.9803508331638
6462,-7.9011,-3.753741,4.25743,-0.029932,0.048258,-0.100029,32.5,64.0475795473093
6472,-7.898109,-3.751946,4.249055,-0.013439,0.055589,-0.065363,32.5,64.0830063078507
6482,-7.891529,-3.746562,4.236493,0.003512,0.062308,-0.0281,32.45,64.1283959343979
6492,-7.908877,-3.749553,4.234698,0.020159,0.068875,0.008399,32.45,64.1815108156777
6502,-7.927422,-3.754937,4.225725,0.036805,0.073304,0.045051,32.48,64.2779016464731
6512,-7.944171,-3.761517,4.237091,0.053451,0.078038,0.079565,32.48,64.2635287437273
6522,-7.986046,-3.751946,4.234099,0.068417,0.080634,0.112246,32.46,64.365209713992
6532,-8.011768,-3.749553,4.261019,0.081398,0.082772,0.140499,32.46,64.2798118026561
6542,-8.121839,-3.752544,4.274778,0.093462,0.083689,0.184634,32.43,64.4616318658117
6552,-8.175676,-3.731607,4.283153,0.108887,0.080787,0.19792,32.45,64.5178522276986
6562,-8.23131,-3.727419,4.305286,0.112857,0.079871,0.206167,32.45,64.5239413575181
6572,-8.288139,-3.729214,4.326224,0.112857,0.077274,0.206931,32.46,64.5449744737408
6582,-8.323434,-3.719643,4.347161,0.110414,0.071929,0.201586,32.46,64.5067076931629
6592,-8.38146,-3.716054,4.365107,0.105069,0.068111,0.19059,32.42,64.5405034373896
6602,-8.428718,-3.707081,4.383053,0.095906,0.06185,0.172264,32.42,64.5451232441954
6612,-8.466404,-3.695715,4.398606,0.084758,0.055436,0.148746,32.46,64.5385830663264
6622,-8.492128,-3.705884,4.41057,0.071471,0.048869,0.120799,32.46,64.5446257900726
6632,-8.511868,-3.694518,4.415356,0.056658,0.04215,0.089492,32.47,64.553037810779
6642,-8.536395,-3.696313,4.424927,0.039859,0.035736,0.054672,32.47,64.5604545586998
6652,-8.557931,-3.698107,4.425525,0.022297,0.029322,0.01741,32.5,64.6062950961884
6662,-8.548957,-3.692724,4.429115,0.004581,0.021686,-0.020617,32.5,64.5635598399752
6672,-8.542377,-3.70409,4.41416,-0.013592,0.014203,-0.058032,32.46,64.6350142662724
6682,-8.53161,-3.705286,4.418945,-0.030085,0.007025,-0.093462,32.46,64.5885506583513
6692,-8.511271,-3.713063,4.398606,-0.045357,0,-0.127976,32.45,64.6537954931827
6702,-8.469995,-3.714857,4.385446,-0.059712,-0.007483,-0.159436,32.45,64.6314738837649
6712,-8.376674,-3.719643,4.352544,-0.071624,-0.013286,-0.186008,32.4,64.5974704679255
6722,-8.3348,-3.72383,4.328018,-0.087354,-0.025045,-0.225409,32.43,64.6342016245802
6732,-8.272586,-3.732205,4.308876,-0.091783,-0.030543,-0.236558,32.43,64.6025601693973
6742,-8.227122,-3.745964,4.286144,-0.092088,-0.034361,-0.238696,32.45,64.6324029749248
6752,-8.181061,-3.746562,4.274778,-0.089339,-0.038179,-0.237168,32.45,64.588840134825
6762,-8.121839,-3.756732,4.258626,-0.083994,-0.040012,-0.229838,32.47,64.5502705423719
6772,-8.081758,-3.760321,4.236493,-0.075136,-0.042761,-0.216246,32.47,64.579356861109
6782,-8.036295,-3.762714,4.225725,-0.064294,-0.04383,-0.197309,32.45,64.5354938986826
6792,-7.999804,-3.771687,4.228716,-0.051771,-0.042913,-0.174097,32.45,64.4463062197985
6802,-7.971688,-3.765705,4.212564,-0.036957,-0.042608,-0.146455,32.44,64.4609819473679
6812,-7.955537,-3.765705,4.213162,-0.020311,-0.041539,-0.115454,32.44,64.4208533187165
6822,-7.936993,-3.760321,4.216752,-0.002749,-0.03879,-0.08323,32.46,64.3534030407231
6832,-7.928618,-3.772883,4.218546,0.013744,-0.035125,-0.048717,32.46,64.3383477268266
6842,-7.930413,-3.781856,4.231707,0.030391,-0.031154,-0.016188,32.49,64.2825913804011
6852,-7.932806,-3.765106,4.234698,0.046578,-0.026725,0.018479,32.49,64.2539127245284
6862,-7.95135,-3.759723,4.243073,0.062919,-0.021991,0.051007,32.46,64.246490675653
6872,-7.982457,-3.76391,4.269393,0.077122,-0.016188,0.08094,32.46,64.183917038764
6882,-8.040483,-3.742374,4.311867,0.089492,-0.01069,0.107665,32.46,64.0716027406489
6892,-8.084151,-3.751348,4.322036,0.100029,0.003665,0.149967,32.46,64.1284278972276
6902,-8.105088,-3.736991,4.344768,0.112399,0.009621,0.163559,32.42,64.0430490974566
6912,-8.160124,-3.741776,4.384848,0.11469,0.016952,0.171653,32.48,63.9669149925742
6922,-8.198408,-3.72383,4.398008,0.113621,0.023671,0.176082,32.48,63.9680067049139
6932,-8.251051,-3.716652,4.414758,0.110567,0.030391,0.174402,32.48,63.9947587872242
6942,-8.291729,-3.716652,4.42732,0.104458,0.036346,0.167072,32.48,64.0229785218409
6952,-8.326425,-3.714259,4.453641,0.095906,0.041997,0.155465,32.43,63.9652912090885
6962,-8.365907,-3.699902,4.457829,0.085827,0.046731,0.138514,32.43,64.0188729575163
6972,-8.404191,-3.71067,4.46381,0.072388,0.051465,0.116523,32.47,64.0854603509241
6982,-8.419745,-3.698706,4.477569,0.058185,0.055741,0.092393,32.47,64.0391803350193
6992,-8.450851,-3.695116,4.481159,0.042608,0.059101,0.064446,32.43,64.0873056336071
7002,-8.462217,-3.697509,4.476373,0.027336,0.060323,0.034819,32.43,64.1390873429658
7012,-8.470592,-3.707679,4.471587,0.011454,0.061392,0.003818,32.48,64.1916983469685
7022,-8.475977,-3.705286,4.465605,-0.003818,0.061545,-0.027336,32.48,64.2313890143582
7032,-8.464012,-3.71067,4.455436,-0.020006,0.062003,-0.058185,32.44,64.2611627590928
7042,-8.456235,-3.713661,4.438088,-0.033903,0.060476,-0.088117,32.44,64.3341667643101
7052,-8.4347,-3.718446,4.391428,-0.046426,0.058185,-0.116828,32.43,64.5269397301387
7062,-8.397013,-3.720241,4.381258,-0.059101,0.054978,-0.164017,32.43,64.4969173430802
7072,-8.343773,-3.729214,4.352544,-0.073915,0.048106,-0.181122,32.5,64.5339559313791
7082,-8.309675,-3.73041,4.334,-0.078802,0.043524,-0.194408,32.47,64.5542462713876
7092,-8.271988,-3.738187,4.31725,-0.082161,0.038943,-0.203265,32.47,64.5641268634233
7102,-8.238488,-3.751348,4.289135,-0.081092,0.034819,-0.206625,32.48,64.6477603546434
7112,-8.184649,-3.758526,4.267001,-0.078954,0.029932,-0.204793,32.48,64.6495742935592
7122,-8.155338,-3.760919,4.245465,-0.073304,0.025656,-0.19792,32.47,64.6985440279678
7132,-8.127223,-3.766303,4.223332,-0.066279,0.020311,-0.185245,32.47,64.7567968431094
7142,-8.080563,-3.777071,4.211967,-0.057421,0.016493,-0.167835,32.47,64.7229736885882
7152,-8.062017,-3.776472,4.195216,-0.045357,0.012065,-0.147219,32.47,64.7687684206439
7162,-8.020741,-3.775874,4.189833,-0.032529,0.007636,-0.122478,32.44,64.7035267263309
7172,-7.992626,-3.78066,4.171886,-0.018631,0.003818,-0.094837,32.44,64.7400621407713
7182,-7.981858,-3.78066,4.173083,-0.003971,0.000305,-0.065057,32.39,64.7093516289872
7192,-7.967501,-3.783053,4.171288,0.011606,-0.002902,-0.032681,32.39,64.6889103627788
7202,-7.961519,-3.793222,4.177869,0.0281,-0.005345,-0.000458,32.47,64.6513840371481
7212,-7.978269,-3.783053,4.17727,0.042761,-0.008552,0.030849,32.47,64.6815870255501
7222,-7.994421,-3.777669,4.192225,0.05849,-0.010996,0.060628,32.43,64.633221432557
7232,-8.042276,-3.768098,4.212564,0.07254,-0.012828,0.091019,32.43,64.6240521183856
7242,-8.073982,-3.757928,4.226922,0.09728,-0.016341,0.139583,32.47,64.6094909764621
7252,-8.111071,-3.747759,4.251448,0.106749,-0.018479,0.157909,32.47,64.5541114914226
7262,-8.151151,-3.753142,4.272385,0.113163,-0.0197,0.171806,32.47,64.5408536392133
7272,-8.196614,-3.735196,4.295117,0.119271,-0.021075,0.180816,32.45,64.5065793690118
7282,-8.242078,-3.731009,4.323831,0.121562,-0.023213,0.183718,32.45,64.4560281343363
7292,-8.282157,-3.726223,4.338188,0.121715,-0.024435,0.180511,32.45,64.4671279296954
7302,-8.310272,-3.726223,4.370491,0.119119,-0.025656,0.173486,32.45,64.3645034295347
7312,-8.35813,-3.711268,4.388436,0.112552,-0.026725,0.159283,32.46,64.365031479779
7322,-8.401799,-3.703491,4.42074,0.104305,-0.027642,0.14111,32.46,64.2907703390322
7332,-8.421539,-3.705286,4.438088,0.094531,-0.027642,0.118813,32.45,64.2488163867604
7342,-8.453843,-3.678366,4.453641,0.082314,-0.029322,0.090866,32.45,64.2161434460136
7352,-8.482555,-3.682554,4.479962,0.068264,-0.028253,0.061392,32.42,64.1519060763371
7362,-8.479566,-3.674777,4.485346,0.052534,-0.027336,0.030238,32.42,64.1106871330714
7372,-8.483154,-3.681358,4.499703,0.035583,-0.025809,-0.004734,32.43,64.0531049122637
7382,-8.486146,-3.680759,4.510471,0.017715,-0.023976,-0.039706,32.43,64.0053026884787
7392,-8.475378,-3.678366,4.492525,0.000916,-0.021228,-0.073304,32.48,64.0687888354978
7402,-8.430512,-3.681956,4.501498,-0.017257,-0.018326,-0.106138,32.48,63.9265163967341
7412,-8.386844,-3.677171,4.488935,-0.048106,-0.009468,-0.163406,32.48,63.8863928096575
7422,-8.341978,-3.68734,4.473382,-0.060476,-0.004123,-0.18723,32.46,63.8733912357054
7432,-8.301898,-3.684349,4.46082,-0.071777,0.001222,-0.206167,32.46,63.8428584412949
7442,-8.261221,-3.690929,4.436892,-0.080481,0.007636,-0.219301,32.43,63.8785419524151
7452,-8.204391,-3.703491,4.41416,-0.087201,0.015119,-0.226631,32.43,63.8776912266833
7462,-8.169695,-3.706482,4.38425,-0.091019,0.022144,-0.228769,32.48,63.9550427296916
7472,-8.124231,-3.720839,4.372883,-0.091935,0.030238,-0.224798,32.48,63.9243070085229
7482,-8.068598,-3.729214,4.341777,-0.088575,0.038332,-0.214872,32.45,63.9663738739953
7492,-8.03091,-3.731607,4.326224,-0.082925,0.046273,-0.200211,32.45,63.9629356266507
7502,-7.99801,-3.729812,4.298706,-0.075442,0.053756,-0.180205,32.45,64.0288928141383
7512,-7.982457,-3.747759,4.283153,-0.06521,0.061392,-0.156076,32.45,64.0940241037211
7522,-7.959126,-3.761517,4.264608,-0.051771,0.068722,-0.127976,32.45,64.1527240913142
7532,-7.935198,-3.766901,4.238885,-0.037874,0.074984,-0.097586,32.45,64.2392361543916
7542,-7.931011,-3.764508,4.231707,-0.022297,0.079718,-0.066432,32.41,64.2649552993328
7552,-7.938787,-3.765705,4.225725,-0.005651,0.085674,-0.031918,32.41,64.3158571059032
7562,-7.945368,-3.769294,4.22094,0.010996,0.089492,0.001374,32.41,64.3602383648877
7572,-7.965706,-3.775276,4.210171,0.028405,0.091783,0.034208,32.41,64.470323980084
7582,-8.018948,-3.766303,4.205984,0.044288,0.09331,0.092852,32.43,64.6039983176275
7592,-8.053044,-3.774678,4.209573,0.074831,0.092546,0.118661,32.48,64.6710873774193
7602,-8.101499,-3.768696,4.226922,0.086437,0.088881,0.139735,32.48,64.6827899377887
7612,-8.166105,-3.760321,4.240082,0.097738,0.085368,0.156229,32.44,64.7500691547168
7622,-8.191828,-3.765106,4.250251,0.105222,0.079871,0.167072,32.44,64.7594044331243
7632,-8.255836,-3.766901,4.269992,0.110567,0.073609,0.173791,32.45,64.8009862099534
7642,-8.3013,-3.752544,4.280162,0.113316,0.066279,0.173791,32.45,64.834540731478
7652,-8.347363,-3.752544,4.287939,0.111788,0.056963,0.166308,32.46,64.8958695141648
7665,-8.389236,-3.742973,4.309474,0.109192,0.047342,0.15516,32.46,64.8679358434532
7672,-8.444869,-3.737589,4.325625,0.104153,0.037568,0.139888,32.45,64.9018781427187
7682,-8.474181,-3.738187,4.354339,0.0956,0.026267,0.118813,32.45,64.8205474246873
7692,-8.493324,-3.738786,4.363312,0.08491,0.014966,0.092852,32.45,64.817392341519
7702,-8.505887,-3.734,4.369295,0.071929,0.004887,0.064904,32.45,64.8099120679639
7712,-8.518449,-3.72383,4.38724,0.057421,-0.006109,0.034819,32.46,64.7370219967879
7722,-8.52443,-3.714259,4.391428,0.041844,-0.016341,0.002138,32.46,64.7198506429743
7732,-8.531011,-3.735795,4.392624,0.025962,-0.026114,-0.030391,32.48,64.7486477478228
7742,-8.507083,-3.723232,4.401597,0.009621,-0.035736,-0.062614,32.48,64.6392833571287
7752,-8.467003,-3.726223,4.38724,-0.006261,-0.044593,-0.1237,32.5,64.6267959803171
7762,-8.433504,-3.731009,4.383651,-0.03543,-0.058032,-0.147982,32.43,64.575944421188
7772,-8.391031,-3.725027,4.380062,-0.047342,-0.063835,-0.169362,32.43,64.4944412904437
7782,-8.359326,-3.739383,4.362116,-0.057116,-0.067959,-0.186772,32.44,64.5297066340156
7792,-8.307282,-3.743571,4.342375,-0.065057,-0.071013,-0.199447,32.44,64.5191619950394
7802,-8.257631,-3.748357,4.338188,-0.070708,-0.072846,-0.206931,32.46,64.4346152070129
7812,-8.199606,-3.744768,4.325625,-0.072388,-0.073762,-0.208,32.46,64.3652879806346
7822,-8.155338,-3.744169,4.306482,-0.071013,-0.074067,-0.204182,32.45,64.3637789335407
7832,-8.115258,-3.752544,4.295715,-0.067806,-0.073151,-0.195477,32.45,64.3376354467436
7842,-8.062616,-3.754339,4.278965,-0.062003,-0.071166,-0.182801,32.47,64.3071311655482
7852,-8.021339,-3.758526,4.272983,-0.052229,-0.068264,-0.163406,32.47,64.2485530665039
7862,-8.001599,-3.758526,4.265206,-0.041233,-0.063835,-0.141263,32.44,64.2441181553319
7872,-7.963314,-3.762115,4.259224,-0.027947,-0.058643,-0.115301,32.44,64.1914222840047
7882,-7.951948,-3.75733,4.258028,-0.013592,-0.052534,-0.087201,32.45,64.1662830552361
7892,-7.936395,-3.765106,4.26401,0.003971,-0.046426,-0.058185,32.45,64.107254676318
7902,-7.925028,-3.768696,4.265805,0.0197,-0.039248,-0.027947,32.47,64.0753931874382
7912,-7.943573,-3.762714,4.277769,0.036041,-0.031001,0.002138,32.47,64.0486844017136
7922,-7.949555,-3.749553,4.296313,0.052382,-0.022144,0.032529,32.5,63.9504789696528
7932,-7.974082,-3.753741,4.307679,0.08323,-0.003054,0.088728,32.5,63.952324780507
7942,-7.996215,-3.734,4.329813,0.096517,0.007941,0.112246,32.42,63.8662592246382
7952,-8.013563,-3.732205,4.352544,0.106138,0.018479,0.132405,32.5,63.7859214569935
7962,-8.066205,-3.726223,4.378268,0.114079,0.02978,0.147829,32.5,63.7680157888526
7972,-8.115856,-3.720839,4.396811,0.11973,0.041233,0.159741,32.42,63.7813036652307
7982,-8.147561,-3.725625,4.415356,0.122478,0.051771,0.165086,32.42,63.7639736404548
7992,-8.194819,-3.717848,4.424927,0.121715,0.06185,0.166003,32.5,63.8154086152668
8002,-8.2349,-3.711268,4.443472,0.118508,0.072846,0.163101,32.5,63.8056029771279
8012,-8.280961,-3.699902,4.460222,0.113468,0.083383,0.154854,32.48,63.8139149858098
8022,-8.318049,-3.69392,4.475775,0.105069,0.09163,0.140652,32.48,63.8134603212364
8032,-8.367103,-3.691527,4.484748,0.094379,0.099418,0.122478,32.48,63.8771103376825
8042,-8.382656,-3.695715,4.496114,0.081703,0.106443,0.100182,32.48,63.8591707303818
8052,-8.407183,-3.679563,4.483552,0.066584,0.111025,0.075747,32.46,63.961875882125
8062,-8.448458,-3.683152,4.493721,0.050091,0.115912,0.047495,32.46,64.0071228064021
8072,-8.446067,-3.684349,4.485944,0.034056,0.118508,0.01741,32.46,64.0420054070072
8082,-8.467003,-3.692126,4.469792,0.017257,0.118661,-0.013439,32.46,64.1775905784748
8092,-8.468199,-3.690331,4.4339,0.000305,0.117592,-0.04444,32.48,64.3591749047813
8102,-8.462815,-3.688536,4.408178,-0.01573,0.111483,-0.104,32.48,64.4753489271681
8112,-8.437692,-3.699902,4.387838,-0.043371,0.105527,-0.13042,32.46,64.5337274525926
8122,-8.431709,-3.708277,4.362714,-0.055741,0.099724,-0.154396,32.41,64.6561402595395
8132,-8.400003,-3.704688,4.329813,-0.065515,0.091172,-0.17486,32.41,64.7503760763728
8142,-8.370691,-3.719045,4.31067,-0.072998,0.082009,-0.190743,32.46,64.7976898551609
8152,-8.32463,-3.719045,4.275376,-0.078649,0.072235,-0.202655,32.46,64.8774496828737
8162,-8.295916,-3.729214,4.264608,-0.080481,0.06185,-0.208305,32.47,64.8796753498975
8172,-8.26481,-3.734598,4.241278,-0.080634,0.05116,-0.210596,32.47,64.937036943132
8182,-8.223534,-3.745964,4.213761,-0.078038,0.040623,-0.206014,32.47,65.0002037957801
8192,-8.187043,-3.753741,4.195815,-0.072846,0.029322,-0.19792,32.47,65.0209888115502
8202,-8.146365,-3.756134,4.174279,-0.064752,0.018173,-0.18387,32.46,65.0461014276929
8212,-8.103892,-3.768098,4.156333,-0.055131,0.007789,-0.165544,32.46,65.0584896006697
8222,-8.083553,-3.769892,4.149154,-0.043219,-0.000916,-0.143706,32.41,65.0529780264418
8232,-8.047063,-3.771089,4.143771,-0.029932,-0.009774,-0.120035,32.41,65.0012778992883
8242,-8.032706,-3.783053,4.14736,-0.014966,-0.017715,-0.091477,32.4,64.9627230996967
8252,-8.017751,-3.783651,4.148556,-0.000611,-0.02474,-0.063225,32.4,64.9235017705356
8262,-8.01117,-3.772883,4.159324,0.016035,-0.030849,-0.032681,32.48,64.8402107527034
8272,-8.020144,-3.760919,4.163511,0.03146,-0.036194,0.028558,32.48,64.8255754535356
8282,-8.029715,-3.775276,4.178466,0.062308,-0.044135,0.056505,32.45,64.7831999300321
8292,-8.045268,-3.776472,4.205386,0.0759,-0.046273,0.082161,32.49,64.6774893491975
8302,-8.062017,-3.778267,4.21735,0.088728,-0.049022,0.105069,32.49,64.6542110205476
8312,-8.099705,-3.753142,4.246662,0.099113,-0.049633,0.12538,32.47,64.5591013095145
8322,-8.12782,-3.765106,4.265206,0.108429,-0.050702,0.141415,32.47,64.5381572788211
8332,-8.164311,-3.75733,4.298108,0.114079,-0.050549,0.151647,32.48,64.4411636844748
8342,-8.209177,-3.744169,4.331009,0.117744,-0.049786,0.157909,32.48,64.3584484874566
8352,-8.245667,-3.752544,4.348955,0.119577,-0.049175,0.158214,32.46,64.356701110324
8362,-8.287541,-3.731009,4.368696,0.118355,-0.048717,0.153327,32.46,64.3275507381655
8372,-8.326425,-3.725625,4.389035,0.11469,-0.047953,0.143553,32.45,64.3053764152087
8382,-8.359326,-3.719045,4.42074,0.108276,-0.047342,0.12874,32.45,64.2111823777326
8392,-8.386245,-3.714259,4.432704,0.100029,-0.046426,0.109803,32.44,64.2060463751636
8402,-8.4012,-3.71725,4.456632,0.089339,-0.04444,0.087506,32.44,64.1215028603242
8412,-8.426923,-3.703491,4.468596,0.077427,-0.042913,0.061697,32.44,64.1051822608733
8422,-8.447262,-3.70409,4.475775,0.063072,-0.041386,0.032987,32.44,64.1151311676593
8432,-8.450851,-3.7005,4.485346,0.048106,-0.039859,0.002596,32.45,64.0715387400745
8442,-8.427522,-3.702295,4.491328,0.032681,-0.036957,-0.027489,32.45,63.9909491175951
8453,-8.422137,-3.701099,4.499105,0.001374,-0.030696,-0.089492,32.45,63.9385682172294
8462,-8.399406,-3.70409,4.493123,-0.014661,-0.026114,-0.11805,32.48,63.9204225341024
8472,-8.370093,-3.692126,4.491926,-0.028405,-0.02138,-0.14279,32.48,63.8482484563187
8482,-8.329416,-3.715455,4.479364,-0.040623,-0.015882,-0.165697,32.46,63.842930420569
8492,-8.3013,-3.706482,4.460222,-0.051924,-0.008705,-0.183107,32.46,63.8669835065789
8502,-8.261221,-3.714857,4.44407,-0.060934,-0.001222,-0.195782,32.44,63.866412716187
8512,-8.2014,-3.713661,4.432704,-0.066737,0.006109,-0.204182,32.44,63.7863090460656
8522,-8.165507,-3.73041,4.421937,-0.069944,0.014661,-0.207694,32.48,63.7765222785396
8532,-8.123035,-3.725027,4.392026,-0.071013,0.024435,-0.205862,32.48,63.8270310555231
8542,-8.085946,-3.738786,4.378268,-0.070402,0.034514,-0.198073,32.44,63.8271818440287
8552,-8.053642,-3.736392,4.354339,-0.067042,0.044593,-0.185398,32.44,63.8741293508546
8562,-8.022536,-3.751348,4.336991,-0.060476,0.054367,-0.168293,32.45,63.9086395948925
8572,-8.002795,-3.753741,4.316652,-0.051007,0.064446,-0.146455,32.45,63.9718353338325
8582,-7.975278,-3.762714,4.285545,-0.041233,0.073762,-0.121868,32.45,64.081125908651
8592,-7.966903,-3.758526,4.286742,-0.029169,0.081703,-0.093768,32.45,64.0508984117389
8602,-7.962716,-3.75733,4.262814,-0.015424,0.089339,-0.065057,32.48,64.1659043578587
8612,-7.954939,-3.765705,4.238885,-0.001374,0.096669,-0.033903,32.48,64.2834014205616
8622,-7.977671,-3.777669,4.243671,0.013744,0.106291,0.028405,32.48,64.3233264005098
8632,-7.990233,-3.766303,4.231109,0.04215,0.109498,0.056505,32.45,64.4060384137151
8642,-8.020144,-3.776472,4.236493,0.055894,0.110719,0.084605,32.45,64.4568053861146
8652,-8.061419,-3.778267,4.229314,0.06918,0.111025,0.109345,32.47,64.5900108476671
8662,-8.099705,-3.763312,4.234099,0.079871,0.108581,0.130878,32.47,64.6355233826799
8672,-8.136195,-3.759125,4.246064,0.089339,0.105069,0.146455,32.45,64.6506448473122
8682,-8.192427,-3.755535,4.246064,0.096669,0.100945,0.157756,32.45,64.7727289204087
8692,-8.22772,-3.747759,4.258626,0.102931,0.094837,0.165392,32.45,64.7781188161325
8702,-8.268398,-3.749553,4.273581,0.105527,0.087201,0.166308,32.45,64.7927795671416
8712,-8.316256,-3.741776,4.291527,0.106596,0.078496,0.162796,32.46,64.7983208922629
8722,-8.358727,-3.735795,4.307081,0.105374,0.069639,0.15516,32.46,64.8061675565421
8732,-8.391031,-3.735795,4.319643,0.101251,0.059407,0.141873,32.45,64.8128929264897
8742,-8.425129,-3.720839,4.326822,0.094684,0.048869,0.124158,32.45,64.8364798049006
8752,-8.458031,-3.726223,4.326224,0.085979,0.038485,0.101251,32.45,64.9165730072461
8762,-8.482555,-3.720839,4.349553,0.076664,0.027336,0.076511,32.45,64.8464180098258
8772,-8.498708,-3.720839,4.355535,0.065973,0.016646,0.049633,32.49,64.8513023123171
8782,-8.501101,-3.71067,4.371687,0.054214,0.005956,0.020159,32.49,64.765142150062
8792,-8.502296,-3.71067,4.377071,0.040928,-0.003665,-0.043066,32.44,64.7405466908718
8802,-8.487941,-3.711268,4.38066,0.012828,-0.020617,-0.072998,32.47,64.6915839561961
8812,-8.457432,-3.713661,4.374678,0,-0.028253,-0.101404,32.47,64.6572333443937
8822,-8.43111,-3.714857,4.37408,-0.012981,-0.034514,-0.127213,32.48,64.6034897632848
8832,-8.415558,-3.717848,4.36391,-0.025504,-0.041233,-0.151036,32.48,64.6237606745873
8842,-8.368299,-3.729214,4.362714,-0.036041,-0.045509,-0.169973,32.44,64.5364865913788
8852,-8.3348,-3.716652,4.354339,-0.043982,-0.049175,-0.185856,32.44,64.4923333061478
8862,-8.300103,-3.720241,4.342375,-0.050855,-0.052076,-0.196699,32.46,64.4797595071909
8872,-8.248658,-3.717848,4.329813,-0.055283,-0.054672,-0.201738,32.46,64.4266236681115
8882,-8.204391,-3.727419,4.310072,-0.056352,-0.0562,-0.203265,32.43,64.4386759946187
8892,-8.160124,-3.733402,4.288536,-0.055741,-0.057116,-0.199142,32.43,64.4566490731586
8902,-8.140383,-3.734,4.281956,-0.052382,-0.057421,-0.190437,32.46,64.4468686023454
8912,-8.080563,-3.738786,4.269992,-0.046578,-0.05681,-0.176845,32.46,64.3785266581394
8922,-8.06441,-3.741179,4.265206,-0.039401,-0.055283,-0.158825,32.42,64.3693026021434
8932,-8.038688,-3.735196,4.24726,-0.029932,-0.053298,-0.138208,32.42,64.398439201987
8942,-8.013563,-3.739982,4.25384,-0.018631,-0.050855,-0.114537,32.46,64.3114269255315
8952,-7.995018,-3.751348,4.251448,-0.005956,-0.047495,-0.087812,32.46,64.293672188366
8962,-7.977072,-3.74058,4.252644,0.007178,-0.04383,-0.060323,32.43,64.2344706736306
8972,-7.967501,-3.742973,4.267599,0.034667,-0.034514,-0.002291,32.43,64.1361209839286
8982,-7.972885,-3.751348,4.271188,0.048106,-0.028863,0.026114,32.43,64.1387566229802
8992,-7.98784,-3.74058,4.281956,0.061392,-0.022297,0.051007,32.48,64.1049781648631
9002,-8.015357,-3.734,4.307679,0.073457,-0.015577,0.075747,32.48,64.0265237631323
9012,-8.036894,-3.732804,4.325027,0.083994,-0.007483,0.097891,32.44,63.9843131688275
9022,-8.055437,-3.735196,4.341179,0.092546,0.000305,0.11637,32.44,63.9454954854619
9032,-8.115258,-3.721437,4.356134,0.099113,0.008247,0.129351,32.45,63.9910285825363
9042,-8.140383,-3.713661,4.377071,0.104153,0.017104,0.140041,32.45,63.9322665919803
9052,-8.184649,-3.722634,4.395615,0.105527,0.025656,0.144928,32.47,63.9476023652857
9062,-8.202596,-3.714857,4.423731,0.104611,0.03543,0.145844,32.47,63.8362764016354
9072,-8.235497,-3.722036,4.44048,0.102014,0.043524,0.140499,32.48,63.8333714398415
9082,-8.279764,-3.716054,4.448257,0.096975,0.051465,0.131794,32.48,63.888563398824
9092,-8.318647,-3.705286,4.468596,0.089644,0.059712,0.117897,32.44,63.8627225913588
9102,-8.363514,-3.718446,4.476373,0.079871,0.067195,0.099418,32.44,63.9382608946817
9112,-8.370093,-3.710072,4.485346,0.068875,0.073304,0.078038,32.44,63.8994185219389
9122,-8.395817,-3.711268,4.488935,0.056352,0.07926,0.054062,32.44,63.9405677923925
9132,-8.41436,-3.711866,4.469792,0.042302,0.083841,0.027794,32.46,64.0792763183394
9142,-8.449057,-3.714857,4.465605,0.027336,0.091019,-0.029474,32.46,64.1808300320771
9152,-8.441879,-3.705884,4.457829,-0.000916,0.091935,-0.058948,32.47,64.1951845160175
9162,-8.423334,-3.716054,4.44407,-0.014661,0.091783,-0.087659,32.47,64.2331904736489
9172,-8.413164,-3.723232,4.415954,-0.027336,0.091477,-0.115454,32.47,64.359726773129
9182,-8.414959,-3.71725,4.397409,-0.039248,0.088423,-0.139583,32.44,64.4517834883186
9192,-8.388638,-3.726223,4.368696,-0.048411,0.085216,-0.161268,32.44,64.5481297240457
9202,-8.356335,-3.737589,4.347161,-0.055436,0.081092,-0.177151,32.47,64.5976229330712
9212,-8.316854,-3.745964,4.323233,-0.060781,0.075747,-0.190743,32.47,64.6409569978091
9222,-8.294122,-3.753142,4.293921,-0.063835,0.068875,-0.200517,32.49,64.7484207570503
9232,-8.242078,-3.757928,4.266403,-0.064141,0.062461,-0.204182,32.49,64.7800003727625
9242,-8.21157,-3.760919,4.242475,-0.062308,0.055283,-0.202502,32.47,64.8394488752548
9252,-8.173882,-3.765705,4.233501,-0.056963,0.046884,-0.19563,32.47,64.8072529525962
9262,-8.139785,-3.769892,4.209573,-0.050855,0.038943,-0.184634,32.46,64.860583554857
9272,-8.100902,-3.781856,4.189833,-0.041539,0.03207,-0.168446,32.46,64.8898016343644
9282,-8.085946,-3.78066,4.179065,-0.031765,0.024282,-0.147982,32.43,64.9118072472304
9292,-8.045866,-3.786642,4.161119,-0.018631,0.016799,-0.124006,32.43,64.9231544215008
9302,-8.043473,-3.783651,4.150351,-0.005651,0.00901,-0.097586,32.52,64.9716044506
9312,-8.015357,-3.773481,4.157529,0.008552,0.002291,-0.038943,32.52,64.8597859643345
9322,-8.010572,-3.777669,4.1671,0.037415,-0.009468,-0.007025,32.45,64.8027423770755
9332,-8.016554,-3.78066,4.172484,0.052382,-0.014508,0.022755,32.47,64.7908982152324
9342,-8.028519,-3.780062,4.192225,0.065973,-0.018937,0.051313,32.47,64.7129060517557
9352,-8.056036,-3.769892,4.197609,0.079107,-0.02306,0.078496,32.46,64.7357781639891
9362,-8.072785,-3.762714,4.226323,0.090713,-0.025809,0.102778,32.46,64.6149676586937
9372,-8.107481,-3.759125,4.244868,0.100029,-0.0281,0.1237,32.46,64.5922942699693
9382,-8.132606,-3.74716,4.267599,0.107207,-0.029474,0.141263,32.46,64.5177761662738
9392,-8.170892,-3.750151,4.283153,0.112552,-0.030543,0.154091,32.45,64.5261879050245
9402,-8.193025,-3.739383,4.313661,0.11637,-0.032223,0.160963,32.45,64.406764993073
9412,-8.251051,-3.734,4.329813,0.116675,-0.031001,0.163865,32.44,64.4483768438912
9422,-8.273185,-3.720241,4.360321,0.115148,-0.031154,0.159894,32.44,64.327336818492
9432,-8.309675,-3.708875,4.386642,0.110414,-0.02978,0.150578,32.47,64.2631949681805
9442,-8.353344,-3.714259,4.408776,0.103694,-0.028558,0.138361,32.47,64.2537944097519
9452,-8.382656,-3.71067,4.423133,0.095448,-0.026725,0.120646,32.47,64.2429570377466
9462,-8.408977,-3.698107,4.439882,0.085368,-0.024435,0.098502,32.47,64.2046356145826
9472,-8.408977,-3.7005,4.461418,0.073457,-0.022297,0.072082,32.45,64.0982101248562
9482,-8.434101,-3.692724,4.484748,0.060476,-0.019242,0.044899,32.45,64.029383890043
9492,-8.425727,-3.680759,4.481159,0.032987,-0.013134,-0.017562,32.46,64.0168771668723
9502,-8.427522,-3.681358,4.479364,0.01909,-0.009316,-0.047495,32.49,64.0305397093004
9512,-8.413763,-3.689733,4.479364,0.005498,-0.006261,-0.078649,32.49,64.0078424474487
9522,-8.395219,-3.68375,4.469195,-0.006567,-0.001833,-0.106901,32.43,64.0114648890945
9532,-8.373683,-3.689733,4.46082,-0.018021,0.003054,-0.133932,32.43,64.0111540592009
9542,-8.34138,-3.68734,4.450052,-0.029016,0.006872,-0.15684,32.47,63.9902963292432
9552,-8.302496,-3.695715,4.439284,-0.037263,0.011454,-0.175929,32.47,63.9652563527885
9562,-8.26481,-3.703491,4.411767,-0.042761,0.017104,-0.189979,32.46,64.0278949052375
9572,-8.234302,-3.704688,4.389633,-0.047189,0.022297,-0.199295,32.46,64.0731225099624
9582,-8.18764,-3.701697,4.369295,-0.048869,0.0281,-0.20464,32.46,64.0682804925157
9592,-8.158927,-3.714857,4.351946,-0.048258,0.033139,-0.204029,32.46,64.1059147285449
9602,-8.123035,-3.725625,4.34417,-0.045968,0.038485,-0.198378,32.46,64.075316799792
9612,-8.090732,-3.73041,4.322036,-0.041997,0.043677,-0.188452,32.46,64.1213151068303
9622,-8.062616,-3.742374,4.298706,-0.03543,0.04948,-0.172875,32.5,64.1912124847404
9632,-8.032706,-3.731009,4.287939,-0.027642,0.05452,-0.154243,32.5,64.1667484919277
9642,-8.022536,-3.737589,4.271787,-0.018631,0.059254,-0.13271,32.45,64.2351311087715
9652,-8.006385,-3.754339,4.243073,-0.008399,0.063377,-0.106749,32.45,64.3670483180689
9666,-7.996215,-3.742973,4.240082,0.013744,0.070555,-0.053145,32.47,64.3473140237393
9672,-7.999804,-3.752544,4.237689,0.025656,0.072693,-0.023976,32.47,64.3784307066964
9682,-8.015956,-3.769294,4.228716,0.037415,0.073915,0.004887,32.47,64.4805344512203
9692,-8.026724,-3.755535,4.22393,0.048258,0.074678,0.03207,32.47,64.5155634502479
9702,-8.051848,-3.760919,4.22752,0.058643,0.073915,0.057116,32.47,64.5594216170352
9712,-8.088937,-3.756134,4.238287,0.069028,0.072235,0.080023,32.49,64.581774374079
9722,-8.11466,-3.762115,4.247859,0.077274,0.069791,0.098655,32.49,64.595953411547
9732,-8.143971,-3.746562,4.24726,0.084299,0.066584,0.114385,32.43,64.6488575672537
9742,-8.179267,-3.748955,4.265805,0.089492,0.062003,0.126602,32.43,64.6339097609545
9752,-8.218747,-3.753741,4.275376,0.092393,0.056963,0.133169,32.44,64.6773847350054
9762,-8.263614,-3.753741,4.286144,0.094379,0.050855,0.136376,32.44,64.7215130964843
9772,-8.305488,-3.745964,4.305286,0.09499,0.043982,0.134543,32.46,64.7079328549906
9782,-8.334201,-3.742973,4.314259,0.093004,0.037263,0.128434,32.46,64.7223883041079
9792,-8.364112,-3.748955,4.319045,0.089644,0.029627,0.116981,32.48,64.7697228533526
9802,-8.392226,-3.743571,4.342375,0.085063,0.022907,0.102014,32.48,64.7071417028123
9812,-8.402397,-3.74058,4.359723,0.079107,0.016035,0.083841,32.41,64.6382639535288
9822,-8.422735,-3.729812,4.38066,0.071319,0.008094,0.062461,32.41,64.5662024607966
9832,-8.443074,-3.725027,4.386044,0.062308,0.000764,0.012523,32.45,64.5790792108196
9842,-8.463414,-3.726821,4.389633,0.042455,-0.011454,-0.014966,32.43,64.6073934317548
9852,-8.438289,-3.722634,4.416552,0.032376,-0.016799,-0.042761,32.43,64.4118397239327
9862,-8.4347,-3.731607,4.397409,0.020617,-0.021991,-0.069944,32.48,64.5094848260249
9872,-8.41137,-3.725027,4.400999,0.010537,-0.025809,-0.095906,32.48,64.4332548099187
9882,-8.394022,-3.726821,4.395017,0.00168,-0.028253,-0.11973,32.43,64.4268735108377
9892,-8.379066,-3.726821,4.392026,-0.00733,-0.031001,-0.141873,32.43,64.408832343941
9902,-8.338388,-3.720839,4.385446,-0.015272,-0.032376,-0.159436,32.5,64.3456675095969
9912,-8.302496,-3.727419,4.369893,-0.02138,-0.033139,-0.174707,32.5,64.3513452003552
9922,-8.261221,-3.731607,4.38066,-0.026725,-0.032223,-0.184939,32.42,64.2076371940859
9932,-8.231908,-3.714259,4.366901,-0.030085,-0.030543,-0.191201,32.42,64.1942590008452
9942,-8.203195,-3.739383,4.339982,-0.03207,-0.028253,-0.193644,32.45,64.2937175831017
9952,-8.154141,-3.745365,4.33041,-0.030391,-0.025045,-0.191506,32.45,64.2382593267106
9962,-8.12782,-3.73041,4.319045,-0.028863,-0.022449,-0.184481,32.48,64.2216835783638
9972,-8.095517,-3.734,4.309474,-0.025045,-0.019395,-0.174555,32.48,64.2014832926286
9982,-8.062017,-3.738786,4.296313,-0.018937,-0.015424,-0.158825,32.51,64.1985279772019
9992,-8.0345,-3.752544,4.281358,-0.011759,-0.010232,-0.139583,32.51,64.2283904520325
10002,-7.999804,-3.744169,4.278965,-0.002749,-0.005651,-0.095448,32.47,64.152190723185
10012,-7.996813,-3.749553,4.272385,0.017715,0.003971,-0.068417,32.49,64.1856912517104
10022,-8.005188,-3.752544,4.279563,0.027947,0.008858,-0.043066,32.49,64.1704854918614
10032,-7.99801,-3.753142,4.274778,0.039706,0.013592,-0.015272,32.45,64.1797449055098
10042,-7.996813,-3.752544,4.282554,0.051465,0.018479,0.011454,32.45,64.1354910956991
10052,-8.003992,-3.74716,4.288536,0.062614,0.023976,0.037415,32.48,64.1148211889705
10062,-8.024331,-3.743571,4.298706,0.072998,0.029322,0.061697,32.48,64.1045250798049
10072,-8.050652,-3.735196,4.307679,0.082009,0.033598,0.083078,32.5,64.1092150024291
10082,-8.073982,-3.744169,4.317849,0.089492,0.038179,0.101098,32.5,64.1192985508367
10092,-8.11466,-3.74058,4.326224,0.095448,0.043219,0.117286,32.39,64.1650323151369
10102,-8.142178,-3.731607,4.337589,0.099876,0.047647,0.128282,32.39,64.1594695183279
10112,-8.170293,-3.73041,4.359723,0.10232,0.052076,0.135459,32.44,64.1078539397153
10122,-8.221739,-3.722036,4.379463,0.103084,0.056352,0.138361,32.44,64.1145884440394
10132,-8.261221,-3.728018,4.389035,0.101862,0.060018,0.136528,32.45,64.1610776445466
10142,-8.289934,-3.71725,4.406384,0.097891,0.062919,0.13042,32.45,64.1263110744871
10152,-8.330612,-3.719643,4.418945,0.092241,0.065668,0.119882,32.45,64.1564250068211
10162,-8.358727,-3.699902,4.432106,0.085521,0.067348,0.104916,32.45,64.1330663452291
10172,-8.39462,-3.707081,4.439284,0.0759,0.06918,0.08659,32.43,64.1843803864964
10182,-8.426923,-3.708875,4.442276,0.054367,0.072388,0.041386,32.43,64.2431946876555
10192,-8.430512,-3.71725,4.446463,0.041997,0.072846,0.014508,32.47,64.2382854585721
10202,-8.444869,-3.708875,4.436892,0.029169,0.072998,-0.01237,32.45,64.3103033579106
10212,-8.44128,-3.70409,4.418945,0.016188,0.071319,-0.041081,32.45,64.3882919761633
10222,-8.432307,-3.707081,4.423133,0.00336,0.069639,-0.06857,32.44,64.3501183926027
10232,-8.422735,-3.716054,4.400401,-0.008552,0.067348,-0.094684,32.44,64.4526826958268
10242,-8.402397,-3.722036,4.395615,-0.01909,0.064752,-0.119424,32.49,64.4377173202115
10252,-8.379665,-3.719045,4.367499,-0.027794,0.061087,-0.141721,32.49,64.527280083287
10262,-8.363514,-3.728018,4.35733,-0.035277,0.057116,-0.159589,32.47,64.5521521048216
10272,-8.326425,-3.739383,4.326822,-0.040928,0.052229,-0.174402,32.47,64.6372086661521
10282,-8.299506,-3.739982,4.30409,-0.043677,0.046578,-0.185245,32.45,64.6948520188909
10292,-8.261818,-3.745964,4.275974,-0.045051,0.040012,-0.191506,32.45,64.7622218313755
10302,-8.23789,-3.744768,4.258626,-0.043677,0.034208,-0.193186,32.45,64.7976924765144
10312,-8.179267,-3.760919,4.246662,-0.040164,0.027947,-0.190132,32.45,64.7457850613474
10322,-8.149954,-3.771089,4.22393,-0.034514,0.021075,-0.181274,32.42,64.8094124342855
10332,-8.119445,-3.765705,4.208377,-0.026878,0.014508,-0.168752,32.42,64.8171054128115
10342,-8.098508,-3.763312,4.180261,-0.016341,0.00733,-0.152105,32.49,64.9155081227012
10352,-8.054839,-3.768696,4.171886,-0.004887,-0.005345,-0.108276,32.49,64.8675060394775
10362,-8.031509,-3.766303,4.168297,0.0197,-0.011759,-0.082467,32.5,64.8315263208369
10372,-8.035697,-3.77049,4.178466,0.033139,-0.017257,-0.056658,32.48,64.791609500419
10382,-8.023732,-3.765705,4.181458,0.047953,-0.022449,-0.028711,32.48,64.7437503810316
10392,-8.021938,-3.75733,4.188636,0.061239,-0.027642,-0.001069,32.48,64.6928682085141
10402,-8.037491,-3.761517,4.196413,0.073915,-0.031154,0.02642,32.48,64.6914059241278
10412,-8.056634,-3.759125,4.220341,0.085979,-0.034514,0.051465,32.4,64.606112592761
10422,-8.07817,-3.753142,4.242475,0.096669,-0.036499,0.074678,32.4,64.5323254926956
10432,-8.094321,-3.753142,4.262215,0.104763,-0.038485,0.093462,32.5,64.4655589275226
10442,-8.133204,-3.732804,4.28734,0.110872,-0.038637,0.110719,32.5,64.4013281561081
10452,-8.162517,-3.732804,4.311268,0.116675,-0.038179,0.12202,32.47,64.3434125310822
10462,-8.198408,-3.724428,4.339982,0.118661,-0.03711,0.130267,32.47,64.2674844116387
10472,-8.224131,-3.719045,4.362714,0.118202,-0.03543,0.132252,32.41,64.2030707587028
10482,-8.250452,-3.714857,4.377669,0.115912,-0.032834,0.130878,32.41,64.181561097864
10492,-8.293524,-3.705286,4.415954,0.111025,-0.029169,0.124158,32.43,64.0734765849793
10502,-8.325229,-3.708277,4.430909,0.104153,-0.025198,0.111941,32.43,64.0720200384147
10512,-8.362316,-3.708277,4.471587,0.095753,-0.020922,0.095906,32.45,63.9495447736766
10522,-8.391629,-3.693322,4.481757,0.08491,-0.016035,0.054672,32.45,63.9494572775984
10532,-8.404789,-3.701697,4.497908,0.060781,-0.004734,0.029016,32.45,63.9060983995323
10542,-8.410771,-3.692724,4.501498,0.047953,0.001069,0.003512,32.46,63.8926321236785
10552,-8.404191,-3.682554,4.500899,0.033445,0.007483,-0.024587,32.46,63.8707037003787
10562,-8.406584,-3.695116,4.506283,0.0197,0.013439,-0.052382,32.44,63.8614867350206
10572,-8.399406,-3.693322,4.488935,0.00733,0.0197,-0.080329,32.44,63.9308208489491
10582,-8.37129,-3.690331,4.486543,-0.005192,0.026573,-0.105985,32.46,63.8763379814658
10592,-8.349755,-3.692724,4.47398,-0.016188,0.032376,-0.129351,32.46,63.8934193055017
10602,-8.334201,-3.699902,4.465605,-0.026267,0.037568,-0.150731,32.44,63.9077668905651
10612,-8.298308,-3.701697,4.438088,-0.033598,0.044288,-0.167835,32.44,63.9678869865204
10622,-8.268997,-3.710072,4.417749,-0.039554,0.049633,-0.182496,32.49,64.013542913594
10632,-8.22473,-3.716054,4.393821,-0.043524,0.054367,-0.191506,32.49,64.0415052904609
10642,-8.198408,-3.727419,4.381856,-0.045357,0.059407,-0.19624,32.46,64.0547623036105
10652,-8.154141,-3.732205,4.360919,-0.04444,0.063835,-0.195935,32.46,64.0666866947523
10662,-8.118249,-3.735795,4.325027,-0.04047,0.069028,-0.191812,32.46,64.1744139609172
10672,-8.095517,-3.738187,4.313063,-0.035583,0.072235,-0.182191,32.46,64.1872090433555
10682,-8.071589,-3.749553,4.291527,-0.029016,0.076053,-0.168599,32.48,64.256869109357
10692,-8.02792,-3.761517,4.258028,-0.020006,0.078649,-0.151495,32.48,64.3453194472125
10702,-8.01476,-3.765106,4.241278,0.000305,0.082161,-0.108887,32.48,64.40718020897
10712,-8.012366,-3.769294,4.228716,0.011606,0.083689,-0.084605,32.46,64.4723624147347
10722,-8.026724,-3.769892,4.221537,0.024129,0.083994,-0.058185,32.46,64.5434610790842
10732,-8.021339,-3.778267,4.219743,0.036652,0.084758,-0.031918,32.44,64.5496312302447
10742,-8.031509,-3.783053,4.215555,0.048564,0.08323,-0.005498,32.44,64.5998366240861
10752,-8.047063,-3.790231,4.219743,0.060781,0.082009,0.019853,32.42,64.6205808163153
10762,-8.05783,-3.768696,4.210171,0.071929,0.07926,0.045051,32.42,64.6724183621713
10772,-8.089535,-3.778865,4.222734,0.081092,0.076205,0.066584,32.45,64.6885095925155
10782,-8.118249,-3.766303,4.226922,0.08995,0.072235,0.086132,32.45,64.7178996278357
10792,-8.153543,-3.76391,4.243671,0.096364,0.067959,0.102014,32.45,64.7069710131315
10802,-8.190034,-3.762115,4.253242,0.102167,0.062766,0.114232,32.45,64.736792571962
10812,-8.222935,-3.760919,4.274179,0.106138,0.057116,0.122173,32.45,64.7002273327486
10822,-8.263614,-3.75733,4.28076,0.107818,0.050244,0.126602,32.45,64.752925887595
10832,-8.296515,-3.753741,4.291527,0.107818,0.043066,0.125991,32.48,64.7666374210599
10842,-8.343175,-3.741776,4.308277,0.105527,0.03543,0.120493,32.48,64.7716802552178
10852,-8.369495,-3.749553,4.316652,0.102014,0.027184,0.111941,32.48,64.7943845498981
10862,-8.383853,-3.738786,4.325625,0.096211,0.019548,0.099418,32.48,64.7694998174615
10872,-8.4347,-3.726821,4.348357,0.089034,0.001833,0.063225,32.44,64.753637445559
10882,-8.453843,-3.722634,4.365107,0.071471,-0.005803,0.041997,32.44,64.7065265344937
10892,-8.460423,-3.722634,4.375276,0.061697,-0.01405,0.01741,32.44,64.6694308322295
10902,-8.448458,-3.724428,4.379463,0.050855,-0.022297,-0.007483,32.45,64.6236796959566
10912,-8.449057,-3.731607,4.38425,0.04047,-0.028863,-0.032223,32.45,64.6077183490398
10922,-8.442476,-3.716054,4.385446,0.029016,-0.03543,-0.057421,32.48,64.5720778185188
10932,-8.416155,-3.717848,4.383053,0.017562,-0.040623,-0.08262,32.48,64.5278392368962
10942,-8.395219,-3.722036,4.38066,0.00733,-0.044746,-0.10568,32.44,64.4977434778084
10952,-8.373683,-3.721437,4.387838,-0.001222,-0.048411,-0.125686,32.44,64.4128235081623
10962,-8.341978,-3.722634,4.385446,-0.009621,-0.050091,-0.142942,32.46,64.3554836602926
10972,-8.30489,-3.722634,4.38066,-0.014966,-0.051618,-0.15684,32.46,64.2968409844324
10982,-8.280362,-3.710072,4.369295,-0.020311,-0.050549,-0.167377,32.42,64.2871953594421
10992,-8.238488,-3.716054,4.365705,-0.023518,-0.050244,-0.17486,32.42,64.2171446492751
11002,-8.193025,-3.726223,4.351348,-0.025045,-0.047342,-0.176693,32.46,64.1984582198988
11012,-8.155338,-3.722036,4.338188,-0.022907,-0.045051,-0.176235,32.46,64.1763962900148
11022,-8.118848,-3.738187,4.339384,-0.020617,-0.040623,-0.17089,32.47,64.1037711006534
11032,-8.085946,-3.744768,4.31725,-0.016799,-0.034819,-0.161116,32.47,64.1504704336616
11042,-8.030313,-3.729812,4.311867,-0.010537,-0.029016,-0.131794,32.45,64.0346709918099
11052,-8.020144,-3.737589,4.302894,0.00672,-0.015119,-0.11301,32.45,64.0665058367128
11062,-8.000402,-3.746562,4.306482,0.01741,-0.007636,-0.092241,32.45,64.011774725667
11072,-7.993822,-3.733402,4.307679,0.028253,0.000764,-0.070708,32.44,63.9759982832055
11082,-7.995617,-3.75075,4.294518,0.039401,0.007941,-0.046578,32.44,64.0679859252703
11092,-7.984251,-3.747759,4.305286,0.050091,0.016493,-0.023518,32.49,63.9819433326043
11102,-8.008778,-3.737589,4.310072,0.06185,0.025962,0.00168,32.49,64.0026424302957
11112,-8.021339,-3.725027,4.311867,0.072846,0.032834,0.024129,32.48,64.0087812619068
11122,-8.035697,-3.735196,4.307679,0.08323,0.040623,0.044899,32.48,64.0747738275368
11132,-8.061419,-3.729214,4.326224,0.091477,0.048564,0.063988,32.5,64.0308333314446
11142,-8.085946,-3.732804,4.335197,0.099113,0.055894,0.080023,32.5,64.0443796847437
11152,-8.112864,-3.725027,4.353741,0.105222,0.062003,0.093004,32.47,64.0017182275049
11162,-8.145766,-3.721437,4.357928,0.109039,0.067806,0.103542,32.47,64.0517328861942
11172,-8.176873,-3.726223,4.364508,0.110261,0.072998,0.108887,32.45,64.0938064406017
11182,-8.224131,-3.704688,4.378866,0.110108,0.076664,0.109956,32.45,64.1052842859304
11192,-8.254042,-3.698107,4.39083,0.10797,0.081092,0.107207,32.45,64.1051414590905
11202,-8.286345,-3.711268,4.408178,0.103847,0.083841,0.101404,32.45,64.1029740128638
11212,-8.353344,-3.705286,4.416552,0.097738,0.086132,0.091019,32.45,64.2053247263287
11222,-8.376674,-3.705884,4.418347,0.079871,0.087812,0.060476,32.45,64.2491075679927
11232,-8.404789,-3.701099,4.426124,0.069639,0.087659,0.040928,32.49,64.2678262815077
11242,-8.406584,-3.699902,4.42732,0.057116,0.087354,0.018326,32.45,64.2646034272475
11252,-8.420342,-3.699902,4.426722,0.044593,0.085521,-0.004887,32.45,64.2983234343074
11262,-8.42453,-3.714259,4.418347,0.030696,0.083841,-0.029474,32.46,64.3640620974005
11272,-8.425727,-3.71725,4.425525,0.018021,0.080634,-0.053451,32.46,64.3333581697065
11282,-8.411968,-3.71725,4.411767,0.005803,0.077733,-0.077733,32.44,64.3723905051368
11292,-8.405987,-3.720839,4.398606,-0.005651,0.073609,-0.099876,32.44,64.4293347719425
11302,-8.397013,-3.727419,4.372883,-0.016341,0.06918,-0.120799,32.46,64.546538416126
11312,-8.366504,-3.732804,4.350152,-0.024587,0.065057,-0.140346,32.46,64.6001304404568
11322,-8.352745,-3.731607,4.339982,-0.032681,0.060018,-0.156382,32.47,64.6204365616189
11332,-8.328817,-3.735196,4.320241,-0.037568,0.054214,-0.168446,32.47,64.6720846832107
11342,-8.283952,-3.739383,4.298108,-0.040928,0.049022,-0.176082,32.48,64.690533533845
11352,-8.258827,-3.745365,4.281358,-0.041997,0.043219,-0.180205,32.48,64.727158446041
11362,-8.224131,-3.756732,4.264608,-0.04047,0.037263,-0.180816,32.43,64.7482221133293
11372,-8.187043,-3.760919,4.241278,-0.037263,0.031307,-0.176998,32.43,64.7911467768341
11382,-8.162517,-3.766303,4.207779,-0.031307,0.024587,-0.168904,32.45,64.9168660296729
11392,-8.106285,-3.772285,4.199404,-0.024129,0.012065,-0.142484,32.45,64.8415905425661
11402,-8.081758,-3.779463,4.192824,-0.003512,0.005651,-0.124158,32.45,64.8287836047454
11412,-8.065607,-3.769892,4.184449,0.008858,0.000458,-0.102931,32.5,64.8266445819105
11422,-8.049455,-3.786044,4.186243,0.023213,-0.004887,-0.080634,32.5,64.7979272663132
11432,-8.057232,-3.776472,4.181458,0.035888,-0.010079,-0.056505,32.47,64.8305313708787
11442,-8.049455,-3.771687,4.180261,0.050244,-0.015272,-0.032529,32.47,64.8143444122606
11452,-8.051848,-3.783053,4.205984,0.064904,-0.018937,-0.007178,32.43,64.6961410555057
11462,-8.05783,-3.768098,4.207779,0.077274,-0.022449,0.016035,32.43,64.684376094082
11472,-8.060822,-3.766303,4.21735,0.090103,-0.02642,0.037568,32.47,64.6388834427609
11482,-8.102695,-3.765705,4.240082,0.101709,-0.029169,0.058032,32.47,64.6134352914938
11492,-8.10808,-3.760321,4.254438,0.110719,-0.029627,0.075595,32.48,64.5448571939078
11502,-8.128419,-3.747759,4.278965,0.118202,-0.030696,0.089797,32.48,64.449695857663
11512,-8.160124,-3.742973,4.298706,0.124311,-0.03146,0.101862,32.47,64.4137239227776
11522,-8.188239,-3.734598,4.320241,0.127824,-0.03146,0.107665,32.47,64.3569855668567
11532,-8.221141,-3.724428,4.347759,0.12874,-0.030849,0.110261,32.5,64.278823130964
11542,-8.248658,-3.725027,4.369893,0.127671,-0.0281,0.110414,32.5,64.2277845948946
11552,-8.267202,-3.717848,4.412365,0.123853,-0.025351,0.105527,32.47,64.0449046316042
11562,-8.341978,-3.709473,4.432704,0.118355,-0.022449,0.083536,32.47,64.1018793162353
11572,-8.347363,-3.71067,4.451847,0.100487,-0.01405,0.067959,32.48,64.0181011662333
11582,-8.362915,-3.704688,4.457231,0.088728,-0.010385,0.049327,32.45,64.0199294113086
11592,-8.378469,-3.692724,4.472784,0.0759,-0.005192,0.027642,32.45,63.9644495557838
11602,-8.38445,-3.7005,4.481159,0.061697,-0.000764,0.004123,32.48,63.943411880176
11612,-8.38445,-3.696911,4.492525,0.047953,0.003971,-0.018784,32.48,63.8825132752175
11622,-8.388638,-3.689733,4.488338,0.034361,0.009621,-0.042761,32.51,63.9059451136611
11632,-8.371889,-3.687938,4.481757,0.020617,0.015119,-0.065515,32.51,63.8994741543668
11642,-8.369495,-3.684349,4.467998,0.007178,0.020617,-0.089186,32.48,63.9600234031343
11652,-8.348558,-3.698706,4.4674,-0.005956,0.025809,-0.110872,32.48,63.930013177344
11662,-8.322237,-3.70409,4.458427,-0.016799,0.030849,-0.129045,32.45,63.9212482498234
11672,-8.298907,-3.703491,4.432704,-0.025809,0.036194,-0.14447,32.45,63.9984788392047
11682,-8.277969,-3.715455,4.424329,-0.033139,0.040623,-0.157145,32.49,64.0058095976856
11692,-8.24148,-3.701099,4.411169,-0.03879,0.044899,-0.166766,32.49,63.9753898629014
11702,-8.216354,-3.713063,4.377669,-0.041997,0.049786,-0.172111,32.45,64.1023414014597
11712,-8.172686,-3.727419,4.356732,-0.041692,0.053756,-0.171806,32.45,64.125640598786
11722,-8.163713,-3.731607,4.339384,-0.039859,0.05681,-0.169057,32.41,64.1992338725271
11732,-8.101499,-3.742374,4.299304,-0.035583,0.061239,-0.162185,32.41,64.2769511864678
11742,-8.066804,-3.750151,4.276572,-0.020159,0.066737,-0.137597,32.47,64.3247585244353
11752,-8.066205,-3.750151,4.254438,-0.011148,0.06918,-0.120799,32.46,64.4393062337058
11762,-8.048858,-3.750151,4.25743,0.000305,0.071319,-0.100487,32.46,64.384120380938
11772,-8.0345,-3.756134,4.24068,0.012828,0.073151,-0.078954,32.43,64.4457395166904
11782,-8.035098,-3.759723,4.228117,0.025198,0.07422,-0.056047,32.43,64.517006644884
11792,-8.023732,-3.764508,4.226323,0.037721,0.074984,-0.032681,32.43,64.5057141799974
11802,-8.026724,-3.766303,4.224528,0.05116,0.075442,-0.008552,32.43,64.5238820560624
11812,-8.045268,-3.768098,4.231109,0.064599,0.074526,0.013897,32.46,64.5332498330799
11822,-8.065009,-3.76391,4.243671,0.077274,0.073762,0.036041,32.46,64.507596907605
11832,-8.090732,-3.760321,4.237689,0.087965,0.071929,0.0562,32.46,64.5933529784662
11842,-8.109276,-3.75075,4.244269,0.097433,0.070402,0.074067,32.46,64.5907298501276
11852,-8.143971,-3.753142,4.256832,0.105832,0.068264,0.088117,32.43,64.6057287215033
11862,-8.172686,-3.751946,4.260421,0.112552,0.064446,0.099418,32.43,64.6502424905511
11872,-8.212766,-3.747759,4.272385,0.117439,0.060476,0.107207,32.48,64.6734487465761
11882,-8.254042,-3.749553,4.285545,0.118813,0.056047,0.110567,32.48,64.6991182828041
11892,-8.280362,-3.739982,4.301697,0.118966,0.050702,0.109039,32.48,64.6646696346278
11902,-8.359326,-3.728616,4.325027,0.117286,0.045051,0.105069,32.48,64.7085278349067
11912,-8.373085,-3.735795,4.342375,0.111941,0.031918,0.082314,32.49,64.6573180782876
11922,-8.408977,-3.73041,4.353741,0.097738,0.025198,0.065821,32.46,64.6732350809108
11933,-8.420941,-3.722634,4.367499,0.088423,0.018479,0.047037,32.46,64.622053952828
11942,-8.432307,-3.723232,4.372883,0.077427,0.011606,0.025504,32.48,64.620340833867
11952,-8.448458,-3.716054,4.384848,0.065363,0.00504,0.001833,32.48,64.5882886600125
11962,-8.441879,-3.718446,4.378268,0.052687,-0.00168,-0.021991,32.46,64.6094596728978
11972,-8.452645,-3.716054,4.388436,0.040317,-0.007483,-0.046273,32.46,64.5793432266616
11982,-8.440681,-3.714857,4.391428,0.027947,-0.013592,-0.071624,32.45,64.53665446832
11992,-8.419147,-3.711268,4.387838,0.016188,-0.018326,-0.095448,32.45,64.5037536081962
12002,-8.400003,-3.718446,4.386044,0.004276,-0.023366,-0.116981,32.47,64.4774680803301
12012,-8.372486,-3.719643,4.378268,-0.006567,-0.026573,-0.136681,32.47,64.4570871124871
12022,-8.35155,-3.71725,4.374678,-0.014813,-0.029169,-0.153327,32.46,64.4263952762632
12032,-8.315658,-3.722036,4.360321,-0.02138,-0.030543,-0.165392,32.46,64.4243779140573
12042,-8.27139,-3.72383,4.360919,-0.025504,-0.03146,-0.174249,32.46,64.3238634449955
12052,-8.242676,-3.714857,4.339982,-0.028863,-0.032223,-0.180511,32.46,64.3577380343739
12062,-8.199007,-3.727419,4.334,-0.029932,-0.031765,-0.181885,32.49,64.3028122201113
12072,-8.164311,-3.732804,4.321437,-0.028405,-0.030238,-0.178984,32.49,64.2947611966414
12082,-8.100902,-3.739383,4.302295,-0.023366,-0.027184,-0.161421,32.44,64.2568561823957
12092,-8.06441,-3.732804,4.292724,-0.011454,-0.020311,-0.148593,32.46,64.2164193464035
12102,-8.050054,-3.735795,4.28734,-0.002138,-0.014813,-0.131183,32.46,64.2148469210977
12112,-8.021938,-3.745365,4.285545,0.00901,-0.009316,-0.111788,32.42,64.1699058643131
12122,-8.015956,-3.744169,4.274778,0.020922,-0.003665,-0.090561,32.42,64.2113604248585
12132,-7.998608,-3.748955,4.278965,0.032987,0.002902,-0.067195,32.42,64.1546005359728
12142,-8.001,-3.757928,4.284947,0.044899,0.009621,-0.044746,32.42,64.1383972600765
12152,-8.018349,-3.756134,4.286144,0.058032,0.017104,-0.021075,32.45,64.1700925890037
12162,-8.01117,-3.750151,4.28734,0.071166,0.023671,0.001833,32.45,64.1408627646542
12172,-8.035098,-3.74058,4.303492,0.082772,0.030391,0.024282,32.45,64.1010646556032
12182,-8.049455,-3.742374,4.308277,0.093921,0.038026,0.044593,32.45,64.1110048816731
12192,-8.073982,-3.738786,4.313661,0.102473,0.045204,0.061697,32.46,64.1354072222235
12202,-8.106285,-3.73041,4.322036,0.110261,0.051313,0.075747,32.46,64.1569447009982
12212,-8.129615,-3.729214,4.342973,0.115912,0.056505,0.087506,32.44,64.100357849678
12222,-8.163713,-3.736991,4.352544,0.119882,0.060934,0.093615,32.44,64.1367953808909
12232,-8.199606,-3.73041,4.356732,0.123089,0.066126,0.098655,32.45,64.1899534285667
12242,-8.220542,-3.733402,4.386044,0.122326,0.07086,0.098044,32.45,64.0897723117014
12252,-8.297711,-3.735196,4.39083,0.119882,0.073762,0.093462,32.46,64.2414287439414
12262,-8.320443,-3.72383,4.401597,0.111941,0.078343,0.074984,32.45,64.2261061259737
12272,-8.352745,-3.723232,4.404588,0.104153,0.079412,0.060628,32.45,64.2826939640886
12282,-8.372486,-3.715455,4.417151,0.095142,0.080329,0.043219,32.49,64.2552950183239
12292,-8.386844,-3.725027,4.411169,0.086132,0.080023,0.024435,32.49,64.3271839928202
12302,-8.401799,-3.721437,4.418945,0.074067,0.078954,0.002902,32.47,64.3175390285435
12312,-8.406584,-3.726223,4.416552,0.062614,0.076664,-0.019548,32.47,64.3450202721488
12322,-8.416155,-3.721437,4.402793,0.050396,0.074373,-0.04215,32.46,64.4312502790894
12332,-8.39821,-3.723232,4.406981,0.038943,0.07254,-0.064446,32.46,64.371946025699
12342,-8.395817,-3.731009,4.384848,0.027642,0.069791,-0.085827,32.5,64.4866150083804
12352,-8.389236,-3.725027,4.371089,0.017257,0.066737,-0.105374,32.5,64.5361004629499
12362,-8.367103,-3.734,4.376472,0.008094,0.062614,-0.123853,32.47,64.4684751489621
12372,-8.346166,-3.73041,4.354938,0,0.059254,-0.139888,32.47,64.5282288137315
12382,-8.316854,-3.725027,4.334598,-0.00672,0.054367,-0.152411,32.46,64.5617874433751
12392,-8.298907,-3.742374,4.308876,-0.010996,0.050244,-0.161421,32.46,64.6713010086949
12402,-8.27139,-3.742374,4.30409,-0.014813,0.045509,-0.167072,32.45,64.6347899760069
12412,-8.238488,-3.754937,4.289135,-0.015272,0.040775,-0.168446,32.45,64.65140388353
12422,-8.177471,-3.756732,4.252644,-0.01405,0.036194,-0.166155,32.44,64.7063392467242
12432,-8.154739,-3.760321,4.244269,-0.011606,0.026114,-0.152105,32.44,64.7028229707179
12442,-8.133204,-3.759125,4.229314,0.000458,0.021228,-0.14111,32.43,64.731458443186
12452,-8.12124,-3.765705,4.221537,0.009163,0.016952,-0.126144,32.44,64.7521739246541
12462,-8.099705,-3.768098,4.214359,0.018326,0.012065,-0.108276,32.44,64.7440037753503
12472,-8.088937,-3.767499,4.199404,0.029016,0.007789,-0.089034,32.43,64.7977579050406
12482,-8.080563,-3.765705,4.218546,0.04047,0.003665,-0.06918,32.43,64.6764892090731
12492,-8.073383,-3.762115,4.214957,0.05284,0.000458,-0.047495,32.48,64.675395149017
12502,-8.076375,-3.761517,4.213761,0.065057,-0.003207,-0.026573,32.48,64.6877962737317
12512,-8.085946,-3.757928,4.219743,0.077733,-0.006109,-0.006567,32.47,64.6741773901853
12522,-8.085348,-3.75733,4.237091,0.089797,-0.008552,0.013439,32.47,64.5811904654631
12532,-8.086544,-3.753142,4.241877,0.101251,-0.010537,0.032376,32.49,64.5544120208683
12542,-8.112267,-3.742973,4.267599,0.110719,-0.012065,0.048564,32.49,64.4674265527144
12552,-8.123035,-3.747759,4.282554,0.119424,-0.012523,0.062156,32.45,64.4188088116523
12562,-8.148159,-3.734598,4.299902,0.125533,-0.012523,0.073457,32.45,64.3717470642306
12572,-8.172686,-3.734598,4.325625,0.131183,-0.011606,0.081245,32.46,64.2939209530754
12582,-8.196015,-3.73041,4.338786,0.13439,-0.009927,0.085368,32.46,64.2744011054681
12592,-8.222337,-3.720839,4.373481,0.134543,-0.007025,0.085827,32.48,64.1454628874124
12602,-8.2678,-3.705286,4.398008,0.133932,-0.005498,0.076358,32.48,64.1068928027866
12612,-8.292327,-3.699304,4.419543,0.124922,0.002749,0.067195,32.45,64.0464024063081
12622,-8.317451,-3.697509,4.434498,0.117439,0.007941,0.054672,32.46,64.0253403912756
12632,-8.338987,-3.68734,4.44048,0.109192,0.012065,0.040164,32.46,64.0334746061467
12642,-8.355738,-3.681956,4.451847,0.098807,0.016799,0.022144,32.49,64.0083096011904
12652,-8.363514,-3.686144,4.469195,0.087659,0.020769,0.002291,32.49,63.9422235009934
12662,-8.368299,-3.696313,4.466802,0.075747,0.026267,-0.018479,32.5,63.9752937223024
12672,-8.368299,-3.68375,4.472784,0.062919,0.031001,-0.04047,32.5,63.932516276357
12682,-8.372486,-3.697509,4.467998,0.04948,0.036194,-0.062919,32.45,63.9798940234953
12692,-8.35813,-3.698107,4.466802,0.03711,0.040928,-0.084605,32.45,63.9541024717879
12702,-8.349156,-3.701697,4.454239,0.024893,0.044899,-0.104611,32.43,64.0010310399972
12712,-8.346166,-3.697509,4.442873,0.013134,0.049327,-0.123547,32.43,64.0477245245906
12722,-8.322237,-3.689733,4.432106,0.00336,0.053603,-0.139888,32.45,64.0405303236063
12732,-8.299506,-3.692126,4.405187,-0.005498,0.056658,-0.154702,32.45,64.1286941030603
12742,-8.276175,-3.704688,4.401597,-0.012675,0.058796,-0.166308,32.42,64.1069061825621
12752,-8.244471,-3.711268,4.383651,-0.017715,0.062156,-0.173944,32.42,64.13365212207
12762,-8.210373,-3.711268,4.339982,-0.020922,0.065057,-0.177915,32.48,64.2810814584909
12772,-8.159525,-3.734598,4.318447,-0.021075,0.067195,-0.173333,32.48,64.3012628460044
12782,-8.146963,-3.747759,4.292126,-0.016341,0.069486,-0.166308,32.45,64.4231323794755
12792,-8.12124,-3.75075,4.284947,-0.011454,0.07025,-0.156229,32.46,64.405402484724
12802,-8.094919,-3.753142,4.264608,-0.004123,0.07025,-0.142332,32.46,64.4544037825187
12812,-8.082954,-3.757928,4.242475,0.00504,0.06918,-0.12538,32.44,64.5481868268529
12822,-8.066205,-3.759125,4.240082,0.014813,0.06857,-0.107054,32.44,64.5240786593641
12832,-8.060224,-3.768098,4.219743,0.026267,0.067195,-0.086285,32.46,64.6268459121518
12842,-8.050652,-3.771687,4.22752,0.038637,0.065821,-0.063988,32.46,64.5681206015856
12852,-8.053642,-3.772285,4.222734,0.050549,0.064141,-0.040928,32.48,64.6006762264481
12862,-8.04467,-3.768098,4.218546,0.063225,0.061392,-0.018326,32.48,64.5979755411392
12872,-8.068,-3.77408,4.204788,0.075442,0.058643,0.003971,32.45,64.7293219895568
12882,-8.07817,-3.765106,4.223332,0.087506,0.056047,0.024893,32.45,64.6453385279137
12892,-8.100304,-3.772883,4.229314,0.098807,0.052534,0.04444,32.48,64.6719525129864
12902,-8.127223,-3.772883,4.234099,0.108581,0.048564,0.061392,32.48,64.7073187319842
12912,-8.148758,-3.775874,4.246064,0.115606,0.045204,0.075289,32.47,64.6961661026917
12922,-8.178668,-3.773481,4.275376,0.121562,0.041539,0.085368,32.47,64.6080986475333
12932,-8.20798,-3.764508,4.284947,0.12706,0.037721,0.093004,32.45,64.6147743416545
12942,-8.276773,-3.744768,4.314857,0.128893,0.034361,0.096364,32.45,64.5937412723711
12952,-8.300702,-3.738786,4.33041,0.128129,0.026573,0.090255,32.48,64.5610748116624
12962,-8.332406,-3.744169,4.348357,0.123242,0.023366,0.081551,32.45,64.5449980014833
12972,-8.352147,-3.744169,4.365705,0.118508,0.020159,0.069333,32.45,64.5002324874153
12982,-8.38445,-3.724428,4.383651,0.110872,0.016646,0.052687,32.48,64.4610046004788
12992,-8.39462,-3.729214,4.390232,0.101862,0.013592,0.034208,32.48,64.4548515114211
13002,-8.403594,-3.725027,4.396214,0.091783,0.010232,0.013286,32.48,64.4402741303619
13012,-8.41436,-3.726821,4.409374,0.08094,0.006872,-0.009774,32.48,64.3992206923431
13022,-8.41436,-3.714857,4.41057,0.070097,0.004276,-0.033598,32.45,64.3814192260782
13032,-8.416155,-3.723232,4.411169,0.058185,0.001527,-0.057269,32.45,64.3905902301936
13042,-8.413763,-3.725027,4.407579,0.046578,-0.001527,-0.081398,32.45,64.4052241649664
13052,-8.38804,-3.714259,4.41057,0.035583,-0.002902,-0.103389,32.45,64.3222435801181
13062,-8.376076,-3.71725,4.396214,0.025962,-0.005192,-0.124006,32.45,64.3714238647995
13072,-8.35813,-3.71067,4.396214,0.018021,-0.006261,-0.142332,32.45,64.3248411651752
13082,-8.324032,-3.716054,4.38425,0.008858,-0.006414,-0.156687,32.46,64.3148434050503
13092,-8.296515,-3.727419,4.372883,0.003207,-0.007025,-0.16753,32.46,64.3226346490622
13102,-8.25464,-3.710072,4.365107,-0.000764,-0.007178,-0.176082,32.44,64.2506533258169
13112,-8.219346,-3.728018,4.34058,-0.002749,-0.006261,-0.180053,32.44,64.3154462701654
13122,-8.151151,-3.735196,4.323831,-0.00336,-0.00336,-0.175013,32.43,64.2549567827722
13132,-8.124829,-3.733402,4.312464,0.001985,-0.001833,-0.167072,32.46,64.2521983840033
13142,-8.096116,-3.725027,4.308876,0.005651,0.001222,-0.156382,32.46,64.1965126986214
13152,-8.072187,-3.738786,4.292724,0.012675,0.004276,-0.140957,32.46,64.240567109208
13162,-8.059625,-3.738786,4.293921,0.021533,0.008399,-0.123242,32.46,64.2055481518201
13172,-8.028519,-3.739982,4.280162,0.030849,0.01237,-0.102931,32.46,64.2074892421515
13182,-8.01476,-3.744169,4.272385,0.040928,0.016646,-0.081551,32.46,64.2211776122019
13192,-8.020144,-3.737589,4.281956,0.051771,0.021838,-0.058185,32.48,64.1762581230294
13202,-8.030313,-3.741776,4.285545,0.062308,0.026878,-0.035736,32.48,64.1853106191174
13212,-8.021339,-3.733402,4.282554,0.072998,0.03207,-0.011759,32.46,64.1713826981529
13222,-8.03091,-3.736392,4.290331,0.082925,0.037874,0.01069,32.46,64.155839706924
13232,-8.044072,-3.736392,4.304688,0.092699,0.042761,0.031154,32.46,64.1109852374236
13242,-8.075776,-3.729812,4.303492,0.101098,0.048258,0.04948,32.46,64.1830529015515
13252,-8.102695,-3.736991,4.326224,0.108734,0.053603,0.065363,32.45,64.1338900944148
13262,-8.117651,-3.736392,4.341179,0.114232,0.058948,0.07758,32.45,64.0898293316097
13272,-8.14457,-3.731009,4.345366,0.118508,0.064141,0.087506,32.47,64.1240212572957
13282,-8.199606,-3.729214,4.364508,0.121257,0.068722,0.092546,32.47,64.1486485222097
13292,-8.245069,-3.719045,4.38425,0.122478,0.071777,0.092546,32.47,64.1398810407026
13302,-8.287541,-3.720839,4.38425,0.118202,0.077733,0.085979,32.46,64.2376618050784
13312,-8.308478,-3.718446,4.398008,0.113468,0.079718,0.076358,32.46,64.2120895504145
13322,-8.328219,-3.717848,4.396214,0.107512,0.081398,0.063377,32.45,64.2650000451261
13332,-8.344969,-3.705884,4.405785,0.100335,0.081551,0.046578,32.45,64.2418824893143
13342,-8.376674,-3.707679,4.403392,0.092393,0.081245,0.028253,32.46,64.3268183346927
13352,-8.395219,-3.711268,4.411169,0.082467,0.080176,0.007178,32.46,64.3322609373049
13362,-8.400601,-3.704688,4.409374,0.071471,0.078802,-0.014355,32.46,64.3468828130578
13372,-8.403594,-3.716652,4.412365,0.061545,0.077274,-0.036957,32.46,64.3501518048997
13382,-8.406584,-3.720241,4.403392,0.051313,0.074373,-0.059407,32.48,64.4058049416403
13392,-8.401799,-3.726223,4.392026,0.041539,0.071777,-0.081398,32.48,64.4587192261454
13402,-8.390432,-3.718446,4.389633,0.031154,0.068417,-0.10232,32.47,64.4379917534868
13412,-8.375478,-3.721437,4.366303,0.022297,0.064446,-0.121868,32.47,64.5264419024514
13422,-8.36112,-3.727419,4.349553,0.01405,0.060628,-0.138361,32.42,64.5859474878637
13432,-8.327621,-3.726821,4.345964,0.00672,0.055436,-0.1518,32.42,64.5293113604263
13442,-8.312666,-3.734598,4.328018,0.000916,0.050549,-0.163101,32.44,64.5957684886316
13452,-8.270791,-3.748357,4.302894,-0.002138,0.046273,-0.170737,32.44,64.6456477048502
13462,-8.229516,-3.753741,4.274778,-0.004581,0.041386,-0.173638,32.45,64.7044779226952
13472,-8.203195,-3.753741,4.25743,-0.003207,0.030849,-0.170279,32.45,64.7358098333264
13482,-8.157133,-3.745365,4.244269,0.000611,0.025809,-0.162948,32.46,64.6927697549574
13492,-8.147561,-3.75075,4.241877,0.005192,0.021228,-0.152411,32.43,64.6893414749884
13502,-8.122437,-3.750151,4.22393,0.011301,0.015577,-0.138819,32.43,64.7261886608132
13582,-8.09133,-3.759125,4.237091,0.088881,-0.014508,0.01405,32.5,64.5965818114371
13592,-8.100902,-3.748955,4.25384,0.097586,-0.016188,0.029932,32.43,64.5198664671469
13602,-8.123035,-3.739982,4.27717,0.106138,-0.017257,0.044593,32.43,64.438753247398
13612,-8.146365,-3.74716,4.296911,0.112857,-0.017562,0.057116,32.44,64.3962875023059
13622,-8.173284,-3.75075,4.311867,0.117897,-0.017562,0.066126,32.44,64.3832515173364
13632,-8.186445,-3.731607,4.345964,0.122173,-0.016188,0.073762,32.44,64.2168761928224
13642,-8.240881,-3.720839,4.365107,0.1237,-0.012217,0.076816,32.44,64.2305167329408
13652,-8.257631,-3.722634,4.38724,0.123395,-0.009621,0.072235,32.46,64.1566624669448
13662,-8.282157,-3.713661,4.40399,0.120188,-0.006414,0.065057,32.45,64.1173179118814
13672,-8.3013,-3.714259,4.424329,0.115454,-0.002138,0.054367,32.45,64.0574602046036
13682,-8.321639,-3.71067,4.4339,0.108734,0.003512,0.041997,32.49,64.0511115197659
13692,-8.330612,-3.699304,4.442873,0.101404,0.008552,0.026573,32.49,64.0143663574298
13702,-8.344969,-3.705286,4.458427,0.092393,0.013897,0.007941,32.5,63.9739432864518
13712,-8.342576,-3.709473,4.473382,0.081703,0.020006,-0.010843,32.5,63.8970084038843
13722,-8.342576,-3.71067,4.478168,0.071929,0.02642,-0.031154,32.47,63.8740000272694
13732,-8.346764,-3.702295,4.469195,0.061239,0.034056,-0.051007,32.47,63.9204662153733
13742,-8.342576,-3.708875,4.465007,0.05116,0.040775,-0.070402,32.46,63.9388047895533
13752,-8.322835,-3.695715,4.463212,0.039554,0.047342,-0.090713,32.46,63.8898741623794
13762,-8.32463,-3.699902,4.453641,0.029322,0.054672,-0.10965,32.46,63.9467412639342
13772,-8.31147,-3.707081,4.448855,0.020922,0.060628,-0.125686,32.46,63.9484489529445
13782,-8.286943,-3.721437,4.425525,0.012981,0.066279,-0.140499,32.48,64.0261478140803
13792,-8.263015,-3.711866,4.406981,0.007789,0.072235,-0.151647,32.48,64.0568272385901
13802,-8.239684,-3.723232,4.365107,0.003054,0.077122,-0.160505,32.46,64.2302542082724
13812,-8.19781,-3.729812,4.353143,-0.000153,0.081092,-0.166308,32.46,64.2037651712723
13822,-8.169695,-3.732804,4.320241,0.000916,0.087201,-0.164628,32.47,64.3131654764078
13832,-8.142776,-3.742973,4.308277,0.003512,0.08827,-0.158825,32.48,64.324751823064
13842,-8.136195,-3.745365,4.286144,0.008094,0.089186,-0.149967,32.48,64.4274061348329
17732,-8.146365,-3.75075,4.214359,0.102473,0.023976,-0.017257,32.48,64.8304931436172
17752,-8.182856,-3.759125,4.248456,0.116981,0.011912,0.005345,32.47,64.7426150879709
17772,-8.207382,-3.744768,4.282554,0.12538,0.001833,0.020006,32.52,64.6056427751621
17792,-8.25165,-3.711866,4.335197,0.128282,-0.004123,0.025656,32.45,64.3995601259091
18182,-8.316256,-3.733402,4.396811,0.094531,0.051313,-0.003818,32.47,64.2507377819968
18202,-8.335996,-3.729214,4.402793,0.076511,0.054062,-0.029169,32.48,64.2603100250211
18222,-8.335996,-3.725027,4.395017,0.057879,0.054825,-0.054062,32.45,64.2957185528952
18242,-8.33121,-3.722634,4.381258,0.040164,0.055283,-0.080481,32.5,64.3527678548683
18272,-8.297112,-3.733402,4.348357,0.021075,0.053756,-0.108887,32.46,64.4556064049108
18302,-8.2349,-3.748357,4.288536,0.016188,0.045815,-0.120951,32.47,64.6398203032338
18322,-8.179864,-3.744768,4.273581,0.025656,0.03543,-0.112705,32.46,64.5905296282619
18342,-8.163115,-3.742973,4.253242,0.039095,0.027794,-0.096517,32.45,64.6569384102186
18362,-8.140981,-3.751348,4.241877,0.057269,0.018631,-0.074984,32.49,64.6751966455219
18382,-8.125427,-3.745365,4.243073,0.076358,0.010385,-0.051313,32.42,64.6277812778769
18412,-8.146963,-3.736392,4.274179,0.102014,0.001069,-0.015882,32.46,64.504720819292
18422,-8.148758,-3.729812,4.289135,0.109803,-0.000305,-0.006414,32.46,64.4241175960682
18432,-8.16132,-3.727419,4.297509,0.116064,-0.00168,0.002596,32.47,64.4065458225895
18442,-8.180463,-3.729812,4.309474,0.121257,-0.001833,0.010079,32.47,64.3902324897876
18452,-8.17448,-3.720241,4.320241,0.124158,-0.001374,0.013439,32.45,64.3110255936221
18462,-8.210971,-3.723232,4.344768,0.12706,0,0.017104,32.45,64.2700083630213
18472,-8.212168,-3.708277,4.357928,0.126602,0.002138,0.018021,32.45,64.1895335814328
18492,-8.245069,-3.707679,4.398008,0.116981,0.013134,0.008399,32.48,64.0577213711787
18502,-8.268398,-3.71067,4.414758,0.110567,0.018021,0.001222,32.44,64.0280724935282
18512,-8.280961,-3.702295,4.429713,0.102931,0.023366,-0.007178,32.44,63.971751577275
18522,-8.288139,-3.699902,4.426124,0.094684,0.029322,-0.017257,32.46,64.0039368806047
18532,-8.289934,-3.701697,4.433302,0.086132,0.035277,-0.0281,32.46,63.9732425286061
18572,-8.282157,-3.719643,4.423731,0.048564,0.058338,-0.075289,32.46,64.0226236657165
18602,-8.261818,-3.722634,4.390232,0.027489,0.071624,-0.101404,32.41,64.1508084349039
18622,-8.232506,-3.741179,4.35733,0.0197,0.077427,-0.111177,32.45,64.2723886842615
18692,-8.156534,-3.765705,4.244868,0.050702,0.066432,-0.071777,32.45,64.7092742451556
18752,-8.176275,-3.764508,4.265805,0.10232,0.039706,-0.006567,32.45,64.6432087215344
18822,-8.275578,-3.73041,4.372285,0.115759,0.018937,0.004887,32.42,64.2816791506577
18872,-8.321041,-3.709473,4.401597,0.075136,0.021075,-0.050702,32.47,64.2130331011897
18882,-8.316854,-3.703491,4.400999,0.065821,0.022449,-0.062919,32.43,64.2006560025761
18932,-8.268997,-3.714259,4.369893,0.029169,0.028711,-0.108887,32.43,64.2627465906467
19002,-8.136195,-3.725625,4.281956,0.032987,0.031918,-0.098655,32.48,64.4286909090273
19032,-8.117052,-3.748955,4.274179,0.063835,0.028863,-0.05681,32.44,64.4501733646026
19052,-8.111669,-3.736991,4.275376,0.082925,0.028863,-0.031918,32.48,64.4192187579614
19062,-8.127223,-3.748955,4.280162,0.091324,0.028558,-0.019853,32.48,64.442001320904
19072,-8.130214,-3.753142,4.282554,0.099876,0.028558,-0.009316,32.41,64.4406770699512
19082,-8.139785,-3.746562,4.297509,0.107512,0.029169,0.000153,32.41,64.3776625433989
19092,-8.143971,-3.750151,4.304688,0.113621,0.029169,0.009163,32.45,64.3535839731328
19102,-8.157133,-3.747759,4.314857,0.118813,0.030696,0.015882,32.45,64.3281328741844
19112,-8.190632,-3.741776,4.325027,0.122478,0.033445,0.019853,32.46,64.3450407646972
19122,-8.19781,-3.741179,4.347759,0.124922,0.034514,0.022907,32.46,64.2432706914384
19132,-8.217552,-3.743571,4.35733,0.125991,0.036805,0.023213,32.47,64.2410816043522
19142,-8.215158,-3.729812,4.374678,0.124922,0.040775,0.022144,32.47,64.1322449817786
19152,-8.239684,-3.723232,4.386044,0.122631,0.04383,0.019242,32.47,64.1227561927893
19162,-8.264212,-3.719045,4.393223,0.118355,0.046884,0.012981,32.47,64.1372542853984
19172,-8.279166,-3.713661,4.407579,0.11301,0.051465,0.006109,32.45,64.0922116057226
19182,-8.3013,-3.720241,4.414758,0.105985,0.058185,-0.015272,32.45,64.1122888443796
19192,-8.297711,-3.717848,4.420142,0.08995,0.062614,-0.025809,32.46,64.0743129270601
19202,-8.30489,-3.718446,4.417749,0.081092,0.066279,-0.037568,32.42,64.1033346879692
19212,-8.316256,-3.725625,4.418945,0.072082,0.069333,-0.049633,32.42,64.1301291063121
19222,-8.308478,-3.727419,4.404588,0.062308,0.071624,-0.062003,32.46,64.1875726684491
19232,-8.309675,-3.723232,4.394419,0.053909,0.073915,-0.073915,32.46,64.2379181365473
19242,-8.308478,-3.721437,4.389035,0.045509,0.076205,-0.084147,32.43,64.2609071444885
19252,-8.295319,-3.724428,4.378268,0.038179,0.076664,-0.093768,32.43,64.2893834953574
19262,-8.282756,-3.723232,4.36391,0.032681,0.076816,-0.101709,32.45,64.3334696706038
19272,-8.274979,-3.734,4.346562,0.027794,0.075747,-0.108429,32.45,64.4158966909462
19282,-8.252247,-3.735196,4.334,0.02474,0.074831,-0.112705,32.44,64.4307183592307
19292,-8.242676,-3.742374,4.310072,0.02306,0.072235,-0.114232,32.44,64.5398758022086
19302,-8.228318,-3.743571,4.303492,0.022297,0.06857,-0.115148,32.46,64.5429361065055
19312,-8.222337,-3.741776,4.28734,0.023976,0.065515,-0.112857,32.46,64.6112606746927
19322,-8.215158,-3.734598,4.269393,0.026573,0.060781,-0.109345,32.46,64.6809213409624
19332,-8.19123,-3.736392,4.258028,0.030391,0.054367,-0.104,32.46,64.6882755937924
19342,-8.177471,-3.741179,4.232305,0.035736,0.049175,-0.096669,32.47,64.7963851143806
19352,-8.167302,-3.745964,4.223332,0.041997,0.042913,-0.078649,32.47,64.8254151418764
19362,-8.169096,-3.754937,4.231707,0.057574,0.029474,-0.067959,32.48,64.7948939953045
19372,-8.165507,-3.741776,4.225127,0.066279,0.022602,-0.057574,32.48,64.8077463352714
19382,-8.152347,-3.751348,4.229912,0.07422,0.016646,-0.046884,32.48,64.7631604296029
19392,-8.158927,-3.744169,4.24068,0.082314,0.009927,-0.036194,32.47,64.7142853524254
19402,-8.160722,-3.753741,4.246662,0.091019,0.004734,-0.025962,32.47,64.6969553212522
19412,-8.178668,-3.741179,4.259823,0.097891,0.000305,-0.017868,32.48,64.6557023153187
19422,-8.192427,-3.736991,4.276572,0.103236,-0.003512,-0.010996,32.48,64.5952098491326
19432,-8.190632,-3.742973,4.292126,0.108123,-0.006567,-0.004429,32.46,64.5166136508705
19442,-8.197212,-3.734598,4.312464,0.112399,-0.008247,0.000305,32.46,64.4174796597096
19452,-8.20798,-3.731607,4.318447,0.114537,-0.009468,0.003665,32.47,64.4077401831565
19462,-8.229516,-3.722634,4.338188,0.115301,-0.010537,0.00336,32.47,64.3452259166249
19472,-8.240283,-3.723232,4.363312,0.115912,-0.008399,0.002291,32.44,64.2408333061265
19482,-8.245667,-3.725625,4.38066,0.113163,-0.00672,-0.000458,32.44,64.1663783800052
19492,-8.25464,-3.715455,4.395017,0.110414,-0.00336,-0.005651,32.45,64.102723306984
19502,-8.256434,-3.713661,4.398606,0.105222,0.000764,-0.011148,32.45,64.0865820036292
19512,-8.269596,-3.712464,4.415356,0.099571,0.005498,-0.018784,32.46,64.0295655568078
19522,-8.289336,-3.711268,4.429115,0.092852,0.011148,-0.027642,32.46,64.0029379887218
19532,-8.28156,-3.70409,4.436294,0.078802,0.023824,-0.046578,32.48,63.9413865391233
19542,-8.282157,-3.717848,4.4339,0.07025,0.030696,-0.057879,32.46,63.9689551606118
19552,-8.274381,-3.711866,4.436294,0.062614,0.037721,-0.066584,32.46,63.9329775142818
19562,-8.263614,-3.699902,4.433302,0.0562,0.044288,-0.076511,32.46,63.9114946923709
19572,-8.261818,-3.707679,4.422534,0.04948,0.050396,-0.084758,32.46,63.9703326257825
19582,-8.247462,-3.710072,4.402196,0.042761,0.056505,-0.091172,32.48,64.0441531066266
19592,-8.244471,-3.722036,4.398008,0.037874,0.061392,-0.097433,32.48,64.0710600230341
19602,-8.240283,-3.728616,4.381258,0.034514,0.065821,-0.103236,32.44,64.1541835796111
19612,-8.216953,-3.732205,4.356134,0.031918,0.069486,-0.105985,32.44,64.2341918368726
19622,-8.209774,-3.728018,4.344768,0.031154,0.072388,-0.105222,32.43,64.2722143178635
19632,-8.192427,-3.743571,4.32742,0.03146,0.074373,-0.104305,32.43,64.3385773521487
19642,-8.178668,-3.74058,4.314259,0.033139,0.075136,-0.101709,32.48,64.3724986736295
19652,-8.172088,-3.748955,4.3005,0.036652,0.074984,-0.096975,32.48,64.4376127130165
19662,-8.163115,-3.759723,4.280162,0.040623,0.074526,-0.090408,32.46,64.5341362363132
19673,-8.146365,-3.752544,4.278367,0.045509,0.072998,-0.083994,32.46,64.4983178320328
19682,-8.158329,-3.751946,4.265206,0.05116,0.070097,-0.075136,32.47,64.5931282626236
19692,-8.139186,-3.772883,4.249653,0.058338,0.06689,-0.064904,32.47,64.6529107797725
19702,-8.148159,-3.768696,4.24726,0.06521,0.059101,-0.04444,32.46,64.6811521297125
19712,-8.150552,-3.761517,4.244269,0.080634,0.054825,-0.033292,32.45,64.6946837376418
19722,-8.149954,-3.760321,4.261617,0.087965,0.049786,-0.024587,32.45,64.6016720371293
19732,-8.163713,-3.756134,4.261617,0.094073,0.045662,-0.014661,32.45,64.6282199731141
19742,-8.175079,-3.752544,4.26401,0.100335,0.04215,-0.006414,32.45,64.6375484665862
19752,-8.175676,-3.750151,4.28076,0.105374,0.037415,0.000764,32.45,64.5493703051274
19762,-8.194819,-3.757928,4.290929,0.10965,0.034514,0.007025,32.45,64.5475829554428
19772,-8.209774,-3.742973,4.302295,0.112246,0.031612,0.010232,32.44,64.5069416078941
19782,-8.219944,-3.74716,4.317849,0.113468,0.029169,0.011759,32.44,64.4536706748615
19792,-8.243872,-3.739383,4.331009,0.113621,0.027031,0.012828,32.42,64.4315831228501
19802,-8.252846,-3.741776,4.34058,0.111788,0.026267,0.011454,32.42,64.4048961469438
19812,-8.258228,-3.725027,4.356732,0.109803,0.025809,0.007941,32.46,64.3169516078082
19822,-8.268997,-3.73041,4.357928,0.105985,0.025809,0.003971,32.46,64.3404975353033
19832,-8.277372,-3.727419,4.378268,0.101098,0.02642,-0.003054,32.45,64.2520398193739
19842,-8.289336,-3.723232,4.390232,0.094684,0.029016,-0.011301,32.45,64.2135353300852
19852,-8.303694,-3.723232,4.404588,0.087506,0.030543,-0.020006,32.41,64.1725730754431
19862,-8.313264,-3.703491,4.398008,0.080023,0.032681,-0.029474,32.41,64.2078299524127
19872,-8.303095,-3.70409,4.412365,0.072235,0.035277,-0.050396,32.45,64.112231760996
19882,-8.309077,-3.725027,4.393223,0.057116,0.040012,-0.060323,32.48,64.2444864453874
19892,-8.292925,-3.719045,4.396214,0.048869,0.041844,-0.071013,32.48,64.1868187197209
19902,-8.29472,-3.705884,4.393821,0.043524,0.044135,-0.079871,32.48,64.1898066569286
19912,-8.280362,-3.705884,4.382454,0.03711,0.046426,-0.087965,32.48,64.2155474012733
19922,-8.283354,-3.719643,4.355535,0.032681,0.046884,-0.094837,32.44,64.3741359424737
19932,-8.255836,-3.719643,4.35075,0.029474,0.0478,-0.100029,32.44,64.3368388024206
19942,-8.252846,-3.726223,4.336392,0.027184,0.048564,-0.104,32.43,64.4106447079012
19952,-8.239087,-3.723232,4.324429,0.02642,0.047953,-0.10568,32.43,64.4383251541435
19962,-8.219944,-3.735196,4.319643,0.027184,0.046884,-0.104916,32.45,64.4321703370856
19972,-8.210373,-3.732205,4.30409,0.028863,0.044746,-0.104611,32.45,64.48798775834
19982,-8.200802,-3.737589,4.282554,0.032834,0.043066,-0.100945,32.44,64.5835652032754
19992,-8.186445,-3.732804,4.281358,0.036805,0.039554,-0.097128,32.44,64.5526376252597
20002,-8.170892,-3.741776,4.267001,0.041692,0.035736,-0.09163,32.42,64.601522542045
20012,-8.15773,-3.737589,4.254438,0.048717,0.032376,-0.083841,32.42,64.6330726403977
20022,-8.164311,-3.747759,4.255635,0.055436,0.028863,-0.0759,32.42,64.6520785307343
20032,-8.149954,-3.734598,4.261019,0.062003,0.024435,-0.066737,32.42,64.5781849589485
20042,-8.154141,-3.744169,4.261019,0.069639,0.020311,-0.056963,32.43,64.5974896569676
20052,-8.152347,-3.742374,4.268795,0.083383,0.012523,-0.038637,32.46,64.5510907870158
20062,-8.164909,-3.735196,4.267001,0.089339,0.009163,-0.030696,32.46,64.5813043703987
20072,-8.166105,-3.735196,4.271787,0.095906,0.006414,-0.022755,32.46,64.5590877425492
20082,-8.17448,-3.725625,4.289135,0.100793,0.003971,-0.016035,32.46,64.4779304199561
20092,-8.172686,-3.729214,4.302295,0.104611,0.002291,-0.010996,32.46,64.4092616204701
20102,-8.181659,-3.734,4.317849,0.10736,0.00168,-0.00733,32.46,64.3538744952048
20112,-8.203793,-3.728616,4.341777,0.108581,0.002902,-0.00336,32.46,64.274723349532
20122,-8.203195,-3.721437,4.348955,0.108429,0.003665,-0.001222,32.46,64.2289494355806
20132,-8.215756,-3.719045,4.367499,0.106596,0.006261,-0.001527,32.42,64.1594495560153
20142,-8.213962,-3.726223,4.383651,0.104458,0.009163,-0.002902,32.42,64.0797041446027
20152,-8.224131,-3.722634,4.400401,0.101098,0.013439,-0.005651,32.48,64.0131606043893
20162,-8.240283,-3.726223,4.406981,0.096059,0.019242,-0.009163,32.48,64.0198896344092
20172,-8.23789,-3.728616,4.411767,0.090713,0.025656,-0.014355,32.48,63.9924107519562
20182,-8.245667,-3.728616,4.428516,0.084758,0.03207,-0.020922,32.48,63.9244749000577
20192,-8.254042,-3.714857,4.4339,0.078343,0.038943,-0.027336,32.48,63.9019220412634
20202,-8.253444,-3.720839,4.432704,0.070708,0.046578,-0.034056,32.48,63.9128066337062
20212,-8.262416,-3.722634,4.421937,0.06353,0.053451,-0.041233,32.46,63.9900337447952
20222,-8.2678,-3.739982,4.423133,0.056963,0.066737,-0.0562,32.46,64.013913011607
20232,-8.247462,-3.719643,4.405187,0.04444,0.073151,-0.062461,32.46,64.0386362538056
20242,-8.258827,-3.741776,4.394419,0.039554,0.078038,-0.06918,32.45,64.142164591817
20252,-8.252846,-3.738786,4.377669,0.035125,0.08262,-0.073915,32.45,64.2113970677114
20262,-8.243275,-3.739383,4.357928,0.031918,0.085827,-0.077122,32.47,64.2917541388851
20272,-8.230712,-3.737589,4.355535,0.030849,0.088117,-0.080481,32.47,64.2738931629308
20282,-8.228318,-3.747759,4.348357,0.030085,0.089034,-0.082467,32.46,64.3158566693674
20292,-8.223534,-3.737589,4.324429,0.030238,0.088728,-0.082772,32.46,64.4179849013188
20302,-8.219944,-3.751348,4.301697,0.032223,0.086896,-0.082925,32.47,64.5413982225246
20312,-8.215756,-3.748955,4.289135,0.034819,0.084299,-0.08094,32.47,64.5945668426859
20322,-8.197212,-3.741179,4.275974,0.038943,0.08094,-0.077122,32.44,64.6133262340185
20332,-8.203793,-3.756732,4.265805,0.042455,0.075747,-0.073304,32.44,64.6967124710009
20342,-8.206783,-3.754339,4.249653,0.0478,0.069791,-0.068111,32.43,64.7848147521894
20352,-8.194221,-3.762115,4.245465,0.053756,0.062003,-0.06353,32.43,64.7865626445152
20362,-8.201998,-3.752544,4.247859,0.059559,0.055131,-0.058185,32.46,64.7816608801349
20372,-8.204989,-3.75075,4.238287,0.065363,0.047189,-0.051924,32.46,64.836273020174
20382,-8.198408,-3.756732,4.234099,0.071013,0.039706,-0.045968,32.43,64.8495271140818
20392,-8.210373,-3.750151,4.251448,0.076816,0.032223,-0.034819,32.43,64.7792172987717
20402,-8.210971,-3.749553,4.252046,0.087048,0.016188,-0.029169,32.45,64.7768338786466
20412,-8.220542,-3.743571,4.259823,0.090713,0.009774,-0.025351,32.48,64.7516926271862
20422,-8.217552,-3.729812,4.266403,0.093768,0.003512,-0.021991,32.48,64.6969266346133
20432,-8.22473,-3.744169,4.292724,0.0956,-0.001527,-0.01909,32.45,64.5911870132772
20442,-8.229516,-3.735196,4.296313,0.096822,-0.005345,-0.017562,32.45,64.5742070426305
20452,-8.239087,-3.724428,4.313063,0.097128,-0.009163,-0.017562,32.43,64.4981846402099
20462,-8.244471,-3.729812,4.328616,0.095142,-0.011301,-0.017868,32.43,64.4355223780373
20472,-8.252846,-3.720839,4.345964,0.093157,-0.011912,-0.019548,32.45,64.3559307976593
20482,-8.257033,-3.71725,4.36391,0.090103,-0.011454,-0.022297,32.45,64.2694946535403
20492,-8.249854,-3.717848,4.371089,0.086285,-0.009316,-0.025962,32.46,64.2170282961171
20502,-8.254042,-3.704688,4.38066,0.082161,-0.006872,-0.030543,32.46,64.1639923506641
20512,-8.257631,-3.713063,4.398606,0.076358,-0.00336,-0.035583,32.46,64.0886874506375
20522,-8.258827,-3.713661,4.391428,0.071777,0.000611,-0.039859,32.46,64.1287684657719
20532,-8.255239,-3.709473,4.409972,0.065363,0.004581,-0.045968,32.42,64.0214191133701
20542,-8.245069,-3.708277,4.405785,0.060018,0.010537,-0.05116,32.42,64.0184908298392
20552,-8.242676,-3.711268,4.402196,0.055131,0.016188,-0.055894,32.45,64.0344921095744
20562,-8.237292,-3.716652,4.395017,0.050702,0.022297,-0.060628,32.45,64.0645619776368
20572,-8.229516,-3.705286,4.388436,0.044135,0.033598,-0.067959,32.46,64.0689869666493
20582,-8.224131,-3.716652,4.385446,0.041081,0.038485,-0.07086,32.46,64.0837541107407
20592,-8.219346,-3.723232,4.371089,0.039248,0.04383,-0.072846,32.46,64.1534333279165
20602,-8.212766,-3.726223,4.354339,0.03879,0.048411,-0.073762,32.44,64.2278091451732
20612,-8.199606,-3.717848,4.353143,0.039095,0.051924,-0.074067,32.44,64.1955065307282
20622,-8.192427,-3.729214,4.339384,0.040164,0.054825,-0.072846,32.44,64.2619514683545
20632,-8.194221,-3.725625,4.333402,0.042761,0.056963,-0.070708,32.44,64.2932212584331
20642,-8.188837,-3.728616,4.313661,0.045509,0.058032,-0.068417,32.42,64.3862347663313
20652,-8.180463,-3.731009,4.305286,0.048411,0.058032,-0.065057,32.42,64.4131722899659
20662,-8.173284,-3.735196,4.296911,0.053451,0.057727,-0.061545,32.43,64.4447183591023
20672,-8.17149,-3.743571,4.301099,0.058643,0.057421,-0.05681,32.43,64.4275898814788
20682,-8.163713,-3.735196,4.28734,0.064294,0.055894,-0.052382,32.43,64.4728216242396
20692,-8.176275,-3.745964,4.288536,0.069486,0.053603,-0.046273,32.43,64.50602800387
20702,-8.17807,-3.744169,4.278367,0.073609,0.052076,-0.040012,32.48,64.5610196321297
20712,-8.166105,-3.738187,4.292724,0.078496,0.049327,-0.034972,32.48,64.4533394202841
20722,-8.170892,-3.741179,4.293322,0.083689,0.047037,-0.031001,32.44,64.4641236314132
20732,-8.188837,-3.744768,4.301099,0.087354,0.043677,-0.027642,32.44,64.4679168789611
20742,-8.195418,-3.745964,4.301099,0.093921,0.038637,-0.0197,32.44,64.4839498682027
20752,-8.209177,-3.734,4.317849,0.0956,0.037568,-0.016799,32.48,64.4159797365373
20762,-8.215158,-3.735196,4.314857,0.096211,0.036346,-0.015424,32.48,64.4461288301046
20772,-8.221141,-3.734,4.325027,0.096364,0.03543,-0.014966,32.44,64.4058456964547
20782,-8.229516,-3.725625,4.346562,0.095142,0.034208,-0.014508,32.44,64.3051348898509
20792,-8.240283,-3.716054,4.356732,0.094073,0.034972,-0.016493,32.43,64.267342445218
20802,-8.225926,-3.725027,4.357928,0.09163,0.035736,-0.019548,32.43,64.2378939747871
20812,-8.239684,-3.725027,4.365705,0.087201,0.037721,-0.021228,32.45,64.2290153321105
20822,-8.246863,-3.719643,4.376472,0.082772,0.039401,-0.024587,32.45,64.1844620732556
20832,-8.257631,-3.718446,4.369295,0.078191,0.041233,-0.029322,32.43,64.2444161840885
20842,-8.260024,-3.725027,4.383053,0.072846,0.043219,-0.034667,32.43,64.1859661159683
20852,-8.25165,-3.726223,4.382454,0.068111,0.046578,-0.039248,32.47,64.1713257310638
20862,-8.260024,-3.725625,4.386044,0.062919,0.049938,-0.043524,32.47,64.1712511008936
20872,-8.270791,-3.726223,4.371089,0.05681,0.051924,-0.049175,32.47,64.2727865361672
20882,-8.256434,-3.728616,4.366303,0.052076,0.053756,-0.054062,32.47,64.2674178467098
20892,-8.263614,-3.729214,4.366901,0.047495,0.056047,-0.058643,32.44,64.2811361192829
20902,-8.2678,-3.728616,4.367499,0.042761,0.057269,-0.064141,32.44,64.2868868573684
20912,-8.260622,-3.72383,4.34058,0.039706,0.05849,-0.070555,32.47,64.4041390867864
20922,-8.25464,-3.73041,4.337589,0.035583,0.057879,-0.073609,32.49,64.4127614043599
20932,-8.25165,-3.726821,4.323233,0.034819,0.0562,-0.075136,32.49,64.4763370298318
20942,-8.247462,-3.72383,4.308277,0.03375,0.053145,-0.076816,32.46,64.5410586419829
20952,-8.23131,-3.737589,4.308277,0.03543,0.050549,-0.076511,32.46,64.5188285995628
20962,-8.226524,-3.726821,4.296911,0.036805,0.047342,-0.074984,32.45,64.5559038302996
20972,-8.227122,-3.733402,4.286144,0.039095,0.042455,-0.073915,32.45,64.6196424667139
20982,-8.221739,-3.748357,4.281956,0.04215,0.03711,-0.072998,32.45,64.6444968854597
20992,-8.221141,-3.739982,4.268795,0.046273,0.031612,-0.070097,32.45,64.702847001972
21002,-8.212168,-3.743571,4.272983,0.05116,0.026573,-0.065363,32.48,64.6647461683442
21012,-8.19781,-3.735196,4.264608,0.055436,0.020617,-0.062461,32.48,64.667577387178
21022,-8.212766,-3.737589,4.269393,0.059865,0.015272,-0.058338,32.45,64.6786164671972
21032,-8.210971,-3.739383,4.267001,0.064752,0.009621,-0.054062,32.45,64.6888429969754
21042,-8.199606,-3.739982,4.271188,0.069028,0.004276,-0.050244,32.47,64.6423073667841
21052,-8.200802,-3.738786,4.27717,0.073609,0,-0.045815,32.47,64.6127176348548
21062,-8.19781,-3.741179,4.288536,0.077885,-0.003512,-0.040928,32.44,64.5495075593178
21072,-8.200802,-3.741179,4.305884,0.08094,-0.006872,-0.038332,32.44,64.4663714560908
21082,-8.198408,-3.739982,4.315455,0.083841,-0.00901,-0.033445,32.46,64.4102341678191
21092,-8.198408,-3.726223,4.326822,0.087201,-0.009621,-0.031307,32.43,64.3373183003411
21102,-8.194221,-3.736392,4.336991,0.087812,-0.008705,-0.029627,32.43,64.2857785954755
21112,-8.192427,-3.733402,4.352544,0.087354,-0.007025,-0.028558,32.43,64.1983495554779
21122,-8.218747,-3.726223,4.359723,0.086896,-0.003512,-0.028558,32.43,64.2136300663316
21132,-8.200203,-3.723232,4.377071,0.085216,0.000153,-0.029016,32.44,64.0791379297468
21142,-8.206783,-3.738187,4.387838,0.083078,0.004887,-0.029932,32.44,64.0542329113974
21152,-8.210971,-3.724428,4.392026,0.080481,0.010996,-0.030849,32.45,64.0280170129068
21162,-8.225328,-3.715455,4.391428,0.076969,0.017562,-0.033445,32.45,64.0545327193288
21172,-8.206185,-3.720839,4.398606,0.073915,0.023976,-0.036041,32.44,63.979596783351
21182,-8.210373,-3.732205,4.401597,0.071319,0.031154,-0.038026,32.44,63.9855703664801
21192,-8.22473,-3.726223,4.399205,0.067653,0.037721,-0.04047,32.46,64.0243577406523
21202,-8.218149,-3.73041,4.406981,0.063683,0.045357,-0.042761,32.46,63.9738248587041
21212,-8.218747,-3.732205,4.403392,0.059712,0.051924,-0.045662,32.44,63.9954440043907
21222,-8.218747,-3.723232,4.395017,0.056963,0.058338,-0.047647,32.44,64.0291381891487
21232,-8.224131,-3.735795,4.384848,0.053909,0.064294,-0.050396,32.42,64.1065262784211
21242,-8.219944,-3.736392,4.39083,0.051618,0.06918,-0.052534,32.42,64.0669325195486
21253,-8.219346,-3.735795,4.368696,0.04948,0.075747,-0.055131,32.41,64.1786637642759
21262,-8.212168,-3.745964,4.347161,0.049786,0.078343,-0.054367,32.41,64.2837502857861
21272,-8.221141,-3.742374,4.332206,0.049327,0.079412,-0.05452,32.46,64.3773797047869
21282,-8.227122,-3.738786,4.326224,0.050091,0.079718,-0.053756,32.41,64.4180151927055
21292,-8.21157,-3.738187,4.314857,0.051313,0.077733,-0.05452,32.41,64.4411189140639
21302,-8.216354,-3.753741,4.310072,0.052534,0.076511,-0.053603,32.46,64.4925205041855
21312,-8.215756,-3.742374,4.301697,0.055131,0.074067,-0.051618,32.46,64.5228446373373
21322,-8.213962,-3.749553,4.298706,0.057269,0.070708,-0.049022,32.45,64.5416326108219
21332,-8.210971,-3.739383,4.287939,0.059407,0.066737,-0.046884,32.45,64.5802794878643
21342,-8.212766,-3.74058,4.274179,0.063683,0.062461,-0.043982,32.39,64.6568347154303
21352,-8.209177,-3.750151,4.272983,0.066432,0.057269,-0.040928,32.39,64.6647723459984
21362,-8.215756,-3.749553,4.271188,0.06918,0.051465,-0.038485,32.46,64.6881550357213
21372,-8.209774,-3.748357,4.276572,0.072388,0.046578,-0.036805,32.46,64.6456659928751
21382,-8.222337,-3.746562,4.278367,0.073915,0.041233,-0.033598,32.43,64.6625926653384
21392,-8.209177,-3.745365,4.284349,0.077122,0.035583,-0.032223,32.43,64.6009681054224
21402,-8.228318,-3.736991,4.294518,0.078954,0.031765,-0.029474,32.45,64.5826327669647
21412,-8.228318,-3.737589,4.30409,0.080023,0.027794,-0.0281,32.45,64.5337548058791
21422,-8.236693,-3.739383,4.308876,0.080176,0.023366,-0.027489,32.44,64.5296192594099
21432,-8.2349,-3.735795,4.328018,0.081398,0.01909,-0.025809,32.44,64.4231932526419
21442,-8.246863,-3.732804,4.328616,0.079412,0.017715,-0.026878,32.48,64.443931735175
21452,-8.237292,-3.723232,4.337589,0.078496,0.017257,-0.027642,32.47,64.3664505099864
21462,-8.234302,-3.735795,4.347759,0.076358,0.016646,-0.029169,32.47,64.3201631838935
21472,-8.248658,-3.720241,4.345366,0.073915,0.017562,-0.031918,32.45,64.34896978369
21482,-8.251051,-3.725625,4.362714,0.070708,0.018631,-0.035277,32.45,64.2706595878108
21492,-8.248658,-3.712464,4.36391,0.067959,0.020311,-0.038485,32.46,64.2457145034688
21502,-8.245069,-3.712464,4.371687,0.06521,0.022755,-0.041844,32.46,64.1976441118123
21512,-8.243275,-3.723232,4.360321,0.062003,0.024893,-0.045509,32.44,64.2629657339098
21522,-8.252247,-3.713063,4.37408,0.058643,0.027031,-0.049938,32.44,64.202213988331
21532,-8.257033,-3.719643,4.365107,0.055436,0.029016,-0.053909,32.44,64.265780353135
21542,-8.258827,-3.718446,4.369295,0.052534,0.031154,-0.057269,32.44,64.2471161540089
21552,-8.257033,-3.714259,4.36391,0.051007,0.033139,-0.061087,32.47,64.2664569396625
21562,-8.258228,-3.715455,4.355535,0.047953,0.034208,-0.064904,32.47,64.3133869851158
21572,-8.251051,-3.719045,4.347161,0.046731,0.036194,-0.066737,32.44,64.3439106597177
21582,-8.245667,-3.715455,4.336392,0.044899,0.03543,-0.071013,32.44,64.3835745312488
21592,-8.244471,-3.721437,4.321437,0.04444,0.035888,-0.072388,32.48,64.4640305600491
21602,-8.228917,-3.731009,4.317849,0.044746,0.034819,-0.076053,32.48,64.4573324561328
21612,-8.225328,-3.719045,4.308876,0.046884,0.031612,-0.076358,32.47,64.4834437242736
21622,-8.225328,-3.728018,4.316054,0.048258,0.029932,-0.075442,32.43,64.4554871100614
21632,-8.223534,-3.726223,4.307081,0.050396,0.026878,-0.074373,32.43,64.4959928476964
21642,-8.215158,-3.729214,4.293921,0.052993,0.023824,-0.072846,32.45,64.5483192108378
