t_ms,ax,ay,az,gx,gy,gz,temp,ang_deg
12,-8.156534,-3.698706,4.380062,0.029322,0.189674,0.08323,32.53,63.9383174348642
22,-8.181659,-3.708875,4.384848,0.031154,0.194102,0.08659,32.5,63.9818722899201
32,-8.213962,-3.711866,4.372883,0.031765,0.196546,0.088575,32.5,64.1202878877783
42,-8.248059,-3.71067,4.368098,0.032223,0.197004,0.08827,32.55,64.2210183572442
52,-8.258827,-3.713063,4.338786,0.031001,0.194561,0.088117,32.55,64.3984403417433
62,-8.287541,-3.720241,4.328616,0.030849,0.191048,0.085674,32.51,64.5223407312546
72,-8.312666,-3.732205,4.313661,0.029016,0.183565,0.081551,32.51,64.6670825205073
82,-8.342576,-3.734598,4.289135,0.026878,0.173791,0.076816,32.5,64.8615235553679
92,-8.36112,-3.744768,4.27059,0.024435,0.161268,0.070097,32.5,65.0074505191167
102,-8.379665,-3.74716,4.249055,0.021686,0.144622,0.060476,32.52,65.1608603088057
112,-8.401799,-3.754937,4.237689,0.018784,0.125227,0.050855,32.52,65.2747341353256
122,-8.423334,-3.765106,4.219743,0.016493,0.103542,0.039401,32.5,65.423031211895
132,-8.427522,-3.77049,4.203591,0.014203,0.079412,0.027031,32.5,65.5201368058211
142,-8.434101,-3.782454,4.198806,0.011606,0.028253,-0.002291,32.47,65.5701923356911
152,-8.446067,-3.783651,4.188038,0.00733,0.001527,-0.015882,32.5,65.6521026396931
162,-8.44128,-3.796213,4.188636,0.005498,-0.025045,-0.028558,32.5,65.650836144349
172,-8.42453,-3.807579,4.191627,0.003818,-0.051007,-0.041692,32.54,65.6107909884567
182,-8.399406,-3.808775,4.180261,0.003054,-0.076511,-0.054367,32.54,65.6170392764766
192,-8.390432,-3.813561,4.179065,0.00168,-0.100793,-0.065057,32.53,65.6087315545589
202,-8.35454,-3.823731,4.19402,0.001069,-0.124006,-0.073609,32.53,65.4648496655281
212,-8.323434,-3.826722,4.197011,0.000764,-0.14615,-0.07926,32.5,65.3855661876382
222,-8.297112,-3.826123,4.210171,0.000305,-0.165544,-0.083689,32.5,65.260115688837
232,-8.259426,-3.845266,4.221537,0.000916,-0.183565,-0.085368,32.51,65.1387769220416
242,-8.230712,-3.842275,4.253242,0.00168,-0.196699,-0.083689,32.51,64.908906313287
252,-8.196015,-3.841677,4.266403,0.003207,-0.207541,-0.080634,32.51,64.7637364309495
262,-8.154141,-3.832105,4.281358,0.004429,-0.214566,-0.074678,32.51,64.5832477323722
272,-8.127223,-3.839882,4.314259,0.005192,-0.217621,-0.066432,32.52,64.3605976863552
282,-8.09791,-3.838686,4.335197,0.00672,-0.216246,-0.057269,32.52,64.1846984329521
292,-8.07817,-3.828516,4.366901,0.007483,-0.211207,-0.047953,32.54,63.964680739326
302,-8.047661,-3.809972,4.418945,0.008247,-0.202502,-0.038637,32.54,63.6052948569
312,-8.013563,-3.812365,4.447061,0.008094,-0.190743,-0.018937,32.54,63.3835062518706
322,-8.014161,-3.812365,4.476971,0.005345,-0.154702,-0.01069,32.49,63.2307656265556
332,-8.006983,-3.789035,4.498507,0.003818,-0.132405,-0.002902,32.49,63.0770562234919
342,-8.007581,-3.779463,4.523033,0.000153,-0.108123,0.002596,32.52,62.9417840500868
352,-8.019545,-3.77408,4.557131,-0.003054,-0.080481,0.007636,32.52,62.7895107596688
363,-8.03809,-3.767499,4.563711,-0.008399,-0.051924,0.010232,32.52,62.7926360826571
372,-8.043473,-3.759125,4.574479,-0.013286,-0.024129,0.008705,32.52,62.7411758269172
382,-8.057232,-3.759723,4.582255,-0.018784,0.005651,0.007483,32.5,62.7349510677034
392,-8.08475,-3.742973,4.581059,-0.024282,0.032987,0.002902,32.5,62.787915412456
402,-8.105686,-3.737589,4.588835,-0.030849,0.06017,-0.003054,32.48,62.7921565378066
412,-8.122437,-3.732205,4.570889,-0.036041,0.085368,-0.010232,32.48,62.9170708335105
422,-8.143373,-3.726223,4.548756,-0.041386,0.108276,-0.019395,32.5,63.0724272175665
432,-8.165507,-3.722036,4.544569,-0.045968,0.129503,-0.027947,32.5,63.1411390492231
442,-8.180463,-3.720241,4.518846,-0.049938,0.14844,-0.037874,32.55,63.3049675292065
452,-8.183454,-3.713063,4.493123,-0.051924,0.163559,-0.047037,32.55,63.4353942553577
462,-8.190034,-3.709473,4.457231,-0.052993,0.176235,-0.055283,32.5,63.6302042607114
472,-8.199606,-3.711268,4.430311,-0.051618,0.186008,-0.061087,32.5,63.7919578813622
482,-8.197212,-3.705884,4.359723,-0.048717,0.191659,-0.066584,32.54,64.1438018522021
492,-8.201998,-3.713063,4.324429,-0.038637,0.193644,-0.07086,32.53,64.3443082975025
502,-8.204989,-3.713661,4.299304,-0.031307,0.190132,-0.069791,32.53,64.4817200911129
512,-8.193623,-3.71067,4.269992,-0.023366,0.184329,-0.066737,32.46,64.6052136768647
522,-8.184649,-3.724428,4.250251,-0.013897,0.176082,-0.061545,32.46,64.701808560305
532,-8.189436,-3.71725,4.239483,-0.004276,0.167072,-0.054062,32.51,64.761327271668
542,-8.176275,-3.729812,4.209573,0.006261,0.156992,-0.044288,32.51,64.9008473047752
552,-8.176873,-3.738187,4.195815,0.016341,0.14508,-0.032376,32.51,64.9826495442816
562,-8.170892,-3.737589,4.185645,0.026573,0.130878,-0.020617,32.51,65.0220160451725
572,-8.179267,-3.738786,4.173681,0.036194,0.117133,-0.006872,32.54,65.1044899293094
582,-8.196614,-3.757928,4.171288,0.045815,0.102931,0.006414,32.54,65.174643177444
592,-8.199007,-3.755535,4.17069,0.053145,0.08827,0.020006,32.52,65.1806262411333
602,-8.206185,-3.761517,4.171886,0.060323,0.07254,0.03207,32.52,65.1961801101549
612,-8.213962,-3.769294,4.174279,0.06521,0.05849,0.04444,32.49,65.2085738697339
622,-8.233105,-3.766901,4.181458,0.070097,0.043066,0.054367,32.49,65.2106536564501
632,-8.249854,-3.776472,4.194618,0.073151,0.028253,0.063072,32.51,65.1883460227305
642,-8.263015,-3.778267,4.197011,0.074373,0.012523,0.069944,32.51,65.2064561385039
652,-8.28156,-3.795017,4.22393,0.074526,-0.00336,0.074678,32.51,65.124044456045
662,-8.299506,-3.792624,4.235895,0.073609,-0.033903,0.079565,32.51,65.0989324345227
672,-8.315658,-3.799204,4.251448,0.068722,-0.048869,0.077885,32.52,65.0604609251253
682,-8.329416,-3.808775,4.256832,0.064294,-0.062919,0.074831,32.51,65.0722148107612
692,-8.338388,-3.821936,4.283751,0.058338,-0.077733,0.069486,32.51,64.9665836126055
702,-8.35454,-3.816552,4.299304,0.052687,-0.090713,0.061545,32.51,64.916725078824
712,-8.35813,-3.825525,4.308876,0.045815,-0.102931,0.051465,32.51,64.8845361497255
722,-8.368897,-3.822534,4.332804,0.039706,-0.114537,0.038637,32.49,64.782913945785
732,-8.356933,-3.826722,4.338188,0.03207,-0.124922,0.02474,32.49,64.7335072691916
742,-8.356335,-3.831507,4.359723,0.02474,-0.134238,0.008705,32.5,64.6273205617094
752,-8.343175,-3.832704,4.375875,0.018173,-0.141415,-0.006414,32.5,64.5174416227434
762,-8.34796,-3.823133,4.396811,0.010232,-0.144775,-0.023671,32.5,64.411943002358
772,-8.3348,-3.829713,4.407579,0.003512,-0.147219,-0.041233,32.5,64.3348483468946
782,-8.310272,-3.834498,4.419543,-0.002902,-0.146913,-0.05849,32.49,64.2245442334179
792,-8.274979,-3.817749,4.441677,-0.009163,-0.143706,-0.074831,32.49,64.015896733724
802,-8.247462,-3.814758,4.451847,-0.01573,-0.138056,-0.089186,32.54,63.8990503723411
812,-8.227122,-3.828516,4.466802,-0.022144,-0.130114,-0.102625,32.54,63.7914161872875
822,-8.200203,-3.833302,4.461418,-0.027794,-0.119271,-0.114232,32.54,63.7627428487814
832,-8.135597,-3.818347,4.469195,-0.031918,-0.106596,-0.131183,32.54,63.5592645391772
842,-8.099107,-3.826722,4.465605,-0.037263,-0.078496,-0.136376,32.53,63.5026134415548
852,-8.079964,-3.821338,4.453641,-0.037721,-0.06353,-0.136987,32.5,63.5138539508253
862,-8.047063,-3.820141,4.435097,-0.036805,-0.048411,-0.135459,32.5,63.5317556736022
872,-8.021938,-3.796811,4.427918,-0.03375,-0.032987,-0.131183,32.5,63.4846962487417
882,-8.003393,-3.796213,4.409972,-0.028405,-0.018326,-0.122937,32.5,63.5336950901825
892,-7.977671,-3.78724,4.400999,-0.022297,-0.00336,-0.112246,32.52,63.5102440977282
902,-7.975278,-3.789633,4.382454,-0.014966,0.009468,-0.098197,32.52,63.6037753141164
912,-7.956135,-3.787838,4.375276,-0.006414,0.021686,-0.083689,32.54,63.5944653086886
922,-7.95793,-3.777071,4.374678,0.003971,0.032681,-0.064904,32.54,63.589809791464
932,-7.954341,-3.766303,4.357928,0.012828,0.043371,-0.047647,32.53,63.6569471210647
942,-7.947162,-3.762115,4.359723,0.021991,0.052993,-0.029169,32.53,63.6261041963563
952,-7.977072,-3.763312,4.372285,0.030543,0.062766,-0.009927,32.51,63.631840912732
962,-7.989037,-3.748357,4.380062,0.038332,0.072998,0.008705,32.51,63.6028380373161
972,-7.98784,-3.73041,4.383053,0.044746,0.083841,0.026878,32.52,63.5647559140786
992,-8.050652,-3.707679,4.429713,0.051924,0.104763,0.055741,32.51,63.4452285685982
1002,-8.120642,-3.7005,4.429713,0.05284,0.115759,0.066279,32.51,63.6011329970455
1012,-8.148159,-3.696313,4.442276,0.047189,0.136681,0.079412,32.54,63.5960510938803
1022,-8.182856,-3.686144,4.442873,0.042761,0.147066,0.079565,32.53,63.6627760577621
1032,-8.216953,-3.68375,4.445267,0.037263,0.156076,0.077427,32.53,63.7267746416191
1042,-8.264212,-3.680161,4.441677,0.030085,0.162948,0.072846,32.51,63.8499748698764
1052,-8.295319,-3.681956,4.436294,0.022907,0.167377,0.063835,32.51,63.9502553185127
1062,-8.322237,-3.687938,4.421937,0.015424,0.17089,0.051313,32.51,64.09049203691
1072,-8.345568,-3.689135,4.408178,0.008247,0.171653,0.038026,32.51,64.2143716077814
1082,-8.367702,-3.692126,4.38724,0.002596,0.169668,0.023213,32.5,64.3735779864504
1092,-8.379665,-3.703491,4.366901,-0.001985,0.164628,0.00733,32.5,64.5150349599335
1102,-8.388638,-3.703491,4.339384,-0.005498,0.156382,-0.008552,32.55,64.6752711868696
1112,-8.385049,-3.713063,4.313063,-0.007483,0.144622,-0.024587,32.55,64.8112066819213
1122,-8.391629,-3.728616,4.298706,-0.008247,0.130878,-0.038637,32.54,64.914256441805
1132,-8.376674,-3.738786,4.262215,-0.006872,0.115148,-0.051465,32.54,65.0785868108095
1142,-8.377273,-3.744768,4.246662,-0.004123,0.097738,-0.063377,32.52,65.1656440221501
1152,-8.360522,-3.764508,4.229314,-0.000611,0.078649,-0.072998,32.52,65.2378128546474
1162,-8.344371,-3.767499,4.213761,0.004276,0.059254,-0.078343,32.54,65.2859690128587
1172,-8.298308,-3.796811,4.193422,0.010232,0.038637,-0.081856,32.54,65.3202819290348
1182,-8.277969,-3.808775,4.186243,0.022297,-0.001527,-0.081551,32.49,65.3253541523774
1192,-8.25464,-3.815954,4.174878,0.029016,-0.020769,-0.07758,32.5,65.34103508117
1202,-8.226524,-3.82732,4.185645,0.035736,-0.039401,-0.071166,32.5,65.235345875626
1212,-8.206783,-3.827918,4.191029,0.041844,-0.056963,-0.062919,32.55,65.1648401786195
1222,-8.199007,-3.839284,4.198207,0.047037,-0.072388,-0.052687,32.55,65.1220564797764
1232,-8.176873,-3.835695,4.208975,0.05116,-0.086285,-0.042913,32.52,65.0137201061106
1242,-8.175079,-3.845266,4.22393,0.054672,-0.098349,-0.032681,32.52,64.9417773577371
1252,-8.149954,-3.858427,4.243073,0.059254,-0.108734,-0.020922,32.51,64.8004230314964
1262,-8.146963,-3.860819,4.254438,0.06185,-0.115759,-0.010232,32.51,64.7372106798227
1272,-8.156534,-3.85065,4.281956,0.062461,-0.121715,-0.001374,32.52,64.6049433076323
1283,-8.151749,-3.866802,4.294518,0.063225,-0.125227,0.007178,32.52,64.5462267146638
1292,-8.147561,-3.849453,4.310072,0.062461,-0.127518,0.013134,32.49,64.4380380651801
1302,-8.149954,-3.849453,4.33041,0.061087,-0.128282,0.017868,32.49,64.3382612144699
1312,-8.162517,-3.856034,4.347759,0.058796,-0.128129,0.020769,32.51,64.283931159821
1322,-8.176275,-3.847061,4.355535,0.056963,-0.125991,0.023213,32.51,64.2652737274922
1332,-8.17807,-3.842275,4.383053,0.054214,-0.123242,0.022755,32.5,64.1228281507742
1342,-8.176275,-3.82732,4.425525,0.049786,-0.11973,0.01909,32.5,63.8852240096912
1352,-8.179267,-3.832105,4.453043,0.045051,-0.108581,0.009927,32.56,63.7565119295712
1362,-8.199007,-3.821338,4.4674,0.035277,-0.100335,0.002443,32.56,63.716844543367
1372,-8.188837,-3.814758,4.486543,0.028558,-0.090713,-0.007636,32.56,63.5891685129947
1382,-8.193025,-3.802195,4.492525,0.020769,-0.079412,-0.019548,32.54,63.5549513791827
1392,-8.190034,-3.789633,4.499703,0.012981,-0.067653,-0.031612,32.54,63.4982029006783
1402,-8.199007,-3.78066,4.512863,0.004429,-0.053909,-0.043524,32.55,63.4424538006194
1412,-8.189436,-3.767499,4.523632,-0.004429,-0.038485,-0.055589,32.55,63.3516684196703
1422,-8.182258,-3.772883,4.532604,-0.013592,-0.022755,-0.067195,32.54,63.2952423957333
1432,-8.166105,-3.759125,4.531408,-0.021991,-0.005651,-0.079107,32.54,63.2490764169094
1442,-8.161918,-3.755535,4.528417,-0.028863,0.010996,-0.088423,32.54,63.2506896859955
1452,-8.143373,-3.750151,4.52064,-0.034361,0.028711,-0.095753,32.54,63.2412702926153
1462,-8.134401,-3.726223,4.511667,-0.039706,0.045968,-0.100793,32.49,63.2403825167143
1472,-8.105088,-3.739982,4.488935,-0.041692,0.063072,-0.103542,32.49,63.302852286636
1482,-8.094321,-3.72383,4.479364,-0.041997,0.079718,-0.102778,32.49,63.309290457908
1492,-8.073383,-3.734,4.444668,-0.04047,0.094379,-0.099876,32.49,63.4497243046902
1502,-8.059027,-3.725027,4.427918,-0.036652,0.109192,-0.09331,32.5,63.4928983855606
1512,-8.041678,-3.720241,4.386044,-0.03146,0.122326,-0.08491,32.5,63.6641349168311
1522,-8.0345,-3.710072,4.365705,-0.022602,0.133169,-0.058185,32.55,63.7421979574192
1532,-8.036295,-3.724428,4.348955,-0.001985,0.150273,-0.04215,32.5,63.8490904401062
1542,-8.030313,-3.717848,4.329215,0.010385,0.155923,-0.02474,32.5,63.9311432108157
1552,-8.050652,-3.731009,4.307679,0.023518,0.159436,-0.007636,32.51,64.1047473402891
1562,-8.059027,-3.715455,4.298706,0.036652,0.161116,0.010537,32.51,64.1543811649864
1572,-8.07817,-3.718446,4.292724,0.048258,0.161879,0.027336,32.47,64.2327632947101
1582,-8.098508,-3.719045,4.290331,0.058796,0.160658,0.042302,32.47,64.2924118240063
1592,-8.133802,-3.713063,4.301099,0.069333,0.159894,0.056047,32.47,64.3105306867825
1602,-8.151151,-3.714259,4.282554,0.076969,0.156229,0.067348,32.47,64.4477004019067
1612,-8.194221,-3.715455,4.294518,0.082467,0.152258,0.075595,32.55,64.484091063945
1622,-8.233105,-3.714259,4.292126,0.08491,0.147219,0.080023,32.55,64.5826834966187
1632,-8.260622,-3.711866,4.28734,0.086743,0.140499,0.082467,32.52,64.6665721649128
1642,-8.286943,-3.722634,4.295715,0.086896,0.131336,0.08094,32.52,64.6927525856996
1652,-8.317451,-3.719045,4.295715,0.084758,0.121257,0.076969,32.5,64.7568761154233
1662,-8.35155,-3.733402,4.304688,0.081092,0.109956,0.067501,32.5,64.800276635387
1672,-8.368299,-3.734,4.295715,0.076053,0.097738,0.057421,32.47,64.8836926847332
1682,-8.39821,-3.739982,4.298706,0.06918,0.082772,0.04444,32.47,64.939706217257
1692,-8.422137,-3.751348,4.288536,0.062308,0.068111,0.029474,32.53,65.0548196134115
1702,-8.422137,-3.760919,4.284349,0.047495,0.035888,-0.00336,32.53,65.0854700503145
1712,-8.422735,-3.765705,4.28076,0.040012,0.018937,-0.019853,32.48,65.109735409035
1722,-8.421539,-3.77408,4.288536,0.033292,0.001374,-0.037263,32.52,65.0755421953755
1732,-8.402397,-3.788436,4.284349,0.026725,-0.016799,-0.052534,32.52,65.0694528165635
1742,-8.38804,-3.787838,4.279563,0.020769,-0.03375,-0.066737,32.54,65.0622282814139
1752,-8.374879,-3.793222,4.275376,0.016493,-0.049938,-0.079412,32.54,65.0603972277029
1762,-8.334201,-3.796811,4.269393,0.013134,-0.065515,-0.089644,32.5,65.0061568384621
1772,-8.318647,-3.816552,4.271188,0.010385,-0.079718,-0.097586,32.5,64.9826955325354
1782,-8.194819,-4.735396,4.465007,0.010385,-0.092393,-0.104611,32.5,64.7440460099891
1792,-8.039885,-5.161917,4.536791,0.055283,-0.109956,-0.151495,32.5,64.5996885409519
1802,-8.231908,-3.809374,4.25384,0.092393,-0.116828,-0.179747,32.53,64.8748085502078
1812,-8.16132,-3.748955,4.229314,0.097128,-0.129503,-0.172722,32.53,64.7838845138946
1822,-8.148159,-3.869194,4.268198,0.101556,-0.140499,-0.16249,32.53,64.6772052499945
1832,-8.079366,-3.803392,4.25384,0.109956,-0.149815,-0.145997,32.53,64.5286123388023
1842,-8.065607,-3.766303,4.26401,0.118661,-0.155465,-0.126296,32.52,64.4049079098875
1852,-8.022536,-3.815356,4.277769,0.125991,-0.158825,-0.10568,32.52,64.2874865663339
1862,-8.001,-3.743571,4.303492,0.133932,-0.157298,-0.082009,32.51,64.0255905259311
1872,-7.984849,-3.769294,4.336392,0.142026,-0.149662,-0.033139,32.51,63.8439448861361
1882,-7.97109,-3.744768,4.351348,0.155465,-0.14111,-0.008858,32.52,63.7067725339756
1892,-7.975278,-3.720241,4.386044,0.161421,-0.129809,0.013134,32.51,63.5084633316005
1902,-7.975278,-3.722036,4.411169,0.165086,-0.116828,0.032529,32.51,63.379560047926
1912,-8.00818,-3.7005,4.435695,0.168141,-0.101709,0.04948,32.52,63.3063356448377
1922,-8.01476,-3.675375,4.46082,0.169515,-0.085368,0.062919,32.52,63.1643831161882
1932,-8.04467,-3.676572,4.496712,0.169668,-0.066737,0.07086,32.5,63.0516400314634
1942,-8.05783,-3.659822,4.516453,0.168446,-0.047953,0.075747,32.5,62.9633110375689
1952,-8.07458,-3.646064,4.546961,0.16417,-0.027336,0.075595,32.51,62.8320252214083
1962,-8.107481,-3.635894,4.575675,0.158825,-0.005651,0.069791,32.51,62.7531866958283
1972,-8.132606,-3.631108,4.592425,0.152411,0.017257,0.059865,32.53,62.7229579343053
1982,-8.146365,-3.597609,4.614559,0.143859,0.040775,0.046884,32.53,62.6079072385739
1992,-8.175079,-3.609573,4.63729,0.134848,0.065821,0.029932,32.54,62.5744789861332
2002,-8.190632,-3.601198,4.65404,0.12538,0.090561,0.008858,32.54,62.5184222856413
2012,-8.212168,-3.588037,4.657629,0.113774,0.116064,-0.01405,32.54,62.5381650082551
2022,-8.224131,-3.586243,4.668995,0.101098,0.141263,-0.039554,32.54,62.5078008559019
2032,-8.235497,-3.588636,4.659424,0.089186,0.166919,-0.065973,32.52,62.5856004332356
2042,-8.247462,-3.586243,4.652246,0.076816,0.191659,-0.115912,32.52,62.647750468652
2052,-8.23789,-3.58385,4.615157,0.054672,0.238696,-0.140041,32.53,62.8092644468362
2062,-8.240283,-3.585046,4.604987,0.045662,0.260687,-0.161727,32.53,62.8675208209959
2072,-8.230712,-3.604787,4.575675,0.03879,0.280082,-0.180816,32.53,63.0134826829281
2082,-8.228917,-3.611966,4.51406,0.033292,0.295812,-0.197462,32.56,63.3294998293899
2092,-8.239087,-3.619144,4.499703,0.029627,0.30864,-0.209527,32.56,63.4337389366373
2102,-8.181061,-3.61077,4.412365,0.027794,0.31933,-0.217621,32.54,63.7374441704831
2112,-8.225328,-3.680759,4.424927,0.028863,0.324675,-0.22266,32.54,63.8470885809561
2122,-8.203793,-3.645465,4.348357,0.03146,0.32666,-0.222966,32.54,64.1556905897235
2132,-8.21157,-3.675375,4.311867,0.035736,0.323148,-0.221439,32.54,64.3925774787722
2142,-8.199007,-3.68734,4.267599,0.041386,0.317039,-0.21365,32.53,64.6060813714845
2152,-8.218149,-3.716054,4.246662,0.049327,0.306196,-0.205251,32.53,64.7868901254063
2162,-8.194221,-3.71067,4.183851,0.056963,0.291077,-0.193797,32.51,65.0559964006026
2172,-8.221739,-3.75075,4.177869,0.064752,0.273209,-0.181274,32.51,65.1882646858943
2182,-8.213365,-3.744169,4.135396,0.074526,0.252287,-0.165697,32.5,65.3856765260242
2192,-8.23789,-3.777071,4.112664,0.083078,0.228158,-0.150426,32.5,65.5909458724001
2203,-8.23131,-3.785445,4.082754,0.093462,0.200517,-0.134848,32.55,65.7420610533963
2212,-8.239684,-3.809972,4.073781,0.103694,0.172264,-0.119271,32.55,65.8314574565383
2222,-8.256434,-3.833302,4.076173,0.121868,0.111788,-0.089644,32.56,65.8777338165581
2232,-8.268997,-3.838088,4.082156,0.131031,0.081551,-0.074831,32.49,65.8778487205684
2242,-8.282756,-3.855436,4.088736,0.138361,0.051771,-0.064141,32.49,65.8897674764118
2252,-8.280961,-3.852444,4.115057,0.14447,0.024129,-0.054214,32.52,65.7456035568219
2262,-8.294122,-3.866802,4.14078,0.148288,0.000153,-0.046426,32.52,65.6539853689503
2272,-8.286345,-3.871587,4.16411,0.150731,-0.021838,-0.040623,32.5,65.5209939392374
2282,-8.295916,-3.884149,4.193422,0.150426,-0.04047,-0.038026,32.5,65.4022457763487
2292,-8.29472,-3.881757,4.224528,0.149051,-0.055589,-0.036957,32.5,65.2366088819616
2302,-8.295916,-3.896114,4.24726,0.145386,-0.069639,-0.038332,32.5,65.1365812460309
2312,-8.300103,-3.887738,4.272983,0.140652,-0.080481,-0.041692,32.5,65.0049060414194
2322,-8.290532,-3.896712,4.299902,0.135307,-0.089644,-0.04612,32.5,64.8551591247021
2332,-8.300702,-3.892524,4.308876,0.129962,-0.096059,-0.051924,32.48,64.8270593315033
2342,-8.282756,-3.888935,4.334,0.123853,-0.101862,-0.057879,32.48,64.6556105875536
2352,-8.280362,-3.888337,4.346562,0.11973,-0.105832,-0.06521,32.55,64.5855220357956
2362,-8.261818,-3.894319,4.368098,0.11301,-0.108887,-0.073151,32.55,64.4408722016549
2372,-8.246264,-3.890131,4.376472,0.10797,-0.110108,-0.081245,32.51,64.3593232238882
2382,-8.231908,-3.901497,4.408178,0.102473,-0.109192,-0.089034,32.51,64.1776024713108
2392,-8.208578,-3.885944,4.41416,0.098349,-0.102473,-0.102931,32.54,64.0784836898871
2402,-8.182258,-3.881757,4.426722,0.090713,-0.096669,-0.109956,32.56,63.9507143930273
2412,-8.180463,-3.891328,4.441677,0.087048,-0.088575,-0.113774,32.56,63.8806115160364
2422,-8.148159,-3.872185,4.441677,0.084758,-0.079107,-0.118661,32.53,63.7868095489473
2432,-8.114061,-3.862016,4.436892,0.083536,-0.067042,-0.120799,32.53,63.722562102858
2442,-8.095517,-3.862016,4.443472,0.082925,-0.055283,-0.121868,32.5,63.6463685084127
2452,-8.090134,-3.868596,4.441677,0.083689,-0.04047,-0.120188,32.5,63.6504397443737
2462,-8.066205,-3.854239,4.43749,0.085979,-0.026878,-0.116828,32.54,63.6011922880984
2472,-8.065607,-3.838088,4.4339,0.088117,-0.013439,-0.112705,32.54,63.6005306911558
2482,-8.044072,-3.835695,4.41416,0.09163,0.000916,-0.106443,32.51,63.649958887449
2492,-8.047661,-3.826123,4.408178,0.096364,0.012981,-0.099876,32.51,63.6786154406773
2522,-8.044072,-3.788436,4.372285,0.115759,0.043982,-0.074067,32.5,63.8150006108445
2532,-8.056634,-3.789035,4.382454,0.122784,0.051924,-0.064294,32.5,63.7919208309667
2562,-8.090134,-3.749553,4.360919,0.14279,0.069639,-0.026573,32.52,63.9382491137513
2572,-8.102695,-3.74716,4.366303,0.153022,0.07758,-0.018326,32.54,63.9366903513095
2592,-8.115856,-3.724428,4.378866,0.16081,0.084452,-0.005956,32.52,63.8778564559499
2602,-8.138588,-3.70409,4.392026,0.163559,0.08827,-0.000305,32.52,63.8408476105949
2612,-8.137392,-3.7005,4.396214,0.16417,0.092699,0.003512,32.51,63.8126973639034
2622,-8.154141,-3.698107,4.400401,0.164781,0.096669,0.006261,32.51,63.8272622137614
2632,-8.17149,-3.692126,4.418347,0.163559,0.101098,0.008094,32.5,63.7686694698719
2642,-8.179864,-3.696313,4.426124,0.16249,0.106901,0.009316,32.5,63.752404268878
2652,-8.188239,-3.68375,4.43749,0.159741,0.112552,0.00733,32.49,63.700338194882
2662,-8.196015,-3.675974,4.447061,0.155923,0.119882,0.006261,32.49,63.6611856122998
2672,-8.213365,-3.678366,4.456632,0.152564,0.127824,0.004276,32.52,63.6548026656994
2682,-8.210373,-3.680759,4.461418,0.148746,0.13607,0.001069,32.52,63.6258988626127
2692,-8.213365,-3.677768,4.463212,0.143859,0.145691,-0.003054,32.54,63.6205510548678
2702,-8.213365,-3.683152,4.45065,0.139125,0.154396,-0.006872,32.54,63.6903460216983
2712,-8.240283,-3.683152,4.445865,0.133932,0.163254,-0.011454,32.5,63.7767809690176
2722,-8.238488,-3.693322,4.451847,0.130114,0.170584,-0.016035,32.5,63.75256677364
2732,-8.22772,-3.694518,4.405785,0.12706,0.176845,-0.021686,32.52,63.9648172025725
2742,-8.250452,-3.702893,4.399803,0.122631,0.185856,-0.030543,32.52,64.0558751943278
2752,-8.250452,-3.714857,4.374678,0.121562,0.186772,-0.037263,32.52,64.1969104493567
2762,-8.252846,-3.726223,4.366901,0.121409,0.186467,-0.043524,32.53,64.2538189529613
2772,-8.258228,-3.719045,4.357928,0.121257,0.185856,-0.047953,32.53,64.3047346410986
2782,-8.274979,-3.745365,4.329215,0.121715,0.183107,-0.053909,32.53,64.5164986627866
2792,-8.246863,-3.739383,4.319045,0.121562,0.179594,-0.059101,32.53,64.4999336930163
2802,-8.258228,-3.74058,4.307081,0.120951,0.173638,-0.063683,32.52,64.5882306299056
2812,-8.262416,-3.753142,4.299304,0.120646,0.166766,-0.069486,32.52,64.6503546671541
2822,-8.276773,-3.751348,4.291527,0.119882,0.159283,-0.074373,32.54,64.7205281935694
2832,-8.275578,-3.76391,4.271787,0.118202,0.150731,-0.081092,32.54,64.8323410602051
2842,-8.285149,-3.761517,4.262814,0.11637,0.140346,-0.087659,32.53,64.8973784041259
2852,-8.270193,-3.763312,4.258626,0.113468,0.128434,-0.092546,32.53,64.8878503534591
2862,-8.285149,-3.77049,4.239483,0.110108,0.115148,-0.098807,32.5,65.0269161629016
2872,-8.28156,-3.772883,4.231109,0.107512,0.10064,-0.104,32.5,65.0647711912189
2882,-8.280362,-3.78066,4.226922,0.104458,0.084452,-0.108429,32.54,65.0915901232038
2892,-8.294122,-3.781258,4.217948,0.100793,0.067195,-0.113621,32.54,65.1686935660579
2912,-8.291131,-3.78066,4.208975,0.095448,0.007941,-0.126449,32.54,65.2080591792037
2922,-8.280362,-3.785445,4.222135,0.090408,-0.012065,-0.129503,32.52,65.1211583738095
2932,-8.280362,-3.772883,4.232903,0.089186,-0.031307,-0.131641,32.5,65.0528596790932
2942,-8.2678,-3.777669,4.252644,0.087659,-0.049327,-0.134085,32.5,64.9279318837947
2952,-8.246863,-3.772285,4.267001,0.086743,-0.064599,-0.134696,32.5,64.8020379363296
2962,-8.248658,-3.77049,4.275974,0.085368,-0.078038,-0.134848,32.5,64.7577993430983
2972,-8.227122,-3.766303,4.296313,0.083689,-0.089644,-0.135918,32.5,64.60054429302
2982,-8.219944,-3.776472,4.314857,0.082009,-0.098349,-0.136528,32.5,64.4991746732721
2992,-8.215756,-3.758526,4.345964,0.081245,-0.101556,-0.135765,32.53,64.3109503128567
3002,-8.199606,-3.751348,4.365107,0.080176,-0.102167,-0.134238,32.53,64.1684736261836
3012,-8.168499,-3.755535,4.386044,0.078191,-0.100182,-0.133474,32.55,63.9943249866479
3022,-8.165507,-3.744169,4.399803,0.077733,-0.094379,-0.131641,32.55,63.9047517731534
3032,-8.152347,-3.749553,4.415356,0.07758,-0.086132,-0.129045,32.53,63.8002539981607
3042,-8.136793,-3.745365,4.429713,0.076205,-0.076053,-0.126602,32.53,63.686192560646
3062,-8.109874,-3.739383,4.451249,0.078038,-0.049633,-0.119424,32.52,63.5067422023853
3072,-8.108678,-3.748357,4.456632,0.077885,-0.034667,-0.115912,32.57,63.4859424720195
3082,-8.098508,-3.741776,4.467998,0.07926,-0.002749,-0.106749,32.57,63.3967938307637
3092,-8.097312,-3.744169,4.456632,0.083078,0.013286,-0.102167,32.53,63.4549733771966
3102,-8.100304,-3.748955,4.459025,0.086132,0.028253,-0.09728,32.52,63.4548059559376
3142,-8.109874,-3.765106,4.404588,0.104458,0.072235,-0.073609,32.5,63.7744996517602
3152,-8.117651,-3.764508,4.384848,0.110108,0.078649,-0.067195,32.5,63.8936042828275
3172,-8.127223,-3.77049,4.374678,0.121257,0.087812,-0.055589,32.51,63.9744086831694
3182,-8.134999,-3.778865,4.361517,0.125991,0.090713,-0.050702,32.51,64.0690118393264
3192,-8.149954,-3.772285,4.370491,0.130725,0.092699,-0.043982,32.51,64.0498052124149
3202,-8.163115,-3.781856,4.359125,0.135459,0.093462,-0.039248,32.5,64.1484169947263
3212,-8.150552,-3.790231,4.356732,0.140041,0.093615,-0.033903,32.5,64.1410874718509
3222,-8.162517,-3.79382,4.350152,0.143401,0.092546,-0.029932,32.53,64.2059260691704
3232,-8.166704,-3.802195,4.341777,0.145844,0.091324,-0.025198,32.53,64.2674010734132
3242,-8.181061,-3.807579,4.348955,0.148135,0.08995,-0.021991,32.5,64.2683818580911
3252,-8.184649,-3.809374,4.350152,0.150426,0.087201,-0.018937,32.5,64.2721714971111
3262,-8.202596,-3.806383,4.349553,0.154549,0.080176,-0.016799,32.53,64.3124690543484
3272,-8.205587,-3.816552,4.359125,0.15516,0.076969,-0.016035,32.51,64.2805665019183
3282,-8.206783,-3.813561,4.347161,0.156534,0.074526,-0.016799,32.51,64.3416439911586
3292,-8.209177,-3.818945,4.365705,0.156687,0.071624,-0.017104,32.5,64.2573238122507
3302,-8.216354,-3.818347,4.377071,0.156382,0.069028,-0.020159,32.5,64.2144984679005
3312,-8.213365,-3.808177,4.381258,0.155771,0.068417,-0.022449,32.52,64.1756916885609
3322,-8.218747,-3.82074,4.399205,0.154396,0.069639,-0.027184,32.52,64.1090174652249
3332,-8.222935,-3.815356,4.41416,0.152869,0.071013,-0.032681,32.52,64.0363612424672
3343,-8.214561,-3.808177,4.421339,0.150578,0.07422,-0.038026,32.52,63.9732285856055
3352,-8.202596,-3.812963,4.426722,0.147066,0.078954,-0.04383,32.5,63.9236459880545
3362,-8.216354,-3.811767,4.431507,0.143553,0.084605,-0.050244,32.5,63.9291329241795
3372,-8.2014,-3.809972,4.45065,0.138208,0.092241,-0.057574,32.52,63.7956096800139
3382,-8.206185,-3.805186,4.454239,0.133779,0.10064,-0.062614,32.52,63.783146191774
3392,-8.206783,-3.79382,4.458427,0.127824,0.110414,-0.068111,32.53,63.7511639348977
3402,-8.212168,-3.786044,4.449454,0.121715,0.119577,-0.074984,32.53,63.8010139746592
3412,-8.194221,-3.777071,4.441677,0.115454,0.129809,-0.080023,32.51,63.7903256220369
3422,-8.179864,-3.787838,4.424927,0.110261,0.138208,-0.083689,32.51,63.8546064061699
3432,-8.186445,-3.784249,4.412365,0.099876,0.1518,-0.090103,32.54,63.9301870630853
3442,-8.190632,-3.772883,4.392026,0.095448,0.156687,-0.091477,32.55,64.0321353741797
3452,-8.19123,-3.766901,4.368696,0.09163,0.160199,-0.091935,32.55,64.1471858990572
3462,-8.199606,-3.762115,4.351946,0.088117,0.16081,-0.092241,32.53,64.2474133683468
3472,-8.18764,-3.76391,4.338188,0.08491,0.15913,-0.090866,32.53,64.2932009399611
3482,-8.193025,-3.759723,4.307081,0.083383,0.154854,-0.087659,32.5,64.4617679932412
3492,-8.200802,-3.756134,4.292126,0.082314,0.147982,-0.084147,32.5,64.5529484161521
3512,-8.203195,-3.742374,4.248456,0.083994,0.12874,-0.073609,32.54,64.7708721142377
3522,-8.218149,-3.73041,4.244868,0.085674,0.115454,-0.068722,32.52,64.8107122608969
3532,-8.212766,-3.738187,4.236493,0.087506,0.101404,-0.063225,32.52,64.8501560232649
3542,-8.218149,-3.718446,4.234099,0.090561,0.086896,-0.058338,32.52,64.8546594523223
3562,-8.219944,-3.708875,4.235296,0.095753,0.059101,-0.047342,32.5,64.8427951031432
3572,-8.219346,-3.705286,4.231707,0.098655,0.047342,-0.042302,32.5,64.8565418881055
3582,-8.230712,-3.706482,4.255635,0.100945,0.035277,-0.039095,32.51,64.7586587849223
3592,-8.233105,-3.690929,4.27059,0.103389,0.024129,-0.037568,32.51,64.670757017646
3602,-8.22772,-3.680759,4.289135,0.105985,0.00672,-0.036957,32.52,64.5522674654096
3612,-8.240283,-3.678366,4.28734,0.110414,-0.000458,-0.038179,32.54,64.587421256883
3622,-8.244471,-3.679563,4.298108,0.112857,-0.007178,-0.041692,32.54,64.5422939304667
3632,-8.251051,-3.678965,4.309474,0.115301,-0.011912,-0.045204,32.55,64.4977358331158
3642,-8.250452,-3.681956,4.328616,0.116675,-0.017104,-0.051618,32.55,64.4005789333808
3652,-8.260024,-3.675974,4.335794,0.118661,-0.019548,-0.056352,32.5,64.3791632153668
3662,-8.263614,-3.671188,4.35075,0.120799,-0.022755,-0.064752,32.5,64.3054620811592
3672,-8.265409,-3.674777,4.35075,0.121409,-0.025045,-0.072082,32.51,64.3131291305727
3682,-8.258228,-3.678965,4.362714,0.122631,-0.026878,-0.080023,32.51,64.2395716550569
3692,-8.265409,-3.662215,4.374678,0.123547,-0.027947,-0.088575,32.5,64.1775103604859
3702,-8.260024,-3.677171,4.377669,0.122937,-0.027947,-0.098197,32.5,64.165009235279
3712,-8.258827,-3.688536,4.382454,0.122631,-0.027336,-0.10568,32.46,64.1492401338769
3722,-8.257033,-3.687938,4.391428,0.120799,-0.025962,-0.113926,32.46,64.0985356277369
3732,-8.245667,-3.684947,4.396214,0.120493,-0.023366,-0.120951,32.52,64.045081161345
3742,-8.228318,-3.693322,4.411169,0.119271,-0.020769,-0.126907,32.52,63.9373497953289
3752,-8.224131,-3.714259,4.400999,0.117592,-0.018173,-0.131489,32.5,64.0014653204591
3762,-8.206783,-3.729214,4.402196,0.115148,-0.015119,-0.134848,32.5,63.9712086994942
3772,-8.182258,-3.738187,4.401597,0.113316,-0.011454,-0.135612,32.54,63.9275991805539
3782,-8.17807,-3.738786,4.409374,0.11133,-0.004276,-0.133627,32.55,63.8786834480836
3792,-8.152946,-3.760919,4.406981,0.110719,-0.000458,-0.130878,32.55,63.8567039330106
3802,-8.146365,-3.768098,4.396214,0.109498,0.002596,-0.126602,32.51,63.9046271946787
3812,-8.139186,-3.790231,4.39083,0.109498,0.005956,-0.119882,32.51,63.9394207390702
3822,-8.133204,-3.79382,4.393821,0.110108,0.010385,-0.114079,32.55,63.9141750627914
3832,-8.123035,-3.799204,4.386044,0.110567,0.013286,-0.107207,32.55,63.9367620195177
3842,-8.124829,-3.822534,4.384848,0.110108,0.016646,-0.099571,32.54,63.9719744821011
3852,-8.117651,-3.824927,4.392026,0.111177,0.020006,-0.092241,32.54,63.9212072127588
3862,-8.120044,-3.825525,4.392624,0.112094,0.023976,-0.082925,32.5,63.9242262801993
3872,-8.111669,-3.833302,4.387838,0.113926,0.028405,-0.075289,32.5,63.9381570101661
3882,-8.112864,-3.838088,4.391428,0.114537,0.031001,-0.069028,32.54,63.9275396597554
3892,-8.109276,-3.850052,4.400401,0.115912,0.036957,-0.062003,32.54,63.8860867407515
3902,-8.100902,-3.843472,4.404588,0.116217,0.04215,-0.0562,32.54,63.8383035395969
3912,-8.097312,-3.854239,4.412963,0.117439,0.047953,-0.051313,32.54,63.7986970224046
3922,-8.115258,-3.857828,4.420142,0.118355,0.05452,-0.047953,32.53,63.8066769295501
3932,-8.116454,-3.865007,4.421937,0.117897,0.062461,-0.04444,32.53,63.8079778891515
3942,-8.120642,-3.852444,4.443472,0.118355,0.071929,-0.042302,32.55,63.6934911751869
3952,-8.130812,-3.851248,4.452445,0.115912,0.091783,-0.042455,32.55,63.6695295196968
3962,-8.124829,-3.836293,4.461418,0.113774,0.103236,-0.044135,32.53,63.593698547422
3972,-8.13799,-3.839284,4.461418,0.111636,0.114385,-0.046578,32.5,63.6271340610993
3982,-8.141579,-3.823731,4.465007,0.109345,0.125991,-0.049786,32.5,63.6002299084536
3992,-8.158927,-3.824927,4.454239,0.106901,0.136681,-0.053909,32.53,63.6962980867502
4002,-8.158927,-3.823133,4.456034,0.104916,0.147982,-0.057879,32.53,63.6852029216833
4012,-8.168499,-3.829114,4.451847,0.102167,0.157298,-0.064141,32.54,63.7348694983153
4022,-8.179267,-3.818945,4.432704,0.099571,0.166461,-0.068875,32.54,63.8464003574955
4032,-8.197212,-3.814159,4.429713,0.096517,0.174097,-0.074526,32.48,63.8974066808042
4042,-8.195418,-3.799204,4.424927,0.094226,0.180511,-0.080176,32.48,63.9020226067326
4052,-8.213962,-3.794419,4.403392,0.091477,0.185092,-0.085368,32.54,64.0492599326447
4062,-8.216953,-3.785445,4.393223,0.089797,0.188299,-0.089339,32.54,64.09875035932
4072,-8.223534,-3.78066,4.382454,0.08827,0.189215,-0.093768,32.54,64.1638445401892
4082,-8.221739,-3.77049,4.368098,0.086896,0.18891,-0.096822,32.54,64.2229434814612
4092,-8.235497,-3.766303,4.351946,0.085674,0.186619,-0.099266,32.52,64.3325835926839
4102,-8.230712,-3.753142,4.336991,0.084605,0.182496,-0.101556,32.52,64.3852759671238
4112,-8.234302,-3.752544,4.298706,0.084147,0.176693,-0.101709,32.57,64.5901793927871
4122,-8.235497,-3.745365,4.28734,0.084299,0.161574,-0.099113,32.57,64.6443000956324
4132,-8.240283,-3.733402,4.267001,0.085979,0.151342,-0.096517,32.52,64.7481435884514
4142,-8.231908,-3.741179,4.252644,0.087965,0.139277,-0.09331,32.55,64.8118054086882
4152,-8.224131,-3.736991,4.236493,0.090866,0.126907,-0.088575,32.55,64.87419565114
4182,-8.225926,-3.722634,4.204189,0.10232,0.083994,-0.071777,32.53,65.0319558179328
4192,-8.219346,-3.712464,4.189833,0.106749,0.068111,-0.065057,32.53,65.0821671318592
4202,-8.230712,-3.713063,4.173083,0.112399,0.052076,-0.058948,32.54,65.1954047406066
4212,-8.227122,-3.713661,4.197011,0.118813,0.036499,-0.051313,32.54,65.0630787476157
4222,-8.226524,-3.714857,4.193422,0.125075,0.021075,-0.043982,32.49,65.0816849580292
4232,-8.222935,-3.713063,4.201199,0.131183,0.005498,-0.036805,32.49,65.0313568177457
4242,-8.221739,-3.709473,4.201797,0.137445,-0.009927,-0.030543,32.5,65.0219958587471
4252,-8.213962,-3.714857,4.215555,0.143401,-0.023824,-0.023671,32.5,64.9383535761409
4262,-8.222935,-3.705884,4.23051,0.149662,-0.036805,-0.016341,32.5,64.8713698339827
4272,-8.210373,-3.704688,4.254438,0.155465,-0.048717,-0.010232,32.5,64.7175999092057
4282,-8.213365,-3.715455,4.283153,0.160505,-0.057879,-0.005498,32.51,64.586096694765
4292,-8.207382,-3.720241,4.308277,0.165086,-0.064599,0.003512,32.51,64.4473646234828
4302,-8.208578,-3.71725,4.33041,0.170126,-0.073762,0.006567,32.51,64.3325691944485
4312,-8.210971,-3.729812,4.365705,0.171348,-0.074067,0.007178,32.56,64.1689037072669
4322,-8.210971,-3.734,4.385446,0.170737,-0.07254,0.006261,32.56,64.0717122783617
4332,-8.216953,-3.734,4.414758,0.168904,-0.06857,0.004887,32.51,63.9349634120824
4342,-8.209177,-3.732804,4.427918,0.166613,-0.063988,0.001374,32.51,63.84856452228
4352,-8.221739,-3.741179,4.446463,0.16249,-0.055131,-0.002902,32.5,63.7912090314708
4362,-8.222935,-3.734,4.4674,0.157145,-0.045509,-0.009468,32.5,63.6796624645085
4372,-8.22473,-3.736991,4.481159,0.149967,-0.034667,-0.016493,32.54,63.6168255718323
4382,-8.226524,-3.737589,4.491926,0.142026,-0.022602,-0.025962,32.54,63.566802885307
4392,-8.244471,-3.753741,4.499105,0.133321,-0.010232,-0.035888,32.51,63.5884457048101
4402,-8.225328,-3.74716,4.510471,0.12538,0.003207,-0.047189,32.51,63.4798715405171
4412,-8.238488,-3.752544,4.511069,0.115912,0.016952,-0.060476,32.5,63.5127772810185
4422,-8.233703,-3.768098,4.499703,0.106901,0.029016,-0.072082,32.5,63.5757474218575
4432,-8.22772,-3.771687,4.494319,0.097738,0.040928,-0.085063,32.55,63.5931305074991
4442,-8.219944,-3.767499,4.485346,0.088117,0.05116,-0.098197,32.55,63.6164996661353
4452,-8.225328,-3.769892,4.469195,0.080329,0.061239,-0.110414,32.53,63.7135102145888
4462,-8.204989,-3.776472,4.436892,0.073609,0.069639,-0.121409,32.53,63.8387317497868
4472,-8.194819,-3.786044,4.42732,0.061545,0.081856,-0.139888,32.51,63.8745577704512
4482,-8.2014,-3.785445,4.406981,0.057574,0.084758,-0.147371,32.51,63.9930269355204
4492,-8.178668,-3.78724,4.387838,0.055741,0.087354,-0.152564,32.51,64.0415383076482
4502,-8.173882,-3.784847,4.368098,0.054672,0.08827,-0.15684,32.55,64.1297198483488
4512,-8.161918,-3.787838,4.363312,0.055131,0.088423,-0.15852,32.55,64.1304020667507
4522,-8.155936,-3.795017,4.348357,0.056658,0.088423,-0.156992,32.56,64.2015632521583
4532,-8.145766,-3.790231,4.34058,0.05849,0.087506,-0.156687,32.56,64.2136807962821
4542,-8.145168,-3.787838,4.332804,0.060934,0.086437,-0.153022,32.54,64.2500278600416
4552,-8.134999,-3.783651,4.325625,0.065363,0.084605,-0.14844,32.54,64.2597679317098
4562,-8.12124,-3.779463,4.328616,0.06918,0.083689,-0.140499,32.55,64.2086312693913
4572,-8.118249,-3.781856,4.324429,0.074526,0.083994,-0.132558,32.55,64.2260852810107
4582,-8.110473,-3.777669,4.334,0.078802,0.083536,-0.124617,32.52,64.1543177956589
4592,-8.116454,-3.78066,4.341179,0.082925,0.082925,-0.116828,32.52,64.1338956823828
4602,-8.109874,-3.771089,4.350152,0.086437,0.084452,-0.108429,32.52,64.0622385873317
4612,-8.13141,-3.763312,4.349553,0.090103,0.087659,-0.09896,32.52,64.1062586436086
4622,-8.132606,-3.761517,4.356134,0.09331,0.090561,-0.090255,32.5,64.0730454064141
4632,-8.156534,-3.745365,4.380062,0.094837,0.092852,-0.082009,32.5,63.987139615037
4642,-8.152946,-3.745365,4.383651,0.096059,0.101862,-0.067959,32.52,63.9604279710511
4652,-8.167302,-3.74058,4.398606,0.096975,0.107207,-0.060934,32.53,63.9112538520789
4662,-8.170892,-3.738187,4.398008,0.096211,0.111788,-0.05681,32.53,63.9200427810511
4672,-8.193025,-3.746562,4.393223,0.094837,0.117744,-0.052687,32.52,64.0039465366171
4682,-8.193025,-3.736991,4.396811,0.093768,0.122478,-0.048411,32.52,63.9755435187005
4692,-8.193623,-3.741776,4.39083,0.091935,0.126907,-0.046426,32.52,64.0126224885088
4702,-8.200802,-3.751348,4.39083,0.090255,0.131336,-0.045509,32.52,64.0389247194328
4712,-8.221739,-3.742374,4.378866,0.088881,0.134543,-0.044135,32.53,64.1386010077024
4722,-8.236095,-3.745365,4.36391,0.08827,0.135612,-0.043371,32.53,64.2509569442559
4732,-8.233703,-3.742973,4.341179,0.087965,0.136223,-0.04444,32.51,64.3600260506119
4742,-8.23131,-3.751348,4.329215,0.088423,0.134238,-0.044135,32.51,64.424842649118
4752,-8.243872,-3.755535,4.31067,0.08995,0.130267,-0.045204,32.56,64.5528417439805
4762,-8.24148,-3.765106,4.296911,0.092393,0.124769,-0.046884,32.56,64.6282374823581
4772,-8.257631,-3.750151,4.280162,0.096669,0.117286,-0.048411,32.54,64.7355052836916
4782,-8.255836,-3.771089,4.258626,0.100793,0.107207,-0.049786,32.54,64.8639917182582
4792,-8.2678,-3.768696,4.252644,0.106291,0.095906,-0.049938,32.52,64.9189157991431
4802,-8.258228,-3.776472,4.215555,0.112857,0.084299,-0.050244,32.52,65.0978721387166
4812,-8.25464,-3.786044,4.218546,0.117744,0.070097,-0.05116,32.53,65.0840922479069
4822,-8.252846,-3.790231,4.209573,0.131641,0.040012,-0.051007,32.55,65.1309529475413
4832,-8.240881,-3.789633,4.219743,0.138056,0.024282,-0.051007,32.55,65.05132003459
4842,-8.246863,-3.8004,4.208377,0.144928,0.008094,-0.049022,32.51,65.1343111359729
4852,-8.235497,-3.790231,4.223332,0.150578,-0.006872,-0.047953,32.51,65.0214623163226
4862,-8.242078,-3.792624,4.238287,0.155312,-0.021228,-0.046884,32.54,64.9607604957113
4872,-8.22772,-3.792624,4.25384,0.160047,-0.034056,-0.046731,32.54,64.8484961177084
4882,-8.218149,-3.789633,4.271188,0.16249,-0.045815,-0.045204,32.46,64.7343894695388
4892,-8.209774,-3.790231,4.298108,0.163254,-0.055436,-0.043982,32.46,64.577108384898
4902,-8.208578,-3.792624,4.31725,0.163712,-0.062766,-0.041386,32.49,64.4780501832049
4912,-8.194819,-3.792624,4.342375,0.163254,-0.06689,-0.039554,32.49,64.3176289473384
4922,-8.190632,-3.791427,4.363312,0.159436,-0.068264,-0.040012,32.51,64.1991317503467
4932,-8.178668,-3.789035,4.389035,0.156382,-0.067806,-0.039706,32.51,64.0372748101335
4942,-8.186445,-3.777669,4.408776,0.151036,-0.064599,-0.040164,32.59,63.9416698193518
4952,-8.167302,-3.781856,4.430909,0.144775,-0.05849,-0.040012,32.59,63.7889227727488
4962,-8.17149,-3.771687,4.451847,0.138514,-0.049938,-0.040164,32.53,63.6805559074361
4972,-8.169096,-3.777669,4.49073,0.130267,-0.039859,-0.041692,32.53,63.4828740870577
4982,-8.166704,-3.77049,4.491328,0.123089,-0.027184,-0.042608,32.54,63.4666384860526
4992,-8.14457,-3.760321,4.504489,0.105527,0.000764,-0.047189,32.54,63.3373220391752
5002,-8.152946,-3.769892,4.499703,0.096975,0.016493,-0.049938,32.54,63.3914476371075
5012,-8.153543,-3.754339,4.503293,0.089644,0.031765,-0.050855,32.51,63.357868969435
5022,-8.155338,-3.753142,4.503891,0.082467,0.047342,-0.054214,32.51,63.3577104176022
5032,-8.149356,-3.753741,4.500899,0.076358,0.062919,-0.057574,32.52,63.3597085416931
5042,-8.149954,-3.756732,4.480561,0.07086,0.077885,-0.060018,32.52,63.4681467346738
5052,-8.148159,-3.757928,4.467998,0.067348,0.090866,-0.062461,32.53,63.5295102432437
5062,-8.165507,-3.739383,4.461418,0.064141,0.103542,-0.064446,32.53,63.5835859719282
5072,-8.172686,-3.753741,4.439284,0.062614,0.113926,-0.067042,32.53,63.728625996567
5082,-8.173284,-3.744768,4.415954,0.062003,0.122937,-0.069486,32.53,63.8401980956034
5092,-8.170293,-3.739982,4.401597,0.062156,0.12874,-0.072082,32.5,63.9020928878318
5102,-8.167302,-3.739982,4.377669,0.063988,0.13439,-0.072846,32.5,64.0184415076034
5112,-8.185248,-3.736392,4.365705,0.066432,0.136223,-0.074067,32.52,64.1172728347508
5122,-8.188837,-3.729812,4.342375,0.069486,0.136223,-0.077122,32.52,64.2389816950223
5132,-8.188837,-3.733402,4.325625,0.073151,0.134696,-0.078343,32.5,64.329253777544
5142,-8.202596,-3.716652,4.315455,0.077274,0.1321,-0.079565,32.5,64.3957531470589
5152,-8.216354,-3.728616,4.301697,0.081245,0.128282,-0.081092,32.52,64.5101469364331
5162,-8.231908,-3.715455,4.286144,0.08491,0.115148,-0.082009,32.52,64.6121757335302
5172,-8.238488,-3.714857,4.28734,0.09163,0.106596,-0.084452,32.55,64.6201126527994
5182,-8.233703,-3.715455,4.294518,0.093768,0.097891,-0.085521,32.52,64.5728570399347
5192,-8.228917,-3.709473,4.285545,0.09499,0.088728,-0.086896,32.52,64.6025288873386
5202,-8.240881,-3.704688,4.290929,0.095906,0.080176,-0.087965,32.49,64.5966458005356
5212,-8.239684,-3.706482,4.297509,0.096822,0.071624,-0.088423,32.49,64.5617328899562
5222,-8.251051,-3.701099,4.302295,0.095906,0.062308,-0.090255,32.51,64.5570666862476
5232,-8.25464,-3.702295,4.302894,0.095295,0.054214,-0.090713,32.51,64.5632218531547
5242,-8.254042,-3.702295,4.307679,0.093921,0.047037,-0.091172,32.51,64.5371718238213
5252,-8.248059,-3.711866,4.323233,0.092852,0.040775,-0.092088,32.51,64.4531384398278
5262,-8.246264,-3.710072,4.334,0.090561,0.034819,-0.091935,32.5,64.3917839961376
5272,-8.238488,-3.701697,4.34058,0.088575,0.029169,-0.093157,32.5,64.3318433152419
5282,-8.239684,-3.714259,4.341777,0.087812,0.02642,-0.092546,32.52,64.3411384090049
5292,-8.234302,-3.720241,4.346562,0.086437,0.023976,-0.092241,32.52,64.3104422748751
5302,-8.222935,-3.725027,4.351348,0.086132,0.022755,-0.08995,32.48,64.2650046808743
5312,-8.213365,-3.728018,4.345366,0.085827,0.02138,-0.089644,32.48,64.2772542639365
5322,-8.204391,-3.727419,4.359723,0.086132,0.021533,-0.088423,32.5,64.182312274127
5332,-8.199007,-3.738187,4.353143,0.088575,0.022602,-0.082772,32.5,64.2151281511036
5344,-8.17448,-3.754937,4.359125,0.092546,0.02642,-0.080634,32.5,64.1460269015525
5352,-8.182856,-3.756732,4.352544,0.095906,0.027947,-0.077427,32.53,64.2008445665723
5362,-8.175079,-3.759723,4.359723,0.099571,0.030696,-0.075136,32.53,64.1492978113964
5372,-8.175676,-3.76391,4.347161,0.103542,0.032681,-0.072082,32.51,64.2198308410371
5382,-8.160722,-3.77408,4.359125,0.107665,0.035888,-0.068417,32.51,64.134820324416
5392,-8.155338,-3.796811,4.347759,0.11133,0.03879,-0.06521,32.52,64.2051869125757
5402,-8.163115,-3.790829,4.355535,0.115454,0.041692,-0.062308,32.52,64.1763636426805
5412,-8.156534,-3.799204,4.348357,0.118661,0.044135,-0.05849,32.53,64.2073252197698
5422,-8.158329,-3.802195,4.347161,0.121257,0.045968,-0.056658,32.53,64.2207064188763
5432,-8.163713,-3.806981,4.351946,0.1237,0.048106,-0.052534,32.5,64.2132205046236
5442,-8.161918,-3.811767,4.357928,0.125533,0.04948,-0.050244,32.5,64.1833702502086
5452,-8.167302,-3.812365,4.360919,0.125686,0.050244,-0.047647,32.52,64.1807507690122
5462,-8.163713,-3.822534,4.361517,0.126144,0.051771,-0.046426,32.52,64.1803009531456
5472,-8.165507,-3.823133,4.365705,0.125075,0.05284,-0.044288,32.5,64.1634188806255
5482,-8.166105,-3.822534,4.360321,0.124464,0.053603,-0.041844,32.5,64.1918575954235
5492,-8.17448,-3.824927,4.360919,0.121868,0.054214,-0.041386,32.53,64.2101814484726
5502,-8.190632,-3.835097,4.371687,0.119271,0.055131,-0.040012,32.53,64.2018815532126
5512,-8.183454,-3.824927,4.370491,0.112399,0.056505,-0.039248,32.51,64.181165739621
5522,-8.179267,-3.832105,4.370491,0.10797,0.057879,-0.039095,32.5,64.1793006920991
5532,-8.194221,-3.832704,4.38425,0.104,0.057727,-0.038943,32.5,64.1429617649208
5542,-8.208578,-3.81715,4.381258,0.100182,0.059101,-0.040012,32.51,64.1742950287247
5552,-8.19781,-3.819543,4.374678,0.095753,0.059865,-0.041539,32.51,64.1863283014846
5562,-8.204391,-3.81057,4.38066,0.091935,0.060476,-0.043371,32.5,64.1610476254935
5572,-8.219944,-3.805186,4.374678,0.087965,0.06185,-0.043982,32.5,64.2211199951631
5582,-8.21157,-3.802195,4.378268,0.084452,0.062156,-0.047037,32.52,64.180743897262
5592,-8.215158,-3.798008,4.370491,0.08094,0.062766,-0.04948,32.52,64.2243724387548
5602,-8.218149,-3.786642,4.374678,0.078802,0.063835,-0.052229,32.51,64.1978030792215
5612,-8.222337,-3.793222,4.383053,0.076511,0.064141,-0.054978,32.51,64.1711178843329
5622,-8.236693,-3.786044,4.371687,0.074984,0.064599,-0.057879,32.51,64.254256886967
5632,-8.218747,-3.777071,4.365107,0.073457,0.065363,-0.062003,32.51,64.2383747263751
5642,-8.23131,-3.773481,4.370491,0.072693,0.06521,-0.064446,32.52,64.2353128046712
5652,-8.22473,-3.759723,4.366901,0.07254,0.065668,-0.069333,32.52,64.2247195323076
5662,-8.230712,-3.760321,4.359723,0.071777,0.065363,-0.072693,32.49,64.2757025425773
5672,-8.219944,-3.743571,4.356134,0.072998,0.06521,-0.076205,32.49,64.2526413163542
5682,-8.223534,-3.739982,4.349553,0.074526,0.064294,-0.081856,32.51,64.2909347597821
5692,-8.22772,-3.739982,4.342375,0.078038,0.063377,-0.084605,32.53,64.3373368264949
5702,-8.218149,-3.725625,4.329813,0.080176,0.062003,-0.087354,32.53,64.3658382571614
5712,-8.225328,-3.721437,4.329813,0.081551,0.059712,-0.088881,32.52,64.3777505543774
5722,-8.20798,-3.720241,4.329813,0.084758,0.057727,-0.089186,32.52,64.3373646265473
5732,-8.214561,-3.709473,4.320241,0.086896,0.055741,-0.089339,32.52,64.3906886560747
5742,-8.204989,-3.707081,4.309474,0.08995,0.052382,-0.088575,32.52,64.4223343245394
5752,-8.195418,-3.705884,4.315455,0.092699,0.04948,-0.087048,32.5,64.3685016325432
5762,-8.204391,-3.709473,4.305286,0.093921,0.045662,-0.084299,32.5,64.4451119758881
5772,-8.197212,-3.71067,4.314857,0.09728,0.041997,-0.081703,32.53,64.3805567856372
5782,-8.189436,-3.704688,4.298706,0.099571,0.037874,-0.077122,32.53,64.4405556912977
5792,-8.191828,-3.7005,4.302894,0.101862,0.033903,-0.071166,32.5,64.4199613476089
5802,-8.184649,-3.707679,4.296911,0.104611,0.029474,-0.066737,32.5,64.4421088883921
5812,-8.175676,-3.703491,4.301697,0.107512,0.024893,-0.061239,32.53,64.3926624769032
5822,-8.18764,-3.705884,4.30409,0.109498,0.019548,-0.055894,32.53,64.409791987599
5832,-8.18764,-3.711268,4.310072,0.111788,0.014966,-0.049327,32.51,64.3842991169393
5842,-8.188837,-3.711866,4.315455,0.114079,0.010079,-0.043066,32.51,64.3597336558315
5852,-8.184052,-3.727419,4.319045,0.116064,0.006261,-0.032681,32.54,64.346308555795
5862,-8.182856,-3.725027,4.332804,0.120493,-0.001374,-0.027794,32.52,64.2699375478739
5872,-8.18764,-3.72383,4.338188,0.121715,-0.004123,-0.023518,32.52,64.2517209961567
5882,-8.181061,-3.724428,4.343571,0.122326,-0.005803,-0.020159,32.53,64.2095825269304
5892,-8.184052,-3.722634,4.360321,0.122937,-0.006261,-0.01741,32.53,64.1280441140151
5902,-8.177471,-3.733402,4.375276,0.122937,-0.00504,-0.015577,32.55,64.0471187495844
5912,-8.179864,-3.742374,4.383651,0.123547,-0.004123,-0.01573,32.55,64.0188000210389
5922,-8.189436,-3.738187,4.393223,0.123395,-0.000916,-0.016035,32.49,63.9870371265566
5932,-8.198408,-3.74058,4.41057,0.122173,0.003207,-0.017104,32.49,63.9209392895107
5942,-8.183454,-3.750151,4.420142,0.120646,0.009316,-0.019548,32.49,63.8476583220784
5952,-8.188239,-3.758526,4.425525,0.118355,0.016799,-0.021991,32.49,63.839804040482
5962,-8.185846,-3.758526,4.434498,0.116523,0.025809,-0.026725,32.5,63.788370402867
5972,-8.184649,-3.761517,4.451249,0.113621,0.034667,-0.031765,32.5,63.7030751787137
5982,-8.184052,-3.768098,4.450052,0.110567,0.044593,-0.037415,32.52,63.7147708552774
5992,-8.182258,-3.77408,4.453641,0.10736,0.055589,-0.04383,32.52,63.6986348293837
6002,-8.184052,-3.772285,4.469195,0.102473,0.066279,-0.050549,32.5,63.6214258316153
6012,-8.194819,-3.78724,4.45065,0.099571,0.077733,-0.057421,32.5,63.75657744667
6022,-8.19123,-3.77408,4.453641,0.095906,0.088423,-0.06521,32.51,63.7191996826442
6032,-8.200203,-3.78066,4.449454,0.087048,0.108887,-0.079107,32.5,63.7680455058984
6042,-8.198408,-3.787838,4.439882,0.08262,0.116675,-0.086285,32.5,63.8203985831841
6052,-8.213962,-3.795017,4.431507,0.078343,0.12538,-0.094379,32.56,63.9061201791697
6062,-8.204989,-3.798606,4.419543,0.075136,0.132252,-0.100945,32.56,63.9506694561504
6072,-8.212168,-3.789633,4.400401,0.071624,0.137292,-0.106596,32.52,64.0555189913612
6082,-8.218747,-3.791427,4.398008,0.067959,0.140041,-0.112246,32.52,64.0845236411347
6092,-8.207382,-3.79741,4.378866,0.065973,0.142484,-0.116828,32.55,64.1632433459021
6102,-8.223534,-3.786044,4.359723,0.062308,0.143095,-0.120951,32.55,64.2860941142593
6112,-8.224131,-3.791427,4.344768,0.060476,0.141415,-0.12538,32.51,64.3698707123876
6122,-8.216953,-3.790231,4.336392,0.059865,0.137597,-0.127365,32.51,64.3956548180384
6132,-8.221739,-3.786044,4.314259,0.060323,0.133779,-0.127976,32.51,64.5161104637173
6142,-8.216354,-3.79382,4.302295,0.059559,0.127671,-0.126296,32.51,64.5738430356998
6152,-8.219944,-3.786044,4.295715,0.059559,0.12034,-0.124769,32.49,64.607840574018
6162,-8.222337,-3.784249,4.277769,0.061087,0.11133,-0.121868,32.49,64.7041173647371
6172,-8.212766,-3.78724,4.267001,0.061697,0.10232,-0.118661,32.49,64.7416795779777
6182,-8.209177,-3.783053,4.256233,0.063683,0.093004,-0.11301,32.49,64.7852629539738
6192,-8.203793,-3.772285,4.265206,0.065668,0.082467,-0.107818,32.51,64.7157261944228
6202,-8.204989,-3.775276,4.25384,0.069333,0.062156,-0.093768,32.51,64.7804344860644
6212,-8.205587,-3.772883,4.250251,0.072235,0.052229,-0.085063,32.54,64.7979553201289
6222,-8.200203,-3.767499,4.255635,0.074831,0.041844,-0.076664,32.51,64.7525200127464
6232,-8.201998,-3.759125,4.265805,0.077427,0.032223,-0.068111,32.51,64.6951537649987
6242,-8.190632,-3.756732,4.260421,0.080023,0.022755,-0.059101,32.48,64.6952969919195
6252,-8.191828,-3.759125,4.266403,0.08323,0.014355,-0.050702,32.48,64.669344449658
6262,-8.196015,-3.757928,4.274778,0.085521,0.006872,-0.042761,32.51,64.6340026398998
6272,-8.198408,-3.745964,4.281358,0.089034,-0.000153,-0.035888,32.51,64.5929687508275
6282,-8.218747,-3.745964,4.281956,0.092088,-0.007178,-0.029932,32.54,64.6353777640463
6292,-8.20798,-3.746562,4.301099,0.094837,-0.01237,-0.024129,32.54,64.5127780229988
6302,-8.210971,-3.744768,4.298706,0.09728,-0.017868,-0.020464,32.52,64.5300342457648
6312,-8.213365,-3.748357,4.310072,0.10064,-0.022449,-0.017104,32.52,64.4802995000437
6322,-8.223534,-3.74716,4.314857,0.103694,-0.025656,-0.014355,32.5,64.4771755687486
6332,-8.230712,-3.744169,4.335197,0.10568,-0.028863,-0.012981,32.5,64.3853321452537
6342,-8.230114,-3.74058,4.346562,0.108429,-0.031154,-0.013744,32.48,64.321783390342
6352,-8.240881,-3.742374,4.335794,0.110719,-0.033139,-0.014966,32.48,64.4032749168187
6362,-8.225328,-3.751348,4.369295,0.11301,-0.03375,-0.016952,32.55,64.2051363019736
6372,-8.221141,-3.754937,4.359723,0.114995,-0.03375,-0.023213,32.55,64.2485831868355
6382,-8.230712,-3.752544,4.374678,0.117439,-0.032834,-0.027489,32.52,64.1908865382073
6392,-8.213365,-3.750151,4.371687,0.119119,-0.032529,-0.032529,32.52,64.164551627356
6402,-8.213962,-3.746562,4.38066,0.120493,-0.031307,-0.037874,32.52,64.1160827862091
6412,-8.219346,-3.760321,4.391428,0.120951,-0.029627,-0.043371,32.53,64.0872659257591
6422,-8.200802,-3.760919,4.390232,0.12202,-0.027184,-0.048717,32.53,64.0519580481236
6432,-8.199007,-3.756134,4.398606,0.121715,-0.025045,-0.054062,32.54,63.999902702943
6442,-8.193025,-3.761517,4.404588,0.122631,-0.021228,-0.05849,32.54,63.9612065991228
6452,-8.180463,-3.75733,4.405785,0.123089,-0.018173,-0.062156,32.56,63.9220246055158
6462,-8.180463,-3.75733,4.411169,0.12202,-0.013592,-0.064752,32.56,63.8943854408879
6472,-8.149954,-3.771089,4.420142,0.122326,-0.009163,-0.067959,32.52,63.792980075339
6482,-8.152946,-3.76391,4.424329,0.121562,-0.002443,-0.069486,32.52,63.7707311067016
6492,-8.139186,-3.758526,4.430909,0.121104,0.004887,-0.069333,32.49,63.6995645334999
6502,-8.138588,-3.763312,4.430909,0.119119,0.012828,-0.069944,32.49,63.7032824283877
6512,-8.108678,-3.759723,4.44048,0.11805,0.021533,-0.068875,32.47,63.5811557974433
6522,-8.110473,-3.766901,4.44407,0.115912,0.032223,-0.065973,32.47,63.5745788926618
6532,-8.108678,-3.765705,4.454239,0.113163,0.043066,-0.06353,32.5,63.5169009228969
6542,-8.093722,-3.768098,4.462016,0.110414,0.054367,-0.057421,32.5,63.4448071365888
6552,-8.093722,-3.762714,4.457231,0.104153,0.080023,-0.053909,32.54,63.4635575209573
6562,-8.105088,-3.769892,4.458427,0.100487,0.093462,-0.04948,32.54,63.4915865956205
6572,-8.098508,-3.76391,4.46381,0.096669,0.107207,-0.044135,32.54,63.4421994612288
6582,-8.111071,-3.759723,4.459623,0.092241,0.120035,-0.04047,32.51,63.4883768288537
6592,-8.110473,-3.759723,4.46381,0.08827,0.133016,-0.037263,32.51,63.465503958416
6602,-8.122437,-3.758526,4.450052,0.084452,0.146302,-0.033292,32.52,63.5625750961997
6612,-8.135597,-3.755535,4.443472,0.080481,0.157756,-0.031001,32.52,63.6235939057672
6622,-8.139186,-3.756134,4.442276,0.0759,0.167988,-0.029169,32.5,63.6386601324266
6632,-8.173284,-3.748955,4.432704,0.071624,0.176693,-0.028405,32.5,63.7586716349049
6642,-8.184649,-3.753142,4.425525,0.067806,0.184481,-0.029474,32.5,63.8259359085349
6652,-8.18764,-3.759723,4.401597,0.064141,0.189521,-0.029932,32.5,63.9624094851623
6662,-8.216354,-3.748955,4.381856,0.06185,0.193033,-0.03207,32.5,64.1178385398691
6672,-8.221141,-3.743571,4.381856,0.058643,0.194713,-0.034819,32.5,64.1231265422782
6682,-8.252247,-3.745964,4.350152,0.056505,0.194102,-0.039859,32.52,64.3586105738341
6692,-8.263015,-3.74058,4.34058,0.054367,0.19059,-0.045509,32.52,64.4264824660775
6702,-8.282157,-3.731607,4.313063,0.053451,0.18555,-0.051924,32.52,64.6017307637303
6712,-8.297112,-3.749553,4.297509,0.052382,0.178678,-0.058338,32.52,64.7329773362515
6722,-8.313264,-3.73041,4.278965,0.052382,0.156687,-0.07254,32.52,64.8451099720888
6732,-8.322835,-3.727419,4.262215,0.053298,0.144317,-0.081245,32.51,64.9495769340627
6742,-8.330612,-3.736991,4.241278,0.054367,0.129962,-0.088728,32.51,65.0840613277559
6752,-8.331809,-3.732205,4.244868,0.055894,0.113774,-0.0956,32.52,65.0634579854155
6762,-8.328817,-3.734598,4.235296,0.057116,0.097128,-0.10232,32.52,65.1086746565281
6772,-8.328817,-3.734598,4.218546,0.059254,0.078649,-0.109039,32.51,65.1952499484945
6782,-8.337193,-3.733402,4.214957,0.061087,0.060323,-0.114385,32.51,65.2308983898867
6792,-8.330013,-3.735196,4.206582,0.063072,0.040775,-0.118508,32.51,65.260349447085
6802,-8.309077,-3.728616,4.211368,0.065363,0.021991,-0.121868,32.51,65.1834443626134
6812,-8.310272,-3.73041,4.207779,0.067959,0.003818,-0.124464,32.47,65.206418983183
6822,-8.293524,-3.729812,4.204788,0.07086,-0.014508,-0.125075,32.47,65.1847226148371
6832,-8.270193,-3.744169,4.225127,0.073762,-0.031154,-0.123547,32.46,65.0421996238666
6842,-8.269596,-3.741179,4.236493,0.076511,-0.047953,-0.122173,32.46,64.9789675079534
6852,-8.252846,-3.738786,4.228716,0.079107,-0.062156,-0.118661,32.57,64.9799752705296
6862,-8.23131,-3.741179,4.247859,0.081092,-0.0759,-0.113774,32.57,64.8353111357348
6872,-8.218149,-3.738786,4.256832,0.083841,-0.087506,-0.109192,32.52,64.7570349927776
6882,-8.208578,-3.748955,4.283751,0.086743,-0.097586,-0.100945,32.52,64.6063935180592
6892,-8.169096,-3.748955,4.303492,0.088881,-0.109956,-0.084452,32.51,64.4153476330772
6902,-8.15773,-3.756732,4.307679,0.093157,-0.113621,-0.075136,32.49,64.376041532252
6912,-8.143373,-3.756134,4.328616,0.095295,-0.115148,-0.06521,32.49,64.2343545230272
6922,-8.130214,-3.763312,4.348357,0.09728,-0.113468,-0.0562,32.57,64.1097218853291
6932,-8.12782,-3.768098,4.366303,0.099571,-0.110567,-0.046273,32.57,64.0165020377378
6942,-8.114061,-3.769294,4.382454,0.101556,-0.105374,-0.037415,32.52,63.9028261629131
6952,-8.10808,-3.772883,4.396214,0.103084,-0.098807,-0.028863,32.52,63.8218861988954
6962,-8.111071,-3.781258,4.411767,0.104916,-0.089492,-0.020311,32.51,63.7575612230539
6972,-8.107481,-3.789035,4.41416,0.106138,-0.080023,-0.013744,32.51,63.7453292994663
6982,-8.087142,-3.711866,4.563711,0.106138,-0.068417,-0.008247,32.51,62.8478806240726
6992,-8.105088,-3.699902,4.640281,0.077122,-0.056963,-0.004429,32.51,62.4887951603501
7002,-8.08475,-3.783651,4.439882,0.054978,-0.044593,-0.000916,32.47,63.5546071670718
7012,-8.087142,-3.799204,4.442276,0.057879,-0.032376,0.003512,32.47,63.5647219121181
7022,-8.092526,-3.796811,4.458427,0.061239,-0.020159,0.007025,32.5,63.4916171898875
7032,-8.105686,-3.796213,4.457829,0.063988,-0.006261,0.007941,32.5,63.5245085619988
7042,-8.114061,-3.792624,4.457829,0.066279,0.008705,0.009316,32.51,63.5399927751766
7052,-8.126624,-3.805784,4.466802,0.068264,0.021991,0.008247,32.51,63.5372612057566
7062,-8.126624,-3.809972,4.469792,0.06918,0.036805,0.003207,32.54,63.5264905292821
7072,-8.145766,-3.809972,4.479962,0.068722,0.064599,-0.00168,32.54,63.5186450643508
7082,-8.158329,-3.805784,4.475775,0.068111,0.077733,-0.005651,32.54,63.5644246879875
7092,-8.156534,-3.817749,4.462614,0.067042,0.090866,-0.010843,32.54,63.6403330664066
7102,-8.156534,-3.814758,4.464409,0.065057,0.102778,-0.016341,32.54,63.6279557392459
7112,-8.172686,-3.808177,4.460222,0.061392,0.113163,-0.02306,32.49,63.6793086072
7122,-8.155936,-3.791427,4.488338,0.058796,0.123853,-0.027794,32.49,63.4794181706782
7132,-8.176873,-3.696313,4.660022,0.040623,0.125075,-0.030391,32.55,62.5567688554547
7142,-8.190034,-3.802794,4.421339,0.013897,0.118508,-0.0281,32.55,63.9119288807137
7152,-8.180463,-3.798008,4.41416,0.009927,0.122478,-0.031001,32.49,63.9218790491935
7162,-8.185248,-3.800999,4.394419,0.007483,0.12706,-0.03207,32.49,64.0371402671441
7172,-8.188239,-3.800999,4.38724,0.005803,0.131031,-0.034667,32.52,64.0807648076529
7182,-8.202596,-3.786044,4.360321,0.003207,0.132863,-0.036346,32.52,64.2358949354258
7192,-8.190632,-3.790829,4.360321,0.001527,0.134696,-0.036805,32.48,64.2138995377423
7202,-8.190632,-3.738786,4.402793,-0.001374,0.133321,-0.036805,32.48,63.9412217341822
7212,-8.206783,-3.708277,4.439284,-0.01405,0.129045,-0.034514,32.5,63.7593916932399
7222,-8.216354,-3.785445,4.334598,-0.025351,0.123547,-0.03146,32.5,64.3986069306572
7232,-8.221739,-3.769294,4.308876,-0.026573,0.120035,-0.030391,32.51,64.5266925796638
7242,-8.230712,-3.760919,4.307679,-0.027184,0.109956,-0.026878,32.51,64.5443615790026
7252,-8.236693,-3.759125,4.299304,-0.027794,0.103694,-0.025198,32.5,64.5991259294942
7262,-8.24148,-3.768098,4.292126,-0.027947,0.095753,-0.023671,32.52,64.6559872816969
7272,-8.255239,-3.755535,4.282554,-0.027794,0.088117,-0.022602,32.52,64.723270238256
7282,-8.263015,-3.753741,4.280162,-0.026878,0.080023,-0.022602,32.48,64.751069642739
7292,-8.266006,-3.748955,4.28076,-0.026267,0.07025,-0.021991,32.48,64.7497968844243
7302,-8.275578,-3.74058,4.262215,-0.024435,0.060476,-0.022449,32.53,64.8584199359455
7312,-8.277372,-3.735196,4.265206,-0.022755,0.049786,-0.022144,32.53,64.8415473658155
7322,-8.268997,-3.725625,4.251448,-0.020769,0.039248,-0.021838,32.5,64.8846463358833
7332,-8.271988,-3.728616,4.253242,-0.017257,0.027947,-0.022602,32.5,64.8849585723999
7345,-8.279166,-3.729214,4.243073,-0.01405,0.015882,-0.023518,32.54,64.9540692802909
7352,-8.274381,-3.734,4.244269,-0.009621,0.004276,-0.023824,32.54,64.942076931791
7362,-8.274381,-3.728018,4.239483,-0.006109,-0.008247,-0.025045,32.52,64.9609190403415
7372,-8.279166,-3.737589,4.239483,-0.001069,-0.020311,-0.023671,32.52,64.9809895244188
7382,-8.265409,-3.73041,4.25085,0.003054,-0.032834,-0.023366,32.53,64.8845780734362
7392,-8.25464,-3.729812,4.241877,0.007483,-0.044899,-0.021686,32.53,64.906657411164
7402,-8.245069,-3.725625,4.244868,0.011606,-0.056047,-0.020464,32.52,64.8657306113142
7412,-8.224131,-3.738187,4.25743,0.016799,-0.078649,-0.014355,32.52,64.766648163785
7422,-8.225926,-3.73041,4.249653,0.02642,-0.088117,-0.011148,32.52,64.8031600524131
7432,-8.203195,-3.742973,4.268795,0.030238,-0.096822,-0.007178,32.53,64.6658116055891
7442,-8.210971,-3.733402,4.28076,0.033903,-0.104305,-0.002902,32.53,64.6113868005989
7452,-8.18764,-3.733402,4.294518,0.038026,-0.111636,0.002443,32.48,64.4876501924064
7462,-8.190034,-3.739383,4.307081,0.040317,-0.116217,0.008399,32.48,64.4340854103123
7472,-8.176275,-3.753741,4.315455,0.041539,-0.119424,0.013286,32.54,64.3745200805212
7482,-8.169695,-3.74716,4.329813,0.043982,-0.121715,0.01741,32.54,64.2785010255121
7492,-8.163115,-3.748357,4.34058,0.045051,-0.121868,0.021686,32.52,64.2091298430731
7502,-8.158329,-3.751946,4.365705,0.045204,-0.120188,0.02642,32.52,64.0721995198701
7512,-8.164311,-3.758526,4.375276,0.044593,-0.117286,0.029474,32.49,64.0433750596376
7522,-8.155338,-3.767499,4.405187,0.043219,-0.112705,0.03146,32.49,63.8783644812077
7532,-8.149954,-3.742374,4.414758,0.041844,-0.105985,0.032681,32.53,63.7902405087279
7542,-8.16132,-3.75733,4.424927,0.038943,-0.098502,0.034056,32.53,63.7799248281739
7552,-8.163713,-3.760321,4.439882,0.03711,-0.087965,0.034056,32.52,63.7118945660651
7562,-8.151749,-3.75733,4.455436,0.032987,-0.077122,0.031154,32.52,63.6014755214336
7572,-8.159525,-3.765705,4.47398,0.02978,-0.065363,0.028405,32.51,63.5334916930487
7582,-8.157133,-3.769892,4.486543,0.025809,-0.051771,0.020159,32.51,63.4682787792698
7592,-8.154141,-3.767499,4.499703,0.016799,-0.023824,0.013897,32.53,63.391653807886
7602,-8.15773,-3.766303,4.497908,0.013134,-0.008858,0.007025,32.5,63.4078457393404
7612,-8.160124,-3.772285,4.500899,0.008247,0.005956,0.000305,32.5,63.4045475826738
7622,-8.161918,-3.77049,4.504489,0.00504,0.021991,-0.007789,32.55,63.388490585019
7632,-8.169695,-3.768098,4.494917,0.001374,0.038026,-0.014508,32.55,63.4527063735203
7642,-8.161918,-3.765106,4.493123,-0.001985,0.052229,-0.022755,32.5,63.4406673427437
7652,-8.175676,-3.780062,4.481757,-0.00504,0.067653,-0.030391,32.5,63.546339208369
7662,-8.173882,-3.780062,4.478765,-0.007483,0.081092,-0.036652,32.5,63.5574666320692
7672,-8.169096,-3.776472,4.466802,-0.009621,0.093462,-0.043066,32.5,63.6036925272599
7682,-8.169695,-3.769892,4.454837,-0.011454,0.105985,-0.048717,32.49,63.6592346072674
7692,-8.172686,-3.764508,4.443472,-0.012523,0.115912,-0.054367,32.49,63.7185550762028
7702,-8.175079,-3.768098,4.430311,-0.014203,0.124769,-0.058948,32.5,63.7952404720553
7712,-8.175676,-3.767499,4.41416,-0.015424,0.1321,-0.062919,32.5,63.8787882537428
7722,-8.190632,-3.75733,4.401597,-0.015882,0.137597,-0.065057,32.5,63.9667256505554
7732,-8.194819,-3.762115,4.378268,-0.01573,0.142179,-0.066279,32.5,64.1010967765774
7742,-8.190034,-3.762115,4.357928,-0.01573,0.144622,-0.067042,32.54,64.1949456282289
7752,-8.204989,-3.756134,4.331607,-0.015424,0.145233,-0.066737,32.54,64.3582448114335
7762,-8.2014,-3.764508,4.31725,-0.015882,0.140194,-0.062461,32.5,64.4329385581634
7772,-8.210373,-3.758526,4.297509,-0.015119,0.135154,-0.059559,32.53,64.5489734966471
7782,-8.22473,-3.762115,4.283751,-0.015577,0.128434,-0.056352,32.53,64.6558924575439
7792,-8.233105,-3.760321,4.271787,-0.015882,0.12034,-0.052229,32.49,64.7346280592541
7802,-8.247462,-3.756134,4.26401,-0.015272,0.110414,-0.047953,32.49,64.8025140959254
7812,-8.243275,-3.753142,4.258028,-0.014508,0.09896,-0.041997,32.55,64.8211916960911
7822,-8.248059,-3.757928,4.250251,-0.014813,0.087201,-0.037874,32.55,64.8769046591287
7832,-8.261221,-3.748357,4.239483,-0.014203,0.073609,-0.033598,32.51,64.9521720971075
7842,-8.261221,-3.75733,4.236493,-0.01237,0.060476,-0.028863,32.51,64.9766565772132
7852,-8.27139,-3.745964,4.225725,-0.011606,0.045968,-0.023366,32.5,65.0435175179509
7862,-8.255836,-3.754937,4.226922,-0.010537,0.030085,-0.01909,32.5,65.0120440847184
7872,-8.263614,-3.748955,4.229314,-0.008399,0.015272,-0.015424,32.49,65.0107751892914
7882,-8.273185,-3.742374,4.22752,-0.00672,-0.000305,-0.013134,32.49,65.0345822726358
7892,-8.264212,-3.757928,4.224528,-0.005345,-0.014661,-0.009774,32.5,65.0458826851255
7902,-8.268997,-3.744768,4.235895,-0.002138,-0.028253,-0.007025,32.5,64.984327096533
7912,-8.271988,-3.762714,4.241278,0.001069,-0.041997,-0.004276,32.52,64.9809566920499
7922,-8.266603,-3.755535,4.265206,0.003818,-0.054367,-0.00336,32.52,64.8380968146606
7932,-8.249256,-3.76391,4.272385,0.007178,-0.0759,-0.001527,32.5,64.7710185044649
7942,-8.242676,-3.77408,4.28734,0.013439,-0.085063,-0.001222,32.52,64.6894465544113
7952,-8.239087,-3.755535,4.292126,0.01741,-0.091935,-0.00168,32.52,64.6378896733507
7962,-8.233703,-3.771089,4.297509,0.02138,-0.098502,-0.001985,32.48,64.6139235590633
7972,-8.228318,-3.764508,4.31725,0.025656,-0.103084,-0.004581,32.48,64.4932924368094
7982,-8.215158,-3.767499,4.326224,0.029322,-0.106138,-0.005345,32.56,64.420585109999
7992,-8.202596,-3.767499,4.341179,0.031765,-0.107818,-0.006261,32.56,64.3152237382436
8002,-8.193623,-3.768696,4.354339,0.034972,-0.10736,-0.008552,32.52,64.228397206313
8012,-8.194819,-3.76391,4.369295,0.038485,-0.105527,-0.009468,32.52,64.1491203864681
8022,-8.172686,-3.772883,4.380062,0.041081,-0.102625,-0.011759,32.55,64.0528562846271
8032,-8.175676,-3.775874,4.383651,0.04383,-0.09896,-0.012523,32.55,64.0443277240495
8042,-8.158927,-3.783651,4.389633,0.044746,-0.093157,-0.01237,32.5,63.9836304830289
8052,-8.148758,-3.775874,4.398008,0.04612,-0.085368,-0.012828,32.5,63.9091022842485
8062,-8.134999,-3.786044,4.414758,0.047037,-0.077733,-0.013744,32.52,63.8022610098597
8072,-8.134401,-3.782454,4.42732,0.047342,-0.068264,-0.013897,32.52,63.7325046886031
8082,-8.132008,-3.782454,4.430909,0.047342,-0.058032,-0.012065,32.54,63.7085709505431
8092,-8.123035,-3.790829,4.442276,0.047189,-0.047647,-0.010843,32.54,63.6385453454709
8102,-8.109874,-3.775276,4.439882,0.045815,-0.036041,-0.007789,32.5,63.6037247444459
8112,-8.099705,-3.781258,4.448855,0.041233,-0.011454,-0.004276,32.5,63.5405381221209
8122,-8.106285,-3.771089,4.448257,0.039095,-0.000153,-0.002902,32.5,63.5478758452748
8132,-8.106883,-3.786044,4.456632,0.036346,0.011759,-0.000153,32.49,63.5224123697165
8142,-8.106883,-3.793222,4.44407,0.033445,0.024587,0.003665,32.49,63.5946534254639
8152,-8.114061,-3.771089,4.448257,0.030238,0.036194,0.006414,32.51,63.5658856130947
8162,-8.120044,-3.769294,4.441079,0.026725,0.047189,0.01069,32.51,63.6146569432184
8172,-8.12782,-3.768696,4.44407,0.023518,0.057421,0.012981,32.49,63.6166249803176
8182,-8.129615,-3.771687,4.42732,0.020311,0.066737,0.015272,32.49,63.7099879848968
8192,-8.146963,-3.760321,4.43749,0.016493,0.0759,0.017562,32.52,63.6856107350526
8202,-8.160124,-3.761517,4.418347,0.013134,0.083841,0.019395,32.52,63.8153853490551
8212,-8.161918,-3.768098,4.424329,0.009774,0.091324,0.019548,32.53,63.795754911747
8222,-8.169695,-3.759125,4.409374,0.007025,0.09728,0.020159,32.53,63.88086626044
8232,-8.182856,-3.759125,4.402196,0.003971,0.102931,0.0197,32.54,63.9477983866157
8242,-8.195418,-3.748357,4.391428,0.001222,0.106749,0.017868,32.54,64.0204893024291
8252,-8.219346,-3.754937,4.377071,-0.001374,0.109345,0.015882,32.54,64.1553729026378
8262,-8.230712,-3.74058,4.375276,-0.003207,0.111025,0.012828,32.54,64.1755052795391
8272,-8.246863,-3.735795,4.353143,-0.005498,0.111788,0.008552,32.54,64.3207639946309
8282,-8.269596,-3.737589,4.353741,-0.00901,0.109498,-0.002291,32.55,64.370609289622
8292,-8.278568,-3.734,4.341777,-0.010385,0.106596,-0.008705,32.55,64.4485032047506
8302,-8.282756,-3.732205,4.33041,-0.011759,0.101862,-0.016188,32.47,64.5144511813365
8312,-8.286345,-3.726821,4.325625,-0.012981,0.096822,-0.02474,32.47,64.541647692158
8322,-8.295319,-3.720839,4.313063,-0.013439,0.089797,-0.031918,32.54,64.6202654711743
8332,-8.289934,-3.73041,4.314857,-0.012523,0.082925,-0.039248,32.54,64.6086210104269
8342,-8.309077,-3.728018,4.302894,-0.012981,0.074984,-0.047953,32.52,64.7102972795407
8352,-8.29472,-3.722634,4.305286,-0.013134,0.065821,-0.055283,32.52,64.6607449429089
8362,-8.296515,-3.722634,4.289135,-0.011912,0.056658,-0.062156,32.54,64.7479235274912
8372,-8.285149,-3.720839,4.283751,-0.011606,0.04612,-0.068264,32.54,64.7486789759339
8382,-8.289336,-3.728018,4.278367,-0.010537,0.036041,-0.073915,32.5,64.7929045850998
8392,-8.286943,-3.720839,4.273581,-0.009163,0.024893,-0.079565,32.5,64.8051606166361
8402,-8.282157,-3.728018,4.27059,-0.00733,0.01405,-0.082925,32.52,64.8171564961907
8412,-8.27139,-3.720839,4.276572,-0.006261,0.003512,-0.084605,32.52,64.7551898416318
8422,-8.256434,-3.721437,4.268198,-0.004581,-0.008094,-0.086743,32.51,64.7658506360543
8432,-8.228917,-3.732804,4.272983,-0.001222,-0.017868,-0.085979,32.51,64.6912121400223
8442,-8.222337,-3.73041,4.269992,0,-0.026725,-0.083994,32.49,64.6896027555051
8452,-8.219346,-3.729812,4.277769,0.002443,-0.04444,-0.077885,32.49,64.6419890093975
8462,-8.200802,-3.74058,4.275376,0.00733,-0.052382,-0.072082,32.52,64.6238588942515
8472,-8.2014,-3.739982,4.28076,0.009621,-0.058338,-0.06521,32.54,64.5966561137831
8482,-8.181061,-3.752544,4.289135,0.01237,-0.064752,-0.05849,32.54,64.5204641649558
8492,-8.172686,-3.758526,4.296313,0.014203,-0.068875,-0.049786,32.5,64.4705769419861
8502,-8.170892,-3.754937,4.307081,0.017257,-0.072998,-0.041233,32.5,64.4069912726926
8512,-8.154739,-3.756134,4.319045,0.019548,-0.075289,-0.032681,32.54,64.3097273944988
8522,-8.13799,-3.761517,4.325027,0.022449,-0.076664,-0.023671,32.54,64.2463770963287
8532,-8.140383,-3.771687,4.337589,0.023518,-0.07758,-0.014813,32.47,64.1974210080579
8542,-8.13141,-3.77049,4.347759,0.026114,-0.077274,-0.006567,32.47,64.12311923028
8552,-8.136793,-3.773481,4.345964,0.027336,-0.075595,0.001374,32.54,64.147813164108
8562,-8.136793,-3.779463,4.363312,0.029627,-0.073151,0.009468,32.54,64.064459672041
8572,-8.123632,-3.791427,4.373481,0.031154,-0.068875,0.016799,32.52,63.9946437194663
8582,-8.127223,-3.795017,4.386044,0.033139,-0.063835,0.022449,32.52,63.9418586073892
8592,-8.129017,-3.787838,4.386044,0.034972,-0.058948,0.027184,32.51,63.9383064558822
8602,-8.13141,-3.786642,4.402793,0.035583,-0.053451,0.030238,32.51,63.856223951639
8612,-8.139186,-3.784847,4.42074,0.035888,-0.045509,0.032681,32.51,63.7798457208574
8622,-8.143373,-3.794419,4.426124,0.036652,-0.037874,0.034972,32.51,63.7720184449634
8632,-8.140383,-3.803392,4.428516,0.037568,-0.018784,0.033598,32.51,63.7624867080657
8642,-8.143971,-3.800999,4.435695,0.037721,-0.009621,0.031612,32.51,63.7313316933159
8652,-8.14457,-3.798606,4.439882,0.036041,0.000611,0.028253,32.51,63.7086840705504
8662,-8.146365,-3.806383,4.446463,0.03543,0.012217,0.025198,32.55,63.6874208811968
8672,-8.160722,-3.799803,4.453641,0.034514,0.022602,0.020464,32.55,63.6765832127306
8682,-8.170892,-3.805186,4.447659,0.033292,0.032834,0.015119,32.5,63.7361961916603
8692,-8.172686,-3.795017,4.454837,0.03146,0.043677,0.010079,32.5,63.6927931055898
8702,-8.17149,-3.799204,4.456034,0.029016,0.054214,0.00504,32.55,63.6883943136176
8712,-8.185846,-3.789035,4.442873,0.027031,0.064294,-0.001833,32.55,63.7777028011531
8722,-8.193025,-3.798606,4.441079,0.024587,0.07254,-0.007941,32.5,63.8133727110234
8732,-8.188239,-3.790231,4.435695,0.021991,0.081245,-0.012065,32.5,63.8211311722302
8742,-8.199007,-3.786642,4.423731,0.019395,0.087506,-0.017715,32.53,63.9030842073528
8752,-8.21157,-3.777071,4.418347,0.016035,0.094379,-0.022755,32.53,63.9491664467803
8762,-8.205587,-3.78724,4.400401,0.013286,0.098044,-0.027489,32.48,64.0381171611573
8772,-8.216354,-3.775874,4.400401,0.010537,0.101709,-0.030238,32.48,64.0506507736243
8782,-8.223534,-3.777669,4.375875,0.006567,0.104153,-0.034208,32.49,64.1944932142654
8792,-8.218149,-3.772285,4.359125,0.003818,0.10568,-0.036805,32.49,64.2628209494322
8802,-8.230114,-3.775874,4.345964,-0.001833,0.103236,-0.040317,32.52,64.3610968381252
8812,-8.236693,-3.760919,4.33041,-0.003971,0.099113,-0.041233,32.5,64.4405473385426
8822,-8.238488,-3.753142,4.32742,-0.00672,0.094684,-0.041844,32.5,64.4520226130596
8832,-8.239684,-3.759125,4.31067,-0.007941,0.089186,-0.040775,32.52,64.5471437222129
8842,-8.236095,-3.745365,4.306482,-0.009621,0.082161,-0.041233,32.52,64.5467237881123
8852,-8.246863,-3.738786,4.290929,-0.01069,0.074831,-0.039401,32.5,64.6444360020816
8862,-8.252247,-3.734598,4.284947,-0.011759,0.066126,-0.037721,32.5,64.6831233827094
8872,-8.250452,-3.733402,4.281358,-0.012523,0.056352,-0.03711,32.49,64.6964744001149
8882,-8.239684,-3.729214,4.269393,-0.013286,0.045662,-0.034972,32.49,64.7301942027834
8892,-8.250452,-3.725027,4.267001,-0.013592,0.03543,-0.033139,32.53,64.7623438012847
8902,-8.260024,-3.722036,4.261019,-0.012217,0.025198,-0.031154,32.53,64.8115995680981
8912,-8.249256,-3.729214,4.266403,-0.010232,0.014203,-0.02978,32.52,64.7669879509391
8922,-8.246264,-3.732205,4.262814,-0.008858,0.003818,-0.027794,32.52,64.7819339853103
8932,-8.248658,-3.723232,4.252046,-0.007025,-0.00733,-0.026267,32.48,64.8340581664902
8942,-8.233703,-3.721437,4.271188,-0.004581,-0.017715,-0.024129,32.48,64.6997090347426
8952,-8.245069,-3.722634,4.262215,-0.001069,-0.027184,-0.023366,32.53,64.7727568006397
8962,-8.217552,-3.718446,4.269393,0.00168,-0.035888,-0.022144,32.53,64.6698931004137
8972,-8.231908,-3.720839,4.272385,0.004429,-0.051924,-0.019395,32.51,64.6888928977032
8982,-8.226524,-3.71725,4.296911,0.011606,-0.058185,-0.017715,32.51,64.5461899726144
8992,-8.204391,-3.725625,4.302295,0.016341,-0.063835,-0.01741,32.51,64.4770968205696
9002,-8.200802,-3.722634,4.310072,0.019395,-0.067653,-0.016799,32.52,64.4256857623087
9012,-8.198408,-3.736392,4.312464,0.022907,-0.07086,-0.015272,32.52,64.4220179218145
9022,-8.203793,-3.735196,4.329813,0.026114,-0.072998,-0.015119,32.55,64.3432534022604
9032,-8.192427,-3.739982,4.34058,0.029932,-0.073915,-0.013897,32.55,64.2668932783825
9042,-8.183454,-3.741776,4.346562,0.032834,-0.074526,-0.01237,32.57,64.2175354949096
9052,-8.179267,-3.735196,4.356134,0.034819,-0.072998,-0.011759,32.57,64.1517890811585
9062,-8.160722,-3.74716,4.366303,0.036499,-0.070097,-0.010843,32.51,64.069555071318
9072,-8.155338,-3.742374,4.381856,0.037874,-0.06689,-0.009316,32.51,63.9720136842965
9082,-8.1679,-3.750151,4.39083,0.039095,-0.062003,-0.008094,32.48,63.9626745743433
9092,-8.163713,-3.745365,4.386642,0.039859,-0.057269,-0.007178,32.48,63.9696461113849
9102,-8.154739,-3.771089,4.413561,0.039554,-0.050549,-0.005651,32.53,63.8377541757585
9112,-8.142178,-3.768696,4.41416,0.038637,-0.04383,-0.004276,32.53,63.803333043154
9122,-8.154739,-3.766303,4.419543,0.037415,-0.036346,-0.00336,32.52,63.8019579217817
9132,-8.140981,-3.769892,4.435097,0.035736,-0.028711,-0.003512,32.52,63.6943040485776
9142,-8.13141,-3.771687,4.439882,0.034667,-0.010232,-0.002596,32.5,63.6496075773798
9152,-8.141579,-3.773481,4.432106,0.02978,-0.000458,-0.000305,32.54,63.7148576989766
9162,-8.140981,-3.778267,4.435695,0.026573,0.009621,-0.001069,32.54,63.700169898741
9172,-8.140383,-3.773481,4.436892,0.023366,0.018784,-0.000764,32.52,63.6875441805843
9182,-8.139186,-3.783053,4.445865,0.020464,0.028253,-0.002291,32.52,63.6489995291281
9192,-8.14457,-3.781258,4.439882,0.017104,0.037568,-0.002291,32.57,63.6901416455791
9202,-8.151151,-3.789633,4.441079,0.014508,0.046273,-0.003665,32.57,63.7080644589422
9212,-8.151151,-3.781258,4.424329,0.011301,0.055436,-0.00504,32.53,63.7850334094722
9222,-8.161918,-3.776472,4.430909,0.009163,0.063072,-0.007178,32.53,63.7708810190416
9232,-8.159525,-3.78066,4.42074,0.006261,0.070555,-0.009316,32.44,63.8219971692162
9242,-8.166704,-3.795615,4.415356,0.003665,0.077122,-0.011759,32.44,63.8818747675
9252,-8.17448,-3.785445,4.405785,0.002138,0.082772,-0.014355,32.5,63.937952098158
9262,-8.181061,-3.78066,4.408776,0.000916,0.088575,-0.017868,32.5,63.9325533147353
9272,-8.194221,-3.786044,4.390232,0,0.092241,-0.020464,32.52,64.0632669138128
9282,-8.210971,-3.775874,4.383053,-0.000764,0.096211,-0.022755,32.52,64.1274239424852
9292,-8.2014,-3.779463,4.373481,-0.002749,0.098655,-0.025962,32.49,64.1586803694126
9302,-8.220542,-3.777071,4.35733,-0.002596,0.099876,-0.028863,32.49,64.2823843792774
9312,-8.22772,-3.765106,4.344768,-0.002749,0.100793,-0.035888,32.51,64.3507972181589
9322,-8.232506,-3.773481,4.338786,-0.003971,0.097586,-0.038179,32.54,64.40092522382
9332,-8.246863,-3.766901,4.33041,-0.003818,0.094684,-0.040012,32.54,64.4694215767468
9346,-8.250452,-3.763312,4.317849,-0.004123,0.091019,-0.042455,32.49,64.5384440239298
9352,-8.245667,-3.753741,4.314857,-0.004581,0.085979,-0.04383,32.49,64.533438434753
9362,-8.257631,-3.75733,4.304688,-0.003818,0.080023,-0.044288,32.51,64.6161858383037
9372,-8.250452,-3.763312,4.289733,-0.00336,0.07254,-0.045051,32.51,64.683431592977
9382,-8.267202,-3.75075,4.295715,-0.003512,0.064294,-0.045051,32.51,64.6770872067167
9392,-8.268997,-3.754937,4.278367,-0.003512,0.054978,-0.045051,32.51,64.7747991716168
9402,-8.261818,-3.75075,4.275974,-0.002902,0.045509,-0.04383,32.47,64.7670378516472
9412,-8.269596,-3.743571,4.260421,-0.003971,0.033903,-0.041692,32.47,64.8574609379328
9422,-8.265409,-3.753741,4.269992,-0.00336,0.023366,-0.041233,32.48,64.8089146963881
9432,-8.253444,-3.744169,4.262814,-0.002902,0.011606,-0.039401,32.48,64.8099099810665
9442,-8.257033,-3.746562,4.261019,-0.001985,-0.000305,-0.036957,32.51,64.8295614357179
9452,-8.254042,-3.738786,4.252644,-0.001527,-0.012675,-0.033445,32.51,64.8584999969385
9462,-8.248658,-3.748955,4.256832,-0.000458,-0.023824,-0.031307,32.46,64.8350960764855
9472,-8.242676,-3.738187,4.264608,0.000305,-0.035583,-0.027947,32.46,64.7706886006071
9482,-8.238488,-3.74716,4.268795,0.001222,-0.046426,-0.025962,32.52,64.7487516727618
9492,-8.233105,-3.751946,4.282554,0.004581,-0.066584,-0.0197,32.52,64.6704027297491
9502,-8.221141,-3.754339,4.287939,0.006414,-0.075289,-0.01573,32.54,64.6182860587573
9512,-8.212168,-3.756732,4.288536,0.008552,-0.08262,-0.013286,32.48,64.5975900055936
9522,-8.207382,-3.743571,4.315455,0.011301,-0.088575,-0.011606,32.48,64.4341259421206
9532,-8.204989,-3.755535,4.311268,0.013134,-0.09331,-0.009621,32.53,64.4626772923993
9542,-8.184052,-3.75075,4.315455,0.017104,-0.096822,-0.007483,32.53,64.3889701057541
9552,-8.186445,-3.752544,4.337589,0.0197,-0.098807,-0.006261,32.53,64.2818045322487
9562,-8.17448,-3.762115,4.34417,0.021991,-0.099571,-0.005956,32.53,64.2306930498356
9572,-8.176275,-3.769294,4.359125,0.025198,-0.097128,-0.003512,32.52,64.1650910059244
9582,-8.170293,-3.757928,4.378268,0.028558,-0.093768,-0.003665,32.52,64.0409630598814
9592,-8.160124,-3.761517,4.386642,0.03146,-0.089797,-0.00336,32.54,63.978416612884
9602,-8.159525,-3.759125,4.40399,0.034361,-0.083383,-0.003207,32.54,63.8852603485892
9612,-8.139785,-3.772883,4.417749,0.035736,-0.076053,-0.002749,32.51,63.7838413405066
9622,-8.150552,-3.771089,4.421937,0.037721,-0.067195,-0.002749,32.51,63.7851340081215
9632,-8.136195,-3.77049,4.429713,0.039554,-0.056963,-0.003512,32.54,63.7115660734566
9642,-8.132008,-3.765705,4.442276,0.041233,-0.045662,-0.003665,32.54,63.6323028300902
9652,-8.126026,-3.766303,4.461418,0.041539,-0.033445,-0.003512,32.53,63.520932892633
9662,-8.116454,-3.776472,4.466802,0.042455,-0.007483,-0.003512,32.53,63.482101846135
9672,-8.118249,-3.77049,4.463212,0.041539,0.005803,-0.004123,32.52,63.4982167430792
9682,-8.10808,-3.773481,4.465605,0.040012,0.019548,-0.004581,32.52,63.4655821775506
9692,-8.127223,-3.768696,4.4674,0.039401,0.033598,-0.004887,32.52,63.4956264246364
9702,-8.123632,-3.768696,4.473382,0.03711,0.047953,-0.002749,32.52,63.45666518129
9712,-8.127223,-3.771687,4.456034,0.034514,0.061239,-0.001833,32.52,63.5570817611836
9722,-8.146365,-3.769294,4.461418,0.031612,0.073609,-0.000611,32.52,63.5711733993432
9732,-8.136195,-3.768696,4.446463,0.030085,0.085216,0.000611,32.52,63.623682955651
9742,-8.13799,-3.772285,4.43749,0.025809,0.096211,0.001222,32.51,63.6776887772989
9752,-8.147561,-3.763312,4.426722,0.022907,0.105222,0.002596,32.51,63.7454349495264
9762,-8.155338,-3.76391,4.405785,0.019853,0.113316,0.002902,32.47,63.8714957371351
9772,-8.164909,-3.77408,4.399205,0.016646,0.119424,0.004276,32.47,63.937940835656
9782,-8.173882,-3.77049,4.38724,0.011912,0.124617,0.005498,32.53,64.0161345979409
9792,-8.179864,-3.759723,4.375276,0.008552,0.128434,0.005803,32.53,64.0800293557143
9802,-8.189436,-3.764508,4.366901,0.006414,0.129503,0.005956,32.5,64.1498671062154
9812,-8.200203,-3.759723,4.352544,0.003971,0.128129,0.004734,32.5,64.243202577326
9822,-8.216354,-3.751946,4.326224,0.001222,0.126755,0.004429,32.52,64.4072851747516
9832,-8.239087,-3.74716,4.317849,-0.000916,0.122784,0.001833,32.52,64.4965957427506
9842,-8.260622,-3.753142,4.308277,-0.003971,0.11133,-0.000611,32.51,64.6001086458516
9852,-8.256434,-3.751348,4.305884,-0.00504,0.102931,-0.003665,32.54,64.6012951626634
9862,-8.268997,-3.746562,4.290929,-0.006109,0.094684,-0.006414,32.54,64.701541720897
9872,-8.293524,-3.738786,4.291527,-0.007636,0.083994,-0.01237,32.53,64.7450709444437
9882,-8.294122,-3.749553,4.287939,-0.00733,0.073915,-0.016799,32.53,64.7756369689106
9892,-8.313264,-3.719643,4.282554,-0.006872,0.062156,-0.021533,32.51,64.8159609755946
9902,-8.321639,-3.738786,4.278965,-0.00672,0.050244,-0.027794,32.51,64.8718681299399
9912,-8.325229,-3.745964,4.273581,-0.007025,0.038026,-0.034208,32.52,64.9145833433084
9922,-8.327023,-3.738187,4.28076,-0.007178,0.026114,-0.041539,32.52,64.8738929452888
9932,-8.326425,-3.741776,4.276572,-0.007025,0.014203,-0.048106,32.53,64.8976764343716
9942,-8.313264,-3.737589,4.278965,-0.006567,0.002749,-0.053909,32.53,64.8522244591202
9952,-8.297711,-3.734,4.282554,-0.005956,-0.008552,-0.060018,32.51,64.7958089380407
9962,-8.306684,-3.732205,4.288536,-0.006261,-0.018784,-0.065821,32.51,64.7830532123182
9972,-8.296515,-3.720241,4.288536,-0.005192,-0.028711,-0.070402,32.48,64.7486299930807
9982,-8.299506,-3.720241,4.293921,-0.005192,-0.038179,-0.075442,32.48,64.7275173364573
9992,-8.285149,-3.715455,4.305884,-0.004734,-0.046578,-0.079718,32.51,64.6291851810037
10002,-8.25165,-3.731009,4.309474,-0.004276,-0.054367,-0.08262,32.51,64.5515161660116
10012,-8.237292,-3.736392,4.307081,-0.001374,-0.066432,-0.083383,32.5,64.537189057776
10022,-8.222935,-3.738187,4.313063,-0.000153,-0.071624,-0.08323,32.5,64.4759303740812
10032,-8.212766,-3.741776,4.316054,0.00168,-0.075289,-0.079565,32.5,64.4412993063864
10042,-8.17448,-3.738786,4.314857,0.002902,-0.077733,-0.076511,32.52,64.3580801701386
10052,-8.160722,-3.74716,4.320839,0.006109,-0.079871,-0.071471,32.52,64.304635124912
10062,-8.159525,-3.744768,4.316652,0.009621,-0.081551,-0.065515,32.52,64.3211341760156
10072,-8.13799,-3.748357,4.321437,0.011759,-0.082467,-0.059407,32.52,64.2512025198455
10082,-8.129017,-3.765106,4.329813,0.015119,-0.081245,-0.050091,32.5,64.2049508267319
10092,-8.120642,-3.766901,4.33041,0.018326,-0.080481,-0.04215,32.5,64.1846953772988
10102,-8.117052,-3.764508,4.341179,0.021228,-0.078038,-0.032376,32.47,64.1181474531224
10112,-8.120044,-3.766901,4.345964,0.024129,-0.076205,-0.023824,32.47,64.1027117444936
10122,-8.118848,-3.77408,4.35733,0.027794,-0.07254,-0.014203,32.5,64.0487500607197
10132,-8.109276,-3.774678,4.359723,0.031765,-0.067959,-0.005345,32.5,64.0151274191011
10142,-8.101499,-3.78066,4.372285,0.034056,-0.062919,0.003207,32.54,63.9387108914558
10152,-8.105686,-3.778865,4.38066,0.036652,-0.057727,0.011301,32.54,63.9030984760299
10162,-8.110473,-3.789035,4.395615,0.038637,-0.052534,0.017104,32.54,63.8477710976282
10172,-8.099705,-3.783053,4.401597,0.040012,-0.046273,0.022755,32.54,63.7857541684316
10182,-8.117651,-3.788436,4.417151,0.041692,-0.030696,0.031612,32.51,63.752681387594
10192,-8.119445,-3.794419,4.423133,0.043219,-0.021991,0.034361,32.47,63.7324632255721
10202,-8.11466,-3.793222,4.432704,0.044593,-0.012523,0.035736,32.47,63.6709756293572
10212,-8.124829,-3.792026,4.442873,0.043524,-0.002749,0.035736,32.5,63.6409027344269
10222,-8.13141,-3.795017,4.438088,0.043371,0.008094,0.03543,32.5,63.6838099018959
10232,-8.143971,-3.78724,4.452445,0.042608,0.018937,0.033292,32.5,63.630785014763
10242,-8.136195,-3.790829,4.459025,0.041692,0.030849,0.031307,32.5,63.5830288105873
10252,-8.136793,-3.786044,4.46381,0.040317,0.043066,0.028253,32.51,63.5547748675954
10262,-8.146963,-3.78066,4.462016,0.038637,0.054978,0.025656,32.51,63.5816450129417
10272,-8.159525,-3.791427,4.470989,0.036957,0.06689,0.021686,32.51,63.5762323857261
10282,-8.163713,-3.780062,4.4674,0.034056,0.079107,0.017715,32.51,63.592070571093
10292,-8.170892,-3.78066,4.456632,0.031307,0.090713,0.012217,32.58,63.6642400816882
10302,-8.17807,-3.778865,4.45065,0.028253,0.102014,0.008247,32.58,63.7093845450199
10312,-8.195418,-3.771687,4.447061,0.026573,0.111636,0.003512,32.52,63.7598780127121
10322,-8.194221,-3.777071,4.445267,0.02306,0.121715,-0.002443,32.52,63.771978476082
10332,-8.203195,-3.778267,4.421937,0.020464,0.129503,-0.007178,32.51,63.9130043001923
10342,-8.203793,-3.77408,4.401597,0.017257,0.135612,-0.011301,32.51,64.0141651290394
10352,-8.224131,-3.762115,4.400999,0.014508,0.140346,-0.020006,32.5,64.0509150448685
10362,-8.238488,-3.760919,4.377669,0.008094,0.14508,-0.025351,32.53,64.2017138534999
10372,-8.236693,-3.754937,4.354938,0.005345,0.144011,-0.028558,32.53,64.3082265871572
10382,-8.255836,-3.747759,4.338786,0.002749,0.141415,-0.031612,32.56,64.426911436703
10392,-8.258827,-3.75733,4.319045,0.000305,0.137445,-0.036194,32.56,64.5448901815528
10402,-8.274979,-3.742973,4.298108,-0.002138,0.131489,-0.03879,32.5,64.6742036270311
10412,-8.283952,-3.739982,4.293921,-0.004429,0.122478,-0.041539,32.5,64.7127082257427
10422,-8.274979,-3.731009,4.289135,-0.006109,0.11301,-0.043524,32.54,64.7084699036279
10432,-8.288139,-3.735795,4.265206,-0.007789,0.10064,-0.043982,32.54,64.8659518735029
10442,-8.283354,-3.739982,4.255635,-0.008399,0.087812,-0.045815,32.53,64.9090199250614
10452,-8.288737,-3.733402,4.242475,-0.008705,0.073762,-0.047647,32.53,64.9824218545447
10462,-8.297112,-3.720241,4.229314,-0.009316,0.058338,-0.048564,32.53,65.0559828037608
10472,-8.286943,-3.72383,4.22393,-0.008399,0.04215,-0.0478,32.53,65.0650702928957
10482,-8.279166,-3.728018,4.221537,-0.007636,0.025504,-0.047189,32.51,65.0645218025013
10492,-8.286943,-3.720241,4.22094,-0.006567,0.009163,-0.04612,32.51,65.0770331853092
10502,-8.282756,-3.716652,4.214359,-0.005498,-0.007636,-0.044746,32.51,65.0984378963709
10512,-8.27139,-3.729214,4.21735,-0.003665,-0.024282,-0.043677,32.51,65.0703335262553
10522,-8.260024,-3.722634,4.224528,-0.001985,-0.039554,-0.04215,32.52,65.0014604615836
10532,-8.256434,-3.720839,4.235895,0.002596,-0.068875,-0.037721,32.53,64.9327079777474
10542,-8.243275,-3.720839,4.243671,0.00504,-0.081551,-0.035736,32.53,64.8631642606384
10552,-8.252247,-3.723232,4.254438,0.007483,-0.092852,-0.033903,32.51,64.8296257137594
10562,-8.22772,-3.726821,4.271787,0.009927,-0.102625,-0.031612,32.51,64.6886842767126
10572,-8.219944,-3.728616,4.28734,0.012523,-0.110414,-0.029932,32.56,64.5925218374972
10582,-8.203195,-3.726223,4.293921,0.015424,-0.117439,-0.027489,32.56,64.5183959045362
10592,-8.204989,-3.729214,4.317849,0.018784,-0.121562,-0.025962,32.5,64.4016364847418
10602,-8.17807,-3.726223,4.32742,0.02138,-0.124158,-0.024587,32.5,64.2881723799035
10612,-8.181061,-3.734598,4.352544,0.023366,-0.123547,-0.022144,32.55,64.1737761930702
10622,-8.17448,-3.731607,4.366303,0.025809,-0.121868,-0.020617,32.55,64.0846894033857
10632,-8.164311,-3.744169,4.377071,0.027794,-0.118508,-0.018631,32.48,64.0190753265827
10642,-8.155338,-3.741776,4.386642,0.029627,-0.113621,-0.01741,32.48,63.946714767484
10652,-8.142776,-3.748357,4.405187,0.031612,-0.106596,-0.017104,32.52,63.8293078470541
10662,-8.132606,-3.750151,4.421339,0.032681,-0.098349,-0.01573,32.52,63.7246761563123
10672,-8.137392,-3.759723,4.435097,0.033139,-0.087812,-0.014355,32.51,63.6751954492143
10682,-8.12782,-3.762115,4.443472,0.034361,-0.076664,-0.012523,32.51,63.6126501974171
10692,-8.117651,-3.75733,4.466204,0.034514,-0.064446,-0.01237,32.5,63.4673292935687
10702,-8.11466,-3.766901,4.467998,0.033903,-0.036194,-0.011301,32.5,63.4614895847875
10712,-8.108678,-3.778865,4.469195,0.032529,-0.022755,-0.011301,32.48,63.4543853650788
10722,-8.106883,-3.779463,4.472784,0.03146,-0.009163,-0.009774,32.54,63.4324719669652
10732,-8.111669,-3.784847,4.473382,0.030391,0.005345,-0.010385,32.54,63.4463447931612
10742,-8.111669,-3.786044,4.471587,0.030085,0.01909,-0.009468,32.48,63.4568343226841
10752,-8.111669,-3.788436,4.462016,0.0281,0.033598,-0.00901,32.48,63.5084673045299
10762,-8.105686,-3.779463,4.455436,0.025962,0.046426,-0.007789,32.51,63.5186632339611
10772,-8.122437,-3.786642,4.456632,0.024282,0.059254,-0.007789,32.51,63.559032631528
10782,-8.134401,-3.78724,4.456632,0.021838,0.069791,-0.008399,32.54,63.5872919405381
10792,-8.129017,-3.800999,4.432704,0.020464,0.08094,-0.007789,32.54,63.71235951814
10802,-8.135597,-3.792026,4.429115,0.018937,0.090408,-0.007483,32.52,63.7362719277187
10812,-8.140383,-3.788436,4.422534,0.017868,0.098197,-0.006261,32.52,63.7772064236492
10822,-8.151749,-3.781856,4.398008,0.016341,0.105527,-0.00672,32.54,63.9222741993384
10832,-8.163115,-3.790829,4.395615,0.014661,0.111483,-0.006414,32.54,63.9699923477296
10842,-8.179267,-3.791427,4.393821,0.013592,0.115301,-0.006261,32.52,64.016566499395
10852,-8.182856,-3.783651,4.379463,0.012065,0.118813,-0.007789,32.52,64.0903238581938
10862,-8.189436,-3.784847,4.357928,0.011148,0.120951,-0.006872,32.5,64.2172743652483
10872,-8.206185,-3.778865,4.353741,0.009468,0.120799,-0.00901,32.5,64.2703801920227
10882,-8.209177,-3.766303,4.338786,0.007178,0.118202,-0.010537,32.49,64.3411414509882
10892,-8.227122,-3.769892,4.329215,0.00672,0.115759,-0.011912,32.51,64.4344546695765
10902,-8.230114,-3.768098,4.328018,0.005651,0.11133,-0.013897,32.51,64.4454836193979
10912,-8.243872,-3.766901,4.322036,0.004581,0.106901,-0.016035,32.54,64.5058469831166
10922,-8.252846,-3.762714,4.311268,0.003971,0.100793,-0.018173,32.54,64.5770775046376
10932,-8.266603,-3.768098,4.312464,0.002902,0.094684,-0.020464,32.52,64.6070022388871
10942,-8.268997,-3.757928,4.298706,0.002443,0.087354,-0.022907,32.52,64.672895364032
10952,-8.280961,-3.745964,4.296313,0.001069,0.078954,-0.025504,32.53,64.6997436721643
10962,-8.279764,-3.754937,4.293921,0.000916,0.069944,-0.027947,32.53,64.7184276744372
10972,-8.28156,-3.756134,4.289135,-0.000305,0.060934,-0.029169,32.51,64.748272887815
10982,-8.287541,-3.761517,4.289135,0,0.051007,-0.03207,32.51,64.7669076424013
10992,-8.291729,-3.745964,4.282554,-0.000305,0.041386,-0.034056,32.53,64.7945092769553
11002,-8.280961,-3.745365,4.280162,-0.000305,0.030696,-0.036194,32.53,64.7824212099738
11012,-8.289934,-3.742973,4.274179,-0.000458,0.020311,-0.036805,32.49,64.8307490330305
11022,-8.280961,-3.741179,4.278965,-0.000458,0.009927,-0.037415,32.49,64.7844080937566
11032,-8.280362,-3.748955,4.278965,-0.000611,-0.001069,-0.03879,32.49,64.7908675928999
11042,-8.266603,-3.742374,4.27059,0.000611,-0.011606,-0.038637,32.49,64.7970528745802
11052,-8.250452,-3.734,4.282554,0.002138,-0.030849,-0.038637,32.54,64.6908929062831
11062,-8.247462,-3.75075,4.276572,0.002138,-0.041692,-0.038179,32.52,64.7320806848331
11072,-8.248059,-3.73041,4.284349,0.003971,-0.049938,-0.037263,32.52,64.6726580524969
11082,-8.231908,-3.744768,4.288536,0.005651,-0.058338,-0.03543,32.52,64.6294986285229
11092,-8.222935,-3.738187,4.28734,0.00733,-0.065973,-0.03375,32.52,64.6089472242573
11102,-8.204391,-3.732205,4.290331,0.009316,-0.071777,-0.031918,32.49,64.5457983091282
11112,-8.206185,-3.752544,4.289733,0.010843,-0.077885,-0.030085,32.49,64.5737196410931
11122,-8.197212,-3.741179,4.305884,0.013439,-0.082925,-0.027794,32.47,64.4582944761142
11132,-8.188837,-3.753142,4.30409,0.015424,-0.086896,-0.026573,32.47,64.461050168346
11142,-8.188837,-3.748357,4.328018,0.018021,-0.090255,-0.02306,32.52,64.3323224155718
11152,-8.169695,-3.750151,4.33041,0.02138,-0.090713,-0.020311,32.52,64.2785211822021
11162,-8.169695,-3.751348,4.339384,0.023824,-0.09163,-0.01909,32.54,64.2333607155329
11172,-8.161918,-3.754339,4.361517,0.026114,-0.091477,-0.016035,32.54,64.1044961789665
11182,-8.150552,-3.757928,4.368098,0.028253,-0.088575,-0.013897,32.51,64.0483964072019
11192,-8.143373,-3.753741,4.371089,0.030085,-0.085368,-0.011912,32.51,64.012156787322
11202,-8.13141,-3.765106,4.38425,0.032376,-0.080481,-0.009163,32.48,63.9288748040773
11212,-8.122437,-3.755535,4.395017,0.034056,-0.07422,-0.008399,32.48,63.8425732529346
11222,-8.123035,-3.754937,4.407579,0.035125,-0.058643,-0.004887,32.48,63.7785496411337
11232,-8.117651,-3.756134,4.424927,0.037415,-0.048564,-0.003818,32.52,63.6780736967834
11242,-8.113463,-3.757928,4.44407,0.038026,-0.037874,-0.00168,32.52,63.571864332766
11252,-8.116454,-3.771687,4.45065,0.038026,-0.025962,0,32.54,63.559783468639
11262,-8.10808,-3.760321,4.448257,0.037415,-0.014203,0.001222,32.54,63.5404410353854
11272,-8.107481,-3.761517,4.452445,0.036652,-0.000611,0.002138,32.55,63.5188247501126
11282,-8.111071,-3.753741,4.457231,0.036346,0.012981,0.003207,32.55,63.4942183098415
11292,-8.111669,-3.76391,4.465605,0.034361,0.026878,0.004276,32.5,63.4635880627125
11302,-8.113463,-3.771089,4.462614,0.032376,0.040623,0.004734,32.5,63.4908299646681
11312,-8.13141,-3.767499,4.459025,0.029932,0.053451,0.005651,32.51,63.5469439386465
11322,-8.124231,-3.757928,4.459623,0.028405,0.066279,0.006567,32.51,63.5169881037695
11332,-8.132606,-3.765106,4.44048,0.025809,0.078649,0.006414,32.52,63.642261357351
11342,-8.143373,-3.77408,4.445865,0.022755,0.089644,0.006261,32.52,63.6490511456369
11352,-8.150552,-3.761517,4.438088,0.020617,0.099418,0.006261,32.52,63.6920802137015
11362,-8.163713,-3.765705,4.429115,0.018173,0.108581,0.006109,32.52,63.7727889983301
11372,-8.176275,-3.771089,4.42074,0.015424,0.115606,0.005956,32.5,63.8501897834757
11382,-8.184052,-3.761517,4.390232,0.012981,0.120646,0.003971,32.5,64.0144961452907
11392,-8.215756,-3.752544,4.380062,0.01069,0.124769,0.001527,32.54,64.1294093865786
11402,-8.22473,-3.763312,4.361517,0.005192,0.126907,-0.001985,32.51,64.2560872641992
11412,-8.232506,-3.763312,4.349553,0.002902,0.124769,-0.004734,32.51,64.3350934770522
11422,-8.245069,-3.751348,4.336392,0.000458,0.121868,-0.007025,32.51,64.4187486006697
11432,-8.263614,-3.763312,4.323233,-0.001069,0.116828,-0.010232,32.51,64.5400835544212
11442,-8.274381,-3.761517,4.312464,-0.002291,0.110567,-0.014203,32.54,64.6176321147863
11452,-8.273185,-3.753142,4.301697,-0.003818,0.10232,-0.018631,32.54,64.6619586621018
11462,-8.282756,-3.754339,4.295715,-0.005498,0.092852,-0.021991,32.49,64.715215398292
11472,-8.286345,-3.756134,4.295117,-0.007789,0.082314,-0.027184,32.49,64.7280484863212
11482,-8.298907,-3.759125,4.271787,-0.009163,0.070708,-0.031307,32.53,64.8789925659482
11492,-8.295319,-3.749553,4.268795,-0.009163,0.058338,-0.035736,32.53,64.8769753964379
11502,-8.291729,-3.742374,4.265805,-0.009621,0.04612,-0.040623,32.5,64.8773371943516
11512,-8.291131,-3.75075,4.268795,-0.01069,0.033139,-0.045204,32.5,64.8689339313535
11522,-8.298907,-3.746562,4.262814,-0.01069,0.020464,-0.049327,32.47,64.9127682113233
11532,-8.297711,-3.741179,4.266403,-0.010232,0.007178,-0.052687,32.47,64.8862572607765
11542,-8.286943,-3.744768,4.265805,-0.009774,-0.004734,-0.0562,32.54,64.8691602451929
11552,-8.285149,-3.745365,4.278965,-0.009927,-0.016341,-0.059865,32.54,64.7978657083776
11562,-8.2678,-3.742374,4.277769,-0.009163,-0.027947,-0.062766,32.54,64.7626100690269
11572,-8.271988,-3.738786,4.284947,-0.005956,-0.047342,-0.064752,32.48,64.7312379938832
11582,-8.262416,-3.744169,4.299902,-0.004887,-0.055589,-0.06521,32.48,64.6382109664446
11592,-8.242676,-3.75075,4.3005,-0.003665,-0.062766,-0.065973,32.52,64.5977841505797
11602,-8.234302,-3.754937,4.311867,-0.002749,-0.068875,-0.065821,32.52,64.5246695783949
11612,-8.218149,-3.741179,4.314259,-0.000305,-0.073151,-0.063683,32.51,64.4620603462867
11622,-8.213365,-3.746562,4.32742,0.002291,-0.077122,-0.061697,32.51,64.3888626768376
11632,-8.199007,-3.745365,4.338786,0.003818,-0.079412,-0.058338,32.51,64.2965937764478
11642,-8.170892,-3.751348,4.337589,0.007025,-0.080787,-0.05452,32.51,64.2453530996456
11652,-8.175676,-3.75733,4.341777,0.007789,-0.081092,-0.050702,32.5,64.240776446597
11662,-8.160722,-3.749553,4.351348,0.010232,-0.080176,-0.045509,32.5,64.1492803376137
11672,-8.152347,-3.756134,4.362116,0.013592,-0.077427,-0.040623,32.5,64.0814858948946
11682,-8.138588,-3.771089,4.360321,0.016035,-0.074373,-0.034819,32.5,64.0751485339527
11692,-8.132606,-3.766303,4.369893,0.017562,-0.07025,-0.028711,32.5,64.0069905362411
11702,-8.125427,-3.762714,4.367499,0.020311,-0.066126,-0.021533,32.5,63.999145361194
11712,-8.11466,-3.765705,4.373481,0.022144,-0.060628,-0.016646,32.52,63.9467419998794
11722,-8.107481,-3.776472,4.388436,0.023976,-0.05452,-0.009621,32.52,63.8644957986988
11732,-8.095517,-3.781856,4.396811,0.02642,-0.048106,-0.002443,32.51,63.7995271251243
11742,-8.097312,-3.786044,4.399205,0.029474,-0.033598,0.007941,32.51,63.7958052591829
11752,-8.102098,-3.783651,4.400401,0.032834,-0.025809,0.013286,32.5,63.7980716495684
11762,-8.103294,-3.786044,4.406384,0.034361,-0.017868,0.018173,32.51,63.7725425522757
11772,-8.108678,-3.778267,4.409374,0.035583,-0.010079,0.022144,32.51,63.7611724494968
11782,-8.115258,-3.785445,4.417749,0.036652,-0.001222,0.025962,32.5,63.7408914907393
11792,-8.111071,-3.781856,4.421339,0.037568,0.007789,0.029932,32.5,63.7089229368393
11802,-8.129615,-3.788436,4.415954,0.038179,0.016341,0.031612,32.54,63.7863167400597
11812,-8.130214,-3.789633,4.436892,0.038485,0.025198,0.034208,32.54,63.6814201939846
11822,-8.127223,-3.779463,4.428516,0.038332,0.034208,0.033445,32.55,63.7066509590354
11832,-8.142178,-3.777669,4.429713,0.037568,0.043066,0.033139,32.55,63.7329829561336
11842,-8.140981,-3.775874,4.422534,0.037568,0.052382,0.03375,32.55,63.7651848662425
11852,-8.155338,-3.778267,4.432704,0.036652,0.060323,0.03207,32.55,63.7484933428462
11862,-8.166704,-3.778267,4.4339,0.036194,0.069639,0.030238,32.53,63.768423914958
11872,-8.179864,-3.779463,4.434498,0.034667,0.076358,0.027184,32.53,63.7967507506998
11882,-8.183454,-3.775276,4.430311,0.032376,0.084147,0.024587,32.48,63.8219741103388
11892,-8.203793,-3.771687,4.417749,0.030543,0.09163,0.021075,32.48,63.9289109085337
11902,-8.205587,-3.760321,4.415356,0.027489,0.098197,0.01573,32.52,63.9333714849419
11912,-8.231908,-3.762115,4.400401,0.024129,0.106596,0.006414,32.52,64.0715959385728
11922,-8.240881,-3.755535,4.392026,0.019242,0.10965,0.000916,32.53,64.1279905417023
11933,-8.254042,-3.760321,4.38425,0.015424,0.112246,-0.004123,32.49,64.2024297812979
11942,-8.251051,-3.753741,4.39083,0.011759,0.112705,-0.010385,32.49,64.1552415805846
11952,-8.2678,-3.748357,4.368098,0.007941,0.112552,-0.014661,32.53,64.3038875772192
11962,-8.262416,-3.74716,4.356732,0.005345,0.110719,-0.020311,32.53,64.3488707380975
11972,-8.269596,-3.739383,4.34417,0.001374,0.107207,-0.026878,32.5,64.4215679269797
11982,-8.289336,-3.744169,4.329813,-0.002443,0.103084,-0.031307,32.5,64.5442356335739
11992,-8.287541,-3.736991,4.329215,-0.004123,0.096517,-0.035277,32.5,64.5360851961658
12002,-8.292327,-3.742374,4.313661,-0.007025,0.088575,-0.041386,32.5,64.6320874073055
12012,-8.287541,-3.723232,4.295117,-0.00901,0.080023,-0.044288,32.51,64.6977614293937
12022,-8.287541,-3.736991,4.286742,-0.011148,0.069639,-0.047495,32.51,64.7546809246637
12032,-8.285149,-3.726821,4.273581,-0.012523,0.058185,-0.051618,32.5,64.8071424709151
12042,-8.282756,-3.734598,4.260421,-0.014203,0.045968,-0.054214,32.5,64.8775916389509
12052,-8.29472,-3.726821,4.25085,-0.014203,0.03375,-0.055283,32.51,64.9457568201253
12062,-8.274979,-3.719643,4.248456,-0.015272,0.0197,-0.057421,32.51,64.9074233720459
12072,-8.28156,-3.727419,4.235895,-0.014661,0.006109,-0.057421,32.53,64.9947508176363
12082,-8.263015,-3.728018,4.23051,-0.013744,-0.008552,-0.056658,32.53,64.9823646154486
12092,-8.25165,-3.733402,4.232903,-0.011301,-0.036194,-0.055283,32.52,64.9502074476397
12102,-8.243275,-3.729214,4.237091,-0.009316,-0.049327,-0.053756,32.49,64.9057282980173
12112,-8.230114,-3.722036,4.24726,-0.006414,-0.062461,-0.051771,32.49,64.8164703367421
12122,-8.2349,-3.73041,4.25085,-0.003971,-0.073762,-0.04948,32.54,64.8169056198832
12132,-8.218747,-3.742973,4.266403,-0.00168,-0.084299,-0.046426,32.54,64.7129490627358
12142,-8.221141,-3.734,4.27717,0.001833,-0.093462,-0.043219,32.48,64.6533591882849
12152,-8.20798,-3.739383,4.289733,0.005498,-0.101862,-0.040317,32.48,64.5642818832307
12162,-8.19781,-3.743571,4.301099,0.007789,-0.107054,-0.037568,32.48,64.4868694811879
12172,-8.185846,-3.738187,4.319643,0.010843,-0.110414,-0.033139,32.48,64.3583736745739
12182,-8.170892,-3.742374,4.328018,0.013286,-0.11301,-0.029932,32.52,64.2855313027924
12192,-8.165507,-3.749553,4.358526,0.015882,-0.11301,-0.025962,32.52,64.123096680856
12202,-8.165507,-3.747759,4.369295,0.018326,-0.111177,-0.022907,32.54,64.0656557341389
12212,-8.160124,-3.748955,4.386044,0.020617,-0.107054,-0.019853,32.54,63.9682890662214
12222,-8.139186,-3.753741,4.402196,0.022449,-0.102014,-0.017104,32.48,63.8421605622122
12232,-8.14457,-3.759125,4.413561,0.023671,-0.094226,-0.013897,32.48,63.8017472473759
12242,-8.129615,-3.756134,4.425525,0.02474,-0.085674,-0.012981,32.48,63.7026182153868
12252,-8.115258,-3.766901,4.452445,0.025656,-0.075289,-0.010385,32.48,63.542653205256
12262,-8.125427,-3.771687,4.457829,0.024587,-0.049022,-0.008399,32.53,63.54372472942
12272,-8.115856,-3.769892,4.472784,0.024282,-0.034667,-0.007178,32.52,63.44296676028
12282,-8.105088,-3.778865,4.470989,0.024129,-0.020159,-0.007025,32.52,63.4368549117108
12292,-8.110473,-3.765106,4.479962,0.022755,-0.005345,-0.005956,32.54,63.3885160563311
12302,-8.108678,-3.783053,4.478765,0.021838,0.010232,-0.004887,32.54,63.4098926816408
12312,-8.100902,-3.78724,4.473382,0.021686,0.02474,-0.004734,32.48,63.4239493001738
12322,-8.100902,-3.783651,4.470391,0.020159,0.039248,-0.005345,32.48,63.4353853643769
12332,-8.119445,-3.788436,4.452445,0.019242,0.05284,-0.004429,32.51,63.5755211661918
12343,-8.109276,-3.787838,4.462614,0.018021,0.066737,-0.005192,32.51,63.4992137471778
12352,-8.130812,-3.789035,4.446463,0.017104,0.07926,-0.003971,32.51,63.6330594021268
12362,-8.124231,-3.786044,4.426722,0.016799,0.088728,-0.004123,32.51,63.7160343234652
12372,-8.140383,-3.786044,4.423731,0.016035,0.098807,-0.003512,32.51,63.768506842745
12382,-8.148159,-3.794419,4.411169,0.016188,0.10736,-0.001985,32.51,63.8597588802818
12392,-8.140981,-3.793222,4.398008,0.014966,0.113926,-0.000764,32.49,63.9097508522386
12402,-8.151151,-3.792624,4.389633,0.014813,0.11805,-0.001069,32.49,63.9754110203848
12412,-8.175079,-3.793222,4.372883,0.014813,0.121715,0.000153,32.52,64.1165939388015
12422,-8.180463,-3.778865,4.345366,0.014661,0.122784,0.000764,32.52,64.2555157636177
12432,-8.19781,-3.781258,4.34417,0.014661,0.120646,0.003818,32.52,64.3032918405874
12442,-8.217552,-3.791427,4.31725,0.015882,0.117592,0.004123,32.5,64.4968737605558
12452,-8.23131,-3.778267,4.311867,0.015272,0.112705,0.004734,32.5,64.5418311699024
12462,-8.230712,-3.77408,4.31067,0.014661,0.107665,0.00504,32.52,64.5423833406076
12472,-8.240283,-3.773481,4.298706,0.013897,0.100029,0.004123,32.52,64.6248352997444
12482,-8.243275,-3.766901,4.298706,0.013439,0.092241,0.003665,32.48,64.6247952050741
12492,-8.266603,-3.75733,4.302894,0.012675,0.082925,0.00336,32.48,64.6453909005959
12502,-8.28156,-3.765705,4.287939,0.011606,0.073457,0.000764,32.52,64.7640531053797
12512,-8.28455,-3.75733,4.287939,0.009774,0.063377,-0.000764,32.52,64.7622544402983
12522,-8.279764,-3.756732,4.295715,0.008094,0.053451,-0.002596,32.51,64.7109893145424
12532,-8.28156,-3.75075,4.294518,0.007025,0.043524,-0.004734,32.51,64.7151263913407
12542,-8.292327,-3.756732,4.288536,0.00504,0.032376,-0.008247,32.52,64.7757759471935
12552,-8.292327,-3.750151,4.290929,0.00336,0.021075,-0.011606,32.52,64.7568629095184
12562,-8.30489,-3.745964,4.299902,0.001222,0.011454,-0.014203,32.52,64.7342934900967
12572,-8.297112,-3.735795,4.293921,-0.001374,0.001527,-0.017562,32.52,64.7377042198358
12582,-8.298907,-3.742374,4.293322,-0.003207,-0.008399,-0.021533,32.49,64.7513294314266
12592,-8.286345,-3.735795,4.305286,-0.005498,-0.018479,-0.025656,32.49,64.6552863238352
12602,-8.286345,-3.72383,4.306482,-0.006414,-0.027031,-0.032681,32.53,64.6371456965965
12612,-8.276175,-3.734598,4.305884,-0.008094,-0.042913,-0.035125,32.52,64.6283773490417
12622,-8.2678,-3.731009,4.30409,-0.00901,-0.050244,-0.038637,32.52,64.6153514773142
12632,-8.256434,-3.727419,4.311268,-0.009774,-0.056505,-0.041081,32.52,64.5493361122996
12642,-8.26481,-3.725625,4.306482,-0.010385,-0.062461,-0.043066,32.52,64.5909271439731
12652,-8.248658,-3.725625,4.329813,-0.008858,-0.067195,-0.043371,32.53,64.4345079722905
12662,-8.231908,-3.720241,4.33041,-0.008247,-0.07254,-0.044746,32.53,64.3882816388176
12672,-8.220542,-3.737589,4.324429,-0.007636,-0.076053,-0.045051,32.5,64.4112544698772
12682,-8.210373,-3.739383,4.332804,-0.005345,-0.078954,-0.045204,32.5,64.3469632720289
12692,-8.18764,-3.745964,4.334,-0.00336,-0.08094,-0.045357,32.53,64.2962311542138
12702,-8.192427,-3.735196,4.332206,-0.000916,-0.082314,-0.043371,32.53,64.3052041787925
12712,-8.173284,-3.732804,4.338786,0.001222,-0.08262,-0.041692,32.52,64.2253254971096
12722,-8.162517,-3.744768,4.338786,0.004429,-0.082467,-0.039706,32.52,64.2133088397281
12732,-8.155338,-3.739982,4.345964,0.006261,-0.081551,-0.03711,32.52,64.1548594311295
12742,-8.158927,-3.745964,4.362116,0.009316,-0.079565,-0.034208,32.52,64.0858225548478
12752,-8.13799,-3.756134,4.362714,0.011454,-0.076358,-0.031154,32.52,64.0456403633315
12762,-8.132606,-3.762714,4.378268,0.013897,-0.071929,-0.028558,32.52,63.959947751929
12772,-8.123632,-3.754339,4.386642,0.016188,-0.067042,-0.024129,32.47,63.8872660958667
12782,-8.109874,-3.762714,4.40399,0.021228,-0.054062,-0.017562,32.47,63.7750253908047
12792,-8.106285,-3.761517,4.409374,0.023213,-0.047037,-0.014661,32.49,63.7377040213179
12802,-8.101499,-3.766303,4.41057,0.023518,-0.038485,-0.011912,32.51,63.7256213283078
12812,-8.103294,-3.765106,4.417749,0.024893,-0.029474,-0.009316,32.51,63.69147719372
12822,-8.102695,-3.768696,4.423731,0.025504,-0.0197,-0.005498,32.52,63.6631352350065
12832,-8.10808,-3.775874,4.432106,0.025656,-0.009163,-0.003054,32.52,63.6401984941347
12842,-8.105088,-3.77049,4.442276,0.025656,0.002596,0.001374,32.52,63.5751907782408
12852,-8.094321,-3.769294,4.448855,0.025809,0.014661,0.003665,32.52,63.5151127204003
12862,-8.106883,-3.75733,4.443472,0.025504,0.027489,0.006109,32.5,63.5590398924771
12872,-8.116454,-3.771089,4.456632,0.024435,0.038637,0.007789,32.5,63.5284450269675
12882,-8.117052,-3.765106,4.44407,0.021991,0.049938,0.010537,32.51,63.5878807027111
12892,-8.126624,-3.771089,4.451847,0.021991,0.062308,0.012523,32.51,63.5765251312021
12902,-8.130214,-3.765106,4.442873,0.0197,0.07422,0.014813,32.52,63.6244556990487
12912,-8.145168,-3.773481,4.43749,0.018173,0.084452,0.016035,32.52,63.6954881845539
12922,-8.133204,-3.768098,4.43749,0.016188,0.094837,0.016799,32.5,63.662186784479
12932,-8.152347,-3.766303,4.429713,0.013897,0.104458,0.016646,32.5,63.7442584797398
12942,-8.15773,-3.765106,4.408178,0.012065,0.112552,0.017715,32.45,63.8659350057611
12952,-8.189436,-3.766901,4.399803,0.010385,0.125227,0.016799,32.45,63.9832244214405
12962,-8.204391,-3.777071,4.391428,0.005956,0.128893,0.015424,32.53,64.0707978325153
12972,-8.219944,-3.776472,4.386044,0.004123,0.131641,0.013744,32.5,64.13298363444
12982,-8.227122,-3.766901,4.359723,0.00168,0.131641,0.010385,32.5,64.2743953615812
12992,-8.243275,-3.775276,4.345366,-0.000916,0.130267,0.007025,32.51,64.3930556505242
13002,-8.247462,-3.763312,4.331607,-0.003207,0.127365,0.003818,32.51,64.4609378713491
13012,-8.27139,-3.76391,4.32742,-0.004429,0.122326,0.000153,32.53,64.5364885603133
13022,-8.274979,-3.756732,4.309474,-0.005803,0.115759,-0.004734,32.53,64.6295174639975
13032,-8.292327,-3.763312,4.305286,-0.008094,0.108123,-0.008705,32.5,64.696170757728
13042,-8.30489,-3.765705,4.287939,-0.009163,0.098044,-0.013286,32.5,64.8155498585246
13052,-8.316256,-3.747759,4.281956,-0.010079,0.08659,-0.018784,32.49,64.8535085622191
13062,-8.313862,-3.755535,4.269992,-0.010537,0.074067,-0.023671,32.49,64.9175686644126
13072,-8.33121,-3.752544,4.258626,-0.01069,0.060476,-0.028711,32.52,65.0112140689298
13082,-8.319246,-3.764508,4.251448,-0.011301,0.045357,-0.034056,32.52,65.0338494881301
13092,-8.310272,-3.76391,4.256233,-0.011454,0.030238,-0.038332,32.52,64.9889288329015
13102,-8.30489,-3.766303,4.25384,-0.012217,0.015119,-0.043677,32.52,64.9918538172736
13112,-8.317451,-3.760321,4.237091,-0.011606,-0.000611,-0.047342,32.5,65.0998755280961
13122,-8.303694,-3.745365,4.245465,-0.011148,-0.016493,-0.054062,32.5,65.0117023481693
13132,-8.285748,-3.757928,4.25085,-0.01069,-0.047037,-0.055741,32.5,64.9569224690238
13142,-8.270193,-3.746562,4.252644,-0.009621,-0.060323,-0.057116,32.5,64.9020104042568
13152,-8.258827,-3.754937,4.246064,-0.008399,-0.073151,-0.057879,32.5,64.9193802568017
13162,-8.259426,-3.750151,4.266403,-0.007636,-0.085063,-0.05849,32.55,64.8106131020585
13172,-8.253444,-3.739383,4.282554,-0.005803,-0.095142,-0.057116,32.55,64.7029811512558
13182,-8.226524,-3.748955,4.279563,-0.004276,-0.103847,-0.056047,32.53,64.6681732167211
13192,-8.216953,-3.747759,4.3005,-0.003054,-0.111177,-0.053298,32.53,64.5372207528308
13202,-8.201998,-3.745365,4.313661,-0.001527,-0.116523,-0.050855,32.5,64.4331288384274
13212,-8.19123,-3.744169,4.319643,0.000611,-0.119577,-0.047495,32.5,64.3766999081949
13222,-8.181659,-3.759723,4.341179,0.001833,-0.121257,-0.043371,32.52,64.2598947518913
13232,-8.178668,-3.746562,4.350152,0.004123,-0.120951,-0.038332,32.52,64.1931138936538
13242,-8.1679,-3.754937,4.379463,0.005192,-0.118508,-0.034208,32.5,64.026219822881
13252,-8.148159,-3.744169,4.375276,0.006567,-0.11469,-0.030238,32.5,63.9914145598367
13262,-8.134999,-3.751348,4.38425,0.008247,-0.109803,-0.025962,32.54,63.9225300476994
13272,-8.120642,-3.765106,4.398008,0.010232,-0.102473,-0.019853,32.54,63.83320886443
13282,-8.109276,-3.765705,4.404588,0.012523,-0.093921,-0.016493,32.52,63.7737626419596
13292,-8.112864,-3.761517,4.432704,0.013439,-0.083994,-0.012523,32.52,63.6327601237752
13302,-8.109874,-3.755535,4.4339,0.016799,-0.060781,-0.002902,32.53,63.6132718729189
13312,-8.095517,-3.760919,4.44407,0.018021,-0.047953,0.001069,32.54,63.5334496887534
13322,-8.091928,-3.771089,4.451249,0.020159,-0.035736,0.00504,32.54,63.4991910879397
13332,-8.094919,-3.766901,4.442873,0.02138,-0.021991,0.008858,32.5,63.5446752934358
13342,-8.094321,-3.769892,4.448855,0.021838,-0.009316,0.012217,32.5,63.5157593421908
13352,-8.094321,-3.776472,4.448855,0.023671,0.004887,0.015119,32.52,63.522877972573
13362,-8.094321,-3.77049,4.445267,0.025198,0.017562,0.017715,32.52,63.5348530956096
13372,-8.100902,-3.763312,4.446463,0.025656,0.03146,0.020769,32.48,63.5362271780545
13382,-8.095517,-3.77408,4.447061,0.026725,0.043982,0.022755,32.48,63.5322857508095
13392,-8.109276,-3.778865,4.439882,0.027031,0.055589,0.024435,32.48,63.6062068166144
13402,-8.112267,-3.778267,4.439284,0.027031,0.066432,0.025809,32.48,63.6155480171939
13412,-8.129615,-3.775874,4.427918,0.027489,0.076205,0.026267,32.51,63.7113902357027
13422,-8.135597,-3.784249,4.429713,0.0281,0.085827,0.026267,32.51,63.7248838498936
13432,-8.139785,-3.761517,4.424927,0.027184,0.094379,0.027336,32.5,63.7348582828077
13442,-8.143971,-3.775276,4.411767,0.026267,0.100793,0.027794,32.5,63.8267411800847
13452,-8.160124,-3.773481,4.408178,0.025045,0.107818,0.025656,32.54,63.8802655883173
13462,-8.187043,-3.772883,4.393223,0.023518,0.113316,0.024282,32.54,64.0178318562182
13472,-8.209177,-3.773481,4.382454,0.022755,0.119882,0.018784,32.51,64.1239518495627
13482,-8.210971,-3.769892,4.381258,0.018173,0.121868,0.016035,32.49,64.1304206562992
13492,-8.230114,-3.758526,4.368098,0.016035,0.122478,0.012065,32.49,64.2294826839885
13502,-8.239087,-3.753142,4.363312,0.013897,0.122478,0.009468,32.48,64.2687509450402
13512,-8.249854,-3.750151,4.367499,0.009774,0.120035,0.004276,32.48,64.2684379339113
13522,-8.260024,-3.750151,4.345964,0.007178,0.117744,-0.000611,32.51,64.4018379462982
13532,-8.269596,-3.753741,4.341777,0.004123,0.11301,-0.004123,32.51,64.4484147215601
13542,-8.282756,-3.741179,4.325625,0.001069,0.10797,-0.008705,32.56,64.5480777115656
13552,-8.288139,-3.739383,4.328018,-0.00168,0.10232,-0.013134,32.56,64.5459734332893
13562,-8.302496,-3.738187,4.301697,-0.004887,0.095142,-0.018479,32.5,64.7119979446486
13572,-8.291729,-3.744169,4.311268,-0.006872,0.08659,-0.024587,32.5,64.6448647366618
13582,-8.308478,-3.732804,4.295117,-0.009774,0.076816,-0.028863,32.54,64.753740418892
13592,-8.30489,-3.741179,4.284947,-0.011454,0.066737,-0.033445,32.54,64.8064957671339
13602,-8.298308,-3.736991,4.278367,-0.012981,0.056352,-0.036957,32.52,64.821692671433
13612,-8.310272,-3.733402,4.269992,-0.015424,0.044288,-0.041692,32.52,64.8877212154658
13622,-8.306085,-3.736991,4.263412,-0.016493,0.031765,-0.045662,32.54,64.9159912846754
13632,-8.295916,-3.732804,4.261617,-0.017104,0.0197,-0.047953,32.54,64.8986862514326
13642,-8.29472,-3.741776,4.255037,-0.018173,0.006414,-0.05284,32.51,64.9389511893613
13652,-8.29472,-3.736392,4.251448,-0.017562,-0.020311,-0.05452,32.49,64.9521537095314
13662,-8.266603,-3.729812,4.247859,-0.016799,-0.033445,-0.054672,32.49,64.9021178645054
13672,-8.2678,-3.734598,4.255635,-0.015882,-0.046273,-0.0562,32.53,64.8692763742502
13682,-8.263614,-3.741179,4.247859,-0.014661,-0.059101,-0.055894,32.53,64.9068679994051
13692,-8.246863,-3.738187,4.269393,-0.012675,-0.070555,-0.055283,32.5,64.7552171473371
13702,-8.233105,-3.728616,4.261019,-0.010843,-0.081245,-0.053298,32.5,64.7583423981408
13712,-8.23131,-3.747759,4.272983,-0.009621,-0.091019,-0.052534,32.53,64.71169777102
13722,-8.221141,-3.743571,4.275974,-0.006872,-0.099571,-0.04948,32.53,64.6692796355513
13732,-8.210373,-3.755535,4.292724,-0.004734,-0.106596,-0.046731,32.5,64.5706708255115
13742,-8.193623,-3.755535,4.301697,-0.003054,-0.112399,-0.043982,32.5,64.4866642156738
13752,-8.181061,-3.750151,4.324429,-0.000764,-0.116523,-0.040317,32.5,64.335170109867
13762,-8.182856,-3.762115,4.335794,0.001374,-0.119424,-0.037415,32.5,64.2928936559166
13772,-8.165507,-3.756134,4.347759,0.003665,-0.119424,-0.032529,32.51,64.1855717346612
13782,-8.150552,-3.753741,4.359125,0.005803,-0.117439,-0.029474,32.51,64.0903300898267
13792,-8.135597,-3.768696,4.373481,0.007636,-0.115759,-0.026114,32.53,63.997830674112
13802,-8.13799,-3.765106,4.389035,0.009774,-0.110719,-0.021991,32.53,63.9192687662327
13812,-8.123035,-3.765106,4.411767,0.01069,-0.10568,-0.019242,32.47,63.7678171701982
13822,-8.116454,-3.765705,4.425525,0.01405,-0.087965,-0.01237,32.51,63.6824736820927
13832,-8.107481,-3.765705,4.447061,0.014661,-0.07758,-0.010232,32.51,63.5509916330952
13842,-8.09791,-3.768696,4.445865,0.015577,-0.066279,-0.005498,32.51,63.5381676718499
13852,-8.103294,-3.782454,4.453641,0.016035,-0.053298,-0.003054,32.51,63.525568026244
13862,-8.097312,-3.775276,4.454239,0.016646,-0.040012,-0.000611,32.52,63.5008609570904
13872,-8.092526,-3.774678,4.470391,0.016341,-0.025656,0.001069,32.52,63.4061726423908
13882,-8.099107,-3.775276,4.469195,0.016952,-0.010996,0.002596,32.49,63.4282664576673
13892,-8.093722,-3.781258,4.468596,0.016952,0.003818,0.004276,32.49,63.4253093544982
13902,-8.10449,-3.779463,4.466802,0.016493,0.019395,0.007025,32.52,63.4575795662729
13912,-8.110473,-3.77408,4.472784,0.016952,0.034667,0.007789,32.52,63.4349868114657
13922,-8.107481,-3.784847,4.459623,0.017104,0.049022,0.009163,32.49,63.5071589909572
13932,-8.118848,-3.786044,4.459623,0.016493,0.063377,0.01069,32.49,63.5347614910446
13942,-8.124829,-3.780062,4.453641,0.015577,0.076358,0.011759,32.51,63.5728125405084
13952,-8.120642,-3.779463,4.447659,0.014966,0.088881,0.012217,32.51,63.5931795531901
13962,-8.133204,-3.784249,4.4339,0.014661,0.099113,0.012675,32.51,63.6978869785726
13972,-8.149954,-3.766303,4.423133,0.013592,0.108429,0.011606,32.51,63.7725392683503
13982,-8.170293,-3.781258,4.402793,0.013439,0.116217,0.012065,32.48,63.9393564302418
13992,-8.175676,-3.777669,4.381258,0.012675,0.126907,0.012523,32.48,64.0585215014303
14002,-8.181659,-3.779463,4.367499,0.010843,0.129962,0.01237,32.51,64.1447819680756
14012,-8.19781,-3.777071,4.359723,0.009774,0.130725,0.011759,32.49,64.2188392294379
14022,-8.204989,-3.771089,4.342375,0.009468,0.129809,0.010232,32.49,64.3181643006318
14032,-8.215158,-3.760919,4.344768,0.00901,0.127976,0.009468,32.52,64.318229768855
14042,-8.227122,-3.767499,4.322036,0.008705,0.123547,0.009316,32.52,64.4689994263533
14052,-8.248658,-3.769892,4.313661,0.007483,0.117744,0.007789,32.55,64.5627166601304
14062,-8.25165,-3.758526,4.310072,0.005498,0.111636,0.00672,32.55,64.5763208764801
14072,-8.263614,-3.758526,4.298108,0.004429,0.103542,0.004887,32.5,64.6646247324352
14082,-8.261818,-3.752544,4.290929,0.003207,0.094226,0.004123,32.5,64.691622475315
14092,-8.277969,-3.753142,4.287939,0.002291,0.083689,0.002596,32.49,64.7434805558712
14102,-8.280961,-3.751946,4.271787,0.000305,0.072998,0.000764,32.49,64.8322348864571
14112,-8.294122,-3.746562,4.273581,-0.000611,0.061545,-0.001527,32.55,64.8466634775451
14122,-8.299506,-3.743571,4.266403,-0.002138,0.049327,-0.003512,32.55,64.8925928362648
14132,-8.293524,-3.75075,4.265805,-0.00336,0.036805,-0.006109,32.48,64.8896408891242
14142,-8.300103,-3.747759,4.264608,-0.004429,0.024282,-0.008094,32.48,64.9073341581914
14152,-8.307282,-3.74058,4.264608,-0.006261,0.011759,-0.010385,32.53,64.9160143276003
14162,-8.298907,-3.733402,4.27059,-0.007178,-0.000764,-0.016035,32.53,64.8595607900223
14172,-8.306684,-3.735795,4.27717,-0.010232,-0.023671,-0.019395,32.5,64.845175041096
